thisN,thisTrialN,thisRepN,effect,order,distance,config,diag,h_1,w_1,h_2,w_2,h_3,w_3,rect_choice.keys,rect_choice.rt,rect_choice.duration,instructions_loop.thisRepN,instructions_loop.thisTrialN,instructions_loop.thisN,instructions_loop.thisIndex,blocks.thisRepN,blocks.thisTrialN,blocks.thisN,blocks.thisIndex,trials.thisRepN,trials.thisTrialN,trials.thisN,trials.thisIndex,thisRow.t,notes,consent.started,agree_button.started,decline_button.started,consent_img.started,mouse.started,consent.stopped,agree_button.numClicks,agree_button.timesOn,agree_button.timesOff,decline_button.numClicks,decline_button.timesOn,decline_button.timesOff,mouse.x,mouse.y,mouse.leftButton,mouse.midButton,mouse.rightButton,mouse.time,mouse.clicked_name,exp_params.started,exp_params.stopped,welcome.started,welcome_text.started,welcome.stopped,instructions_1.started,instructions_1_text_1.started,instructions_1_text_2.started,key_resp.started,instructions_1.stopped,instructions_loop.key_resp.keys,instructions_loop.key_resp.rt,instructions_loop.key_resp.duration,instructions_2.started,instructions_2_text_1.started,instructions_2_text_2.started,key_resp_2.started,instructions_2.stopped,instructions_loop.key_resp_2.keys,instructions_loop.key_resp_2.rt,instructions_loop.key_resp_2.duration,instructions_3.started,instructions_3_text_1.started,r1_instr3.started,r2_instr3.started,r3_instr3.started,r1_instr3_label.started,r2_instr3_label.started,r3_instr3_label.started,instructions_3_text_3.started,instructions_3_text_4.started,key_resp_3.started,instructions_3.stopped,instructions_loop.key_resp_3.keys,instructions_loop.key_resp_3.rt,instructions_loop.key_resp_3.duration,instructions_4.started,instructions_4_text_1.started,instructions_4_text_3.started,instructions_4_text_2.started,key_resp_4.started,instructions_4.stopped,instructions_loop.key_resp_4.keys,instructions_loop.key_resp_4.rt,instructions_loop.key_resp_4.duration,instructions_5.started,instructions_5_text_1.started,instructions_5_text_2.started,key_resp_5.started,instructions_5.stopped,instructions_loop.key_resp_5.keys,instructions_loop.key_resp_5.rt,instructions_loop.key_resp_5.duration,start_exp.started,start_exp_text.started,key_resp_6.started,start_exp.stopped,key_resp_6.keys,key_resp_6.rt,key_resp_6.duration,h_1_tmp,w_1_tmp,h_2_tmp,w_2_tmp,h_3_tmp,w_3_tmp,config_tmp,config_tmp_1,r_1_x,r_1_y,r_2_x,r_2_y,r_3_x,r_3_y,pre_trial.started,pre_trial.stopped,choice_trial.started,rect_choice.started,r_1.started,r_2.started,r_3.started,r_1_label.started,r_2_label.started,r_3_label.started,prompt.started,choice_trial.stopped,trials.rect_choice.keys,trials.rect_choice.rt,trials.rect_choice.duration,end_block.started,end_block_text.started,end_block.stopped,end.started,end_text.started,key_resp_7.started,end.stopped,key_resp_7.keys,key_resp_7.rt,key_resp_7.duration,debriefing.started,debrief_form.started,end_debrief.started,debriefing.stopped,end_debrief.keys,end_debrief.rt,end_debrief.duration,participant,computer,date,expName,psychopyVersion,frameRate,expStart,
,,,,,,,,,,,,,,,,,,,,,,,,,,,,,,,0.015714168548583984,0.04215860366821289,0.04215860366821289,0.04215860366821289,0.015224933624267578,11.35012149810791,1,[11.30672311782837],[11.306735277175903],0,,,[-69.0],[-484.0],[1],[0],[0],[11.333856582641602],['agree_button'],,,,,,,,,,,,,,,,,,,,,,,,,,,,,,,,,,,,,,,,,,,,,,,,,,,,,,,,,,,,,,,,,,,,,,,,,,,,,,,,,,,,,,,,,,,,,,,,,,,,,,,,,,,67,3,2025-02-21_09h41.17.138,comp,2024.2.4,60.15823020831541,2025-02-21 09h57.43.472175 -0500,
,,,,,,,,,,,,,,,,,,,,,,,,,,,,,,,,,,,,,,,,,,,,,,,,,,11.350374698638916,11.350408554077148,,,,,,,,,,,,,,,,,,,,,,,,,,,,,,,,,,,,,,,,,,,,,,,,,,,,,,,,,,,,,,,,,,,,,,,,,,,,,,,,,,,,,,,,,,,,,,,,,,,,,,,,,67,3,2025-02-21_09h41.17.138,comp,2024.2.4,60.15823020831541,2025-02-21 09h57.43.472175 -0500,
,,,,,,,,,,,,,,,,,,,,,,,,,,,,,,,,,,,,,,,,,,,,,,,,,,,,11.350430250167847,11.363688230514526,13.36207103729248,,,,,,,,,,,,,,,,,,,,,,,,,,,,,,,,,,,,,,,,,,,,,,,,,,,,,,,,,,,,,,,,,,,,,,,,,,,,,,,,,,,,,,,,,,,,,,,,,,,,,,67,3,2025-02-21_09h41.17.138,comp,2024.2.4,60.15823020831541,2025-02-21 09h57.43.472175 -0500,
0,0,0,,,,,,,,,,,,,,,0,0,0,0,,,,,,,,,13.37882685661316,,,,,,,,,,,,,,,,,,,,,,,,,,13.362619400024414,13.37882685661316,13.37882685661316,14.862057447433472,19.2634596824646,space,4.394321918487549,None,19.26354146003723,19.279378652572632,19.279378652572632,20.779274225234985,30.63008713722229,space,9.836145162582397,None,30.63017201423645,30.65166711807251,30.65166711807251,30.65166711807251,30.65166711807251,30.65166711807251,30.65166711807251,30.65166711807251,30.65166711807251,30.65166711807251,32.14571142196655,36.83033990859985,space,4.671021461486816,None,36.830426931381226,36.84566807746887,36.84566807746887,36.84566807746887,38.34528970718384,45.66289782524109,space,7.302012205123901,None,45.66298174858093,45.67856431007385,45.67856431007385,47.178478956222534,48.01280379295349,space,0.8214278221130371,None,48.012917280197144,48.02843976020813,48.02843976020813,49.29613947868347,space,1.250798225402832,None,,,,,,,,,,,,,,,,,,,,,,,,,,,,,,,,,,,,,,,,,,,,,,,67,3,2025-02-21_09h41.17.138,comp,2024.2.4,60.15823020831541,2025-02-21 09h57.43.472175 -0500,
0,0,0,filler_square,None,None,None,None,None,None,None,None,None,None,1,5.333837270736694,None,,,,,0,0,0,0,0,0,0,180,49.354384660720825,,,,,,,,,,,,,,,,,,,,,,,,,,,,,,,,,,,,,,,,,,,,,,,,,,,,,,,,,,,,,,,,,,,,,,,,,,,,,,,,,194.9683967125189,194.9683967125189,156.49583059077077,59.88317023004304,63.569217404666446,151.914263262941,3.0,3.1,-223,251,0,14,202,-272,49.34085440635681,49.34089922904968,49.34287428855896,49.354384660720825,49.50144815444946,49.50144815444946,49.50144815444946,49.50144815444946,49.50144815444946,49.50144815444946,49.50144815444946,54.69641399383545,1,5.333837270736694,None,,,,,,,,,,,,,,,,,,67,3,2025-02-21_09h41.17.138,comp,2024.2.4,60.15823020831541,2025-02-21 09h57.43.472175 -0500,
1,1,0,critical,hwd,35.0,4.0,upper,200.0,125.0,125.0,200.0,127.0,127.0,2,14.319623708724976,None,,,,,0,0,0,0,0,1,1,101,54.712013244628906,,,,,,,,,,,,,,,,,,,,,,,,,,,,,,,,,,,,,,,,,,,,,,,,,,,,,,,,,,,,,,,,,,,,,,,,,,,,,,,,,200.0,125.0,125.0,200.0,127.0,127.0,4.0,4.1,-258,-284,0,9,260,-251,54.697192430496216,54.697230100631714,54.69969034194946,54.712013244628906,54.862353563308716,54.862353563308716,54.862353563308716,54.862353563308716,54.862353563308716,54.862353563308716,54.862353563308716,69.04640412330627,2,14.319623708724976,None,,,,,,,,,,,,,,,,,,67,3,2025-02-21_09h41.17.138,comp,2024.2.4,60.15823020831541,2025-02-21 09h57.43.472175 -0500,
2,2,0,filler_random,None,None,None,None,None,None,None,None,None,None,3,6.794249057769775,None,,,,,0,0,0,0,0,2,2,166,69.06164169311523,,,,,,,,,,,,,,,,,,,,,,,,,,,,,,,,,,,,,,,,,,,,,,,,,,,,,,,,,,,,,,,,,,,,,,,,,,,,,,,,,86.28072141450242,79.11923498559923,179.36014069583538,87.33237835420745,112.9081041765871,107.28671960272683,2.2,2.22,-179,288,0,-283,193,-279,69.04731512069702,69.04735732078552,69.04943871498108,69.06164169311523,69.21187090873718,69.21187090873718,69.21187090873718,69.21187090873718,69.21187090873718,69.21187090873718,69.21187090873718,75.86289668083191,3,6.794249057769775,None,,,,,,,,,,,,,,,,,,67,3,2025-02-21_09h41.17.138,comp,2024.2.4,60.15823020831541,2025-02-21 09h57.43.472175 -0500,
3,3,0,filler_random,None,None,None,None,None,None,None,None,None,None,2,6.688342809677124,None,,,,,0,0,0,0,0,3,3,155,75.87856340408325,,,,,,,,,,,,,,,,,,,,,,,,,,,,,,,,,,,,,,,,,,,,,,,,,,,,,,,,,,,,,,,,,,,,,,,,,,,,,,,,,120.15181659370126,193.24989776613145,197.8033746822201,131.10947220408636,133.24807355057342,184.9697992749437,2.1,2.12,-258,-283,0,-289,254,286,75.86379194259644,75.86383318901062,75.86602139472961,75.87856340408325,76.02859139442444,76.02859139442444,76.02859139442444,76.02859139442444,76.02859139442444,76.02859139442444,76.02859139442444,82.57990503311157,2,6.688342809677124,None,,,,,,,,,,,,,,,,,,67,3,2025-02-21_09h41.17.138,comp,2024.2.4,60.15823020831541,2025-02-21 09h57.43.472175 -0500,
4,4,0,critical,whd,20.0,1.0,lower,57.0,133.0,133.0,57.0,78.0,78.0,2,8.420069456100464,None,,,,,0,0,0,0,0,4,4,90,82.59490060806274,,,,,,,,,,,,,,,,,,,,,,,,,,,,,,,,,,,,,,,,,,,,,,,,,,,,,,,,,,,,,,,,,,,,,,,,,,,,,,,,,57.0,133.0,133.0,57.0,78.0,78.0,1.0,1.2,-191,15,0,11,164,14,82.58067178726196,82.5807135105133,82.58298301696777,82.59490060806274,82.74496364593506,82.74496364593506,82.74496364593506,82.74496364593506,82.74496364593506,82.74496364593506,82.74496364593506,91.02940320968628,2,8.420069456100464,None,,,,,,,,,,,,,,,,,,67,3,2025-02-21_09h41.17.138,comp,2024.2.4,60.15823020831541,2025-02-21 09h57.43.472175 -0500,
5,5,0,catch,None,None,None,None,None,None,None,None,None,None,3,4.002285480499268,None,,,,,0,0,0,0,0,5,5,126,91.04481720924377,,,,,,,,,,,,,,,,,,,,,,,,,,,,,,,,,,,,,,,,,,,,,,,,,,,,,,,,,,,,,,,,,,,,,,,,,,,,,,,,,95,95,102,88,163,162,2.2,2.21,-188,-255,0,277,221,263,91.0304594039917,91.0305016040802,91.03299307823181,91.04481720924377,91.1949942111969,91.1949942111969,91.1949942111969,91.1949942111969,91.1949942111969,91.1949942111969,91.1949942111969,95.06279635429382,3,4.002285480499268,None,,,,,,,,,,,,,,,,,,67,3,2025-02-21_09h41.17.138,comp,2024.2.4,60.15823020831541,2025-02-21 09h57.43.472175 -0500,
6,6,0,critical,hwd,35.0,3.0,upper,200.0,125.0,125.0,200.0,127.0,127.0,1,8.009381294250488,None,,,,,0,0,0,0,0,6,6,99,95.07822227478027,,,,,,,,,,,,,,,,,,,,,,,,,,,,,,,,,,,,,,,,,,,,,,,,,,,,,,,,,,,,,,,,,,,,,,,,,,,,,,,,,200.0,125.0,125.0,200.0,127.0,127.0,3.0,3.2,-258,-278,0,-6,260,266,95.06355953216553,95.06359910964966,95.06558895111084,95.07822227478027,95.22850608825684,95.22850608825684,95.22850608825684,95.22850608825684,95.22850608825684,95.22850608825684,95.22850608825684,103.09616327285767,1,8.009381294250488,None,,,,,,,,,,,,,,,,,,67,3,2025-02-21_09h41.17.138,comp,2024.2.4,60.15823020831541,2025-02-21 09h57.43.472175 -0500,
7,7,0,critical,hdw,35.0,1.0,upper,200.0,125.0,127.0,127.0,125.0,200.0,3,7.296456813812256,None,,,,,0,0,0,0,0,7,7,109,103.11169052124023,,,,,,,,,,,,,,,,,,,,,,,,,,,,,,,,,,,,,,,,,,,,,,,,,,,,,,,,,,,,,,,,,,,,,,,,,,,,,,,,,200.0,125.0,127.0,127.0,125.0,200.0,1.0,1.2,-222,6,0,-8,260,15,103.09693956375122,103.0969808101654,103.09939646720886,103.11169052124023,103.26171493530273,103.26171493530273,103.26171493530273,103.26171493530273,103.26171493530273,103.26171493530273,103.26171493530273,110.41292834281921,3,7.296456813812256,None,,,,,,,,,,,,,,,,,,67,3,2025-02-21_09h41.17.138,comp,2024.2.4,60.15823020831541,2025-02-21 09h57.43.472175 -0500,
8,8,0,critical,dhw,20.0,3.0,lower,78.0,78.0,133.0,57.0,57.0,133.0,3,7.7495527267456055,None,,,,,0,0,0,0,0,8,8,56,110.42830181121826,,,,,,,,,,,,,,,,,,,,,,,,,,,,,,,,,,,,,,,,,,,,,,,,,,,,,,,,,,,,,,,,,,,,,,,,,,,,,,,,,78.0,78.0,133.0,57.0,57.0,133.0,3.0,3.2,-164,-283,0,7,191,274,110.41372346878052,110.41377687454224,110.41582584381104,110.42830181121826,110.57831573486328,110.57831573486328,110.57831573486328,110.57831573486328,110.57831573486328,110.57831573486328,110.57831573486328,118.17936277389526,3,7.7495527267456055,None,,,,,,,,,,,,,,,,,,67,3,2025-02-21_09h41.17.138,comp,2024.2.4,60.15823020831541,2025-02-21 09h57.43.472175 -0500,
9,9,0,filler_random,None,None,None,None,None,None,None,None,None,None,3,1.9503552913665771,None,,,,,0,0,0,0,0,9,9,150,118.19499349594116,,,,,,,,,,,,,,,,,,,,,,,,,,,,,,,,,,,,,,,,,,,,,,,,,,,,,,,,,,,,,,,,,,,,,,,,,,,,,,,,,159.2081865694894,149.21349214670138,74.2661321779884,117.91996836353522,126.49037674530996,154.85512799786932,2.2,2.22,-230,282,0,-254,232,-289,118.18036198616028,118.18040299415588,118.18290400505066,118.19499349594116,118.34481692314148,118.34481692314148,118.34481692314148,118.34481692314148,118.34481692314148,118.34481692314148,118.34481692314148,120.16255474090576,3,1.9503552913665771,None,,,,,,,,,,,,,,,,,,67,3,2025-02-21_09h41.17.138,comp,2024.2.4,60.15823020831541,2025-02-21 09h57.43.472175 -0500,
10,10,0,filler_random,None,None,None,None,None,None,None,None,None,None,2,4.9579689502716064,None,,,,,0,0,0,0,0,10,10,160,120.17790079116821,,,,,,,,,,,,,,,,,,,,,,,,,,,,,,,,,,,,,,,,,,,,,,,,,,,,,,,,,,,,,,,,,,,,,,,,,,,,,,,,,64.35739686092475,147.4642962797328,141.9389249647827,96.54678961231798,70.17348851031912,179.15608020610375,4.0,4.1,-218,-271,0,-6,234,-281,120.16344785690308,120.16348838806152,120.16558313369751,120.17790079116821,120.32837438583374,120.32837438583374,120.32837438583374,120.32837438583374,120.32837438583374,120.32837438583374,120.32837438583374,125.14586639404297,2,4.9579689502716064,None,,,,,,,,,,,,,,,,,,67,3,2025-02-21_09h41.17.138,comp,2024.2.4,60.15823020831541,2025-02-21 09h57.43.472175 -0500,
11,11,0,catch,None,None,None,None,None,None,None,None,None,None,2,0.9995453357696533,None,,,,,0,0,0,0,0,11,11,127,125.16152739524841,,,,,,,,,,,,,,,,,,,,,,,,,,,,,,,,,,,,,,,,,,,,,,,,,,,,,,,,,,,,,,,,,,,,,,,,,,,,,,,,,106,84,169,156,130,60,2.1,2.11,-216,289,0,265,204,-272,125.14691376686096,125.14695477485657,125.14895415306091,125.16152739524841,125.31151938438416,125.31151938438416,125.31151938438416,125.31151938438416,125.31151938438416,125.31151938438416,125.31151938438416,126.17917156219482,2,0.9995453357696533,None,,,,,,,,,,,,,,,,,,67,3,2025-02-21_09h41.17.138,comp,2024.2.4,60.15823020831541,2025-02-21 09h57.43.472175 -0500,
12,12,0,critical,wdh,20.0,2.1,lower,57.0,133.0,78.0,78.0,133.0,57.0,3,2.277012825012207,None,,,,,0,0,0,0,0,12,12,34,126.19448041915894,,,,,,,,,,,,,,,,,,,,,,,,,,,,,,,,,,,,,,,,,,,,,,,,,,,,,,,,,,,,,,,,,,,,,,,,,,,,,,,,,57.0,133.0,78.0,78.0,133.0,57.0,2.1,2.11,-202,286,0,269,164,-257,126.17996215820312,126.18000078201294,126.18240094184875,126.19448041915894,126.34475350379944,126.34475350379944,126.34475350379944,126.34475350379944,126.34475350379944,126.34475350379944,126.34475350379944,128.47908425331116,3,2.277012825012207,None,,,,,,,,,,,,,,,,,,67,3,2025-02-21_09h41.17.138,comp,2024.2.4,60.15823020831541,2025-02-21 09h57.43.472175 -0500,
13,13,0,critical,dhw,35.0,3.0,lower,70.0,70.0,133.0,57.0,57.0,133.0,2,2.482240676879883,None,,,,,0,0,0,0,0,13,13,50,128.49482583999634,,,,,,,,,,,,,,,,,,,,,,,,,,,,,,,,,,,,,,,,,,,,,,,,,,,,,,,,,,,,,,,,,,,,,,,,,,,,,,,,,70.0,70.0,133.0,57.0,57.0,133.0,3.0,3.2,-160,-253,0,9,191,287,128.47987866401672,128.4799189567566,128.4822552204132,128.49482583999634,128.6447319984436,128.6447319984436,128.6447319984436,128.6447319984436,128.6447319984436,128.6447319984436,128.6447319984436,130.97913122177124,2,2.482240676879883,None,,,,,,,,,,,,,,,,,,67,3,2025-02-21_09h41.17.138,comp,2024.2.4,60.15823020831541,2025-02-21 09h57.43.472175 -0500,
14,14,0,critical,hwd,20.0,4.0,upper,200.0,125.0,125.0,200.0,141.0,141.0,2,3.4766154289245605,None,,,,,0,0,0,0,0,14,14,107,130.9948308467865,,,,,,,,,,,,,,,,,,,,,,,,,,,,,,,,,,,,,,,,,,,,,,,,,,,,,,,,,,,,,,,,,,,,,,,,,,,,,,,,,200.0,125.0,125.0,200.0,141.0,141.0,4.0,4.2,-258,7,0,-265,266,0,130.97990727424622,130.97994589805603,130.9820258617401,130.9948308467865,131.1450343132019,131.1450343132019,131.1450343132019,131.1450343132019,131.1450343132019,131.1450343132019,131.1450343132019,134.4792881011963,2,3.4766154289245605,None,,,,,,,,,,,,,,,,,,67,3,2025-02-21_09h41.17.138,comp,2024.2.4,60.15823020831541,2025-02-21 09h57.43.472175 -0500,
15,15,0,critical,whd,35.0,1.0,lower,57.0,133.0,133.0,57.0,70.0,70.0,1,2.2089602947235107,None,,,,,0,0,0,0,0,15,15,84,134.49480366706848,,,,,,,,,,,,,,,,,,,,,,,,,,,,,,,,,,,,,,,,,,,,,,,,,,,,,,,,,,,,,,,,,,,,,,,,,,,,,,,,,57.0,133.0,133.0,57.0,70.0,70.0,1.0,1.3,289,-280,480,-265,640,-259,134.48009943962097,134.48013854026794,134.4824924468994,134.49480366706848,134.64474153518677,134.64474153518677,134.64474153518677,134.64474153518677,134.64474153518677,134.64474153518677,134.64474153518677,136.71256136894226,1,2.2089602947235107,None,,,,,,,,,,,,,,,,,,67,3,2025-02-21_09h41.17.138,comp,2024.2.4,60.15823020831541,2025-02-21 09h57.43.472175 -0500,
16,16,0,critical,dwh,35.0,2.1,upper,127.0,127.0,125.0,200.0,200.0,125.0,2,5.449171304702759,None,,,,,0,0,0,0,0,16,16,5,136.72813153266907,,,,,,,,,,,,,,,,,,,,,,,,,,,,,,,,,,,,,,,,,,,,,,,,,,,,,,,,,,,,,,,,,,,,,,,,,,,,,,,,,127.0,127.0,125.0,200.0,200.0,125.0,2.1,2.12,-260,-260,0,-265,258,259,136.7133493423462,136.71338963508606,136.71579599380493,136.72813153266907,136.87816858291626,136.87816858291626,136.87816858291626,136.87816858291626,136.87816858291626,136.87816858291626,136.87816858291626,142.1960427761078,2,5.449171304702759,None,,,,,,,,,,,,,,,,,,67,3,2025-02-21_09h41.17.138,comp,2024.2.4,60.15823020831541,2025-02-21 09h57.43.472175 -0500,
17,17,0,critical,dhw,20.0,1.0,lower,78.0,78.0,133.0,57.0,57.0,133.0,2,2.3082475662231445,None,,,,,0,0,0,0,0,17,17,54,142.21120357513428,,,,,,,,,,,,,,,,,,,,,,,,,,,,,,,,,,,,,,,,,,,,,,,,,,,,,,,,,,,,,,,,,,,,,,,,,,,,,,,,,78.0,78.0,133.0,57.0,57.0,133.0,1.0,1.3,316,-287,480,-289,671,-264,142.19685339927673,142.19689297676086,142.19895601272583,142.21120357513428,142.36125588417053,142.36125588417053,142.36125588417053,142.36125588417053,142.36125588417053,142.36125588417053,142.36125588417053,144.52894067764282,2,2.3082475662231445,None,,,,,,,,,,,,,,,,,,67,3,2025-02-21_09h41.17.138,comp,2024.2.4,60.15823020831541,2025-02-21 09h57.43.472175 -0500,
18,18,0,critical,hdw,35.0,1.0,lower,133.0,57.0,70.0,70.0,57.0,133.0,3,4.048405647277832,None,,,,,0,0,0,0,0,18,18,108,144.544659614563,,,,,,,,,,,,,,,,,,,,,,,,,,,,,,,,,,,,,,,,,,,,,,,,,,,,,,,,,,,,,,,,,,,,,,,,,,,,,,,,,133.0,57.0,70.0,70.0,57.0,133.0,1.0,1.3,320,-281,480,-261,678,-263,144.5296893119812,144.52972674369812,144.531996011734,144.544659614563,144.6945607662201,144.6945607662201,144.6945607662201,144.6945607662201,144.6945607662201,144.6945607662201,144.6945607662201,148.59580302238464,3,4.048405647277832,None,,,,,,,,,,,,,,,,,,67,3,2025-02-21_09h41.17.138,comp,2024.2.4,60.15823020831541,2025-02-21 09h57.43.472175 -0500,
19,19,0,critical,hwd,20.0,2.1,lower,133.0,57.0,57.0,133.0,78.0,78.0,2,1.2759594917297363,None,,,,,0,0,0,0,0,19,19,18,148.61135363578796,,,,,,,,,,,,,,,,,,,,,,,,,,,,,,,,,,,,,,,,,,,,,,,,,,,,,,,,,,,,,,,,,,,,,,,,,,,,,,,,,133.0,57.0,57.0,133.0,78.0,78.0,2.1,2.12,-191,-281,0,-269,202,268,148.59658575057983,148.59662628173828,148.5986955165863,148.61135363578796,148.7611484527588,148.7611484527588,148.7611484527588,148.7611484527588,148.7611484527588,148.7611484527588,148.7611484527588,149.8955535888672,2,1.2759594917297363,None,,,,,,,,,,,,,,,,,,67,3,2025-02-21_09h41.17.138,comp,2024.2.4,60.15823020831541,2025-02-21 09h57.43.472175 -0500,
20,20,0,filler_random,None,None,None,None,None,None,None,None,None,None,2,1.1191682815551758,None,,,,,0,0,0,0,0,20,20,146,149.91128993034363,,,,,,,,,,,,,,,,,,,,,,,,,,,,,,,,,,,,,,,,,,,,,,,,,,,,,,,,,,,,,,,,,,,,,,,,,,,,,,,,,117.42822640544918,71.51278443913583,184.49813035339758,149.5367465039979,152.75219308679314,129.53542551816952,1.0,1.2,-207,12,0,13,236,-16,149.89650869369507,149.89654779434204,149.8988118171692,149.91128993034363,150.06135845184326,150.06135845184326,150.06135845184326,150.06135845184326,150.06135845184326,150.06135845184326,150.06135845184326,151.0457146167755,2,1.1191682815551758,None,,,,,,,,,,,,,,,,,,67,3,2025-02-21_09h41.17.138,comp,2024.2.4,60.15823020831541,2025-02-21 09h57.43.472175 -0500,
21,21,0,critical,whd,20.0,2.1,lower,57.0,133.0,133.0,57.0,78.0,78.0,2,6.16221284866333,None,,,,,0,0,0,0,0,21,21,14,151.06110501289368,,,,,,,,,,,,,,,,,,,,,,,,,,,,,,,,,,,,,,,,,,,,,,,,,,,,,,,,,,,,,,,,,,,,,,,,,,,,,,,,,57.0,133.0,133.0,57.0,78.0,78.0,2.1,2.11,-191,253,0,290,164,-282,151.0465168952942,151.04655623435974,151.04865050315857,151.06110501289368,151.21137070655823,151.21137070655823,151.21137070655823,151.21137070655823,151.21137070655823,151.21137070655823,151.21137070655823,157.22898054122925,2,6.16221284866333,None,,,,,,,,,,,,,,,,,,67,3,2025-02-21_09h41.17.138,comp,2024.2.4,60.15823020831541,2025-02-21 09h57.43.472175 -0500,
22,22,0,filler_square,None,None,None,None,None,None,None,None,None,None,3,5.258704423904419,None,,,,,0,0,0,0,0,22,22,196,157.2446324825287,,,,,,,,,,,,,,,,,,,,,,,,,,,,,,,,,,,,,,,,,,,,,,,,,,,,,,,,,,,,,,,,,,,,,,,,,,,,,,,,,57.379408138526216,57.41123151242399,57.4562335078915,57.4562335078915,57.27127422459187,57.04965886797976,3.0,3.1,-153,272,0,15,153,-287,157.22988748550415,157.22992706298828,157.23223066329956,157.2446324825287,157.3943486213684,157.3943486213684,157.3943486213684,157.3943486213684,157.3943486213684,157.3943486213684,157.3943486213684,162.5120747089386,3,5.258704423904419,None,,,,,,,,,,,,,,,,,,67,3,2025-02-21_09h41.17.138,comp,2024.2.4,60.15823020831541,2025-02-21 09h57.43.472175 -0500,
23,23,0,filler_square,None,None,None,None,None,None,None,None,None,None,2,0.9028582572937012,None,,,,,0,0,0,0,0,23,23,173,162.52800130844116,,,,,,,,,,,,,,,,,,,,,,,,,,,,,,,,,,,,,,,,,,,,,,,,,,,,,,,,,,,,,,,,,,,,,,,,,,,,,,,,,57.14425188118958,58.852111392914544,59.02999599723416,59.02999599723416,58.61385581459516,57.38758461521194,1.0,1.1,-635,270,-480,285,-326,263,162.5130581855774,162.51309871673584,162.51539826393127,162.52800130844116,162.6777834892273,162.6777834892273,162.6777834892273,162.6777834892273,162.6777834892273,162.6777834892273,162.6777834892273,163.44550347328186,2,0.9028582572937012,None,,,,,,,,,,,,,,,,,,67,3,2025-02-21_09h41.17.138,comp,2024.2.4,60.15823020831541,2025-02-21 09h57.43.472175 -0500,
24,24,0,filler_square,None,None,None,None,None,None,None,None,None,None,2,0.833777666091919,None,,,,,0,0,0,0,0,24,24,198,163.46104788780212,,,,,,,,,,,,,,,,,,,,,,,,,,,,,,,,,,,,,,,,,,,,,,,,,,,,,,,,,,,,,,,,,,,,,,,,,,,,,,,,,69.43241729576727,67.43411124644288,95.42739844496234,95.42739844496234,61.18059202637213,93.80427156140257,1.0,1.2,-177,-6,0,-18,191,18,163.4464557170868,163.4464955329895,163.44903588294983,163.46104788780212,163.6110396385193,163.6110396385193,163.6110396385193,163.6110396385193,163.6110396385193,163.6110396385193,163.6110396385193,164.3121771812439,2,0.833777666091919,None,,,,,,,,,,,,,,,,,,67,3,2025-02-21_09h41.17.138,comp,2024.2.4,60.15823020831541,2025-02-21 09h57.43.472175 -0500,
25,25,0,critical,hdw,20.0,2.1,upper,200.0,125.0,141.0,141.0,125.0,200.0,3,1.8171000480651855,None,,,,,0,0,0,0,0,25,25,23,164.3276882171631,,,,,,,,,,,,,,,,,,,,,,,,,,,,,,,,,,,,,,,,,,,,,,,,,,,,,,,,,,,,,,,,,,,,,,,,,,,,,,,,,200.0,125.0,141.0,141.0,125.0,200.0,2.1,2.11,-229,273,0,252,266,-269,164.31295609474182,164.31299662590027,164.31539797782898,164.3276882171631,164.47803711891174,164.47803711891174,164.47803711891174,164.47803711891174,164.47803711891174,164.47803711891174,164.47803711891174,166.1461205482483,3,1.8171000480651855,None,,,,,,,,,,,,,,,,,,67,3,2025-02-21_09h41.17.138,comp,2024.2.4,60.15823020831541,2025-02-21 09h57.43.472175 -0500,
26,26,0,critical,wdh,20.0,2.1,lower,57.0,133.0,78.0,78.0,133.0,57.0,3,2.133659839630127,None,,,,,0,0,0,0,0,26,26,10,166.16125750541687,,,,,,,,,,,,,,,,,,,,,,,,,,,,,,,,,,,,,,,,,,,,,,,,,,,,,,,,,,,,,,,,,,,,,,,,,,,,,,,,,57.0,133.0,78.0,78.0,133.0,57.0,2.1,2.12,-202,-281,0,-258,164,283,166.14691305160522,166.14695501327515,166.14931106567383,166.16125750541687,166.31110978126526,166.31110978126526,166.31110978126526,166.31110978126526,166.31110978126526,166.31110978126526,166.31110978126526,168.31225776672363,3,2.133659839630127,None,,,,,,,,,,,,,,,,,,67,3,2025-02-21_09h41.17.138,comp,2024.2.4,60.15823020831541,2025-02-21 09h57.43.472175 -0500,
27,27,0,filler_square,None,None,None,None,None,None,None,None,None,None,3,1.1754956245422363,None,,,,,0,0,0,0,0,27,27,197,168.32778525352478,,,,,,,,,,,,,,,,,,,,,,,,,,,,,,,,,,,,,,,,,,,,,,,,,,,,,,,,,,,,,,,,,,,,,,,,,,,,,,,,,160.81087886155112,160.81087886155112,100.02217161541425,93.90485710807093,118.06552576368709,136.48663376820258,3.0,3.1,-223,283,0,10,211,-253,168.3132290840149,168.31326961517334,168.31578302383423,168.32778525352478,168.47788834571838,168.47788834571838,168.47788834571838,168.47788834571838,168.47788834571838,168.47788834571838,168.47788834571838,169.51227450370789,3,1.1754956245422363,None,,,,,,,,,,,,,,,,,,67,3,2025-02-21_09h41.17.138,comp,2024.2.4,60.15823020831541,2025-02-21 09h57.43.472175 -0500,
28,28,0,filler_random,None,None,None,None,None,None,None,None,None,None,2,1.6952686309814453,None,,,,,0,0,0,0,0,28,28,140,169.52815580368042,,,,,,,,,,,,,,,,,,,,,,,,,,,,,,,,,,,,,,,,,,,,,,,,,,,,,,,,,,,,,,,,,,,,,,,,,,,,,,,,,125.26548129038541,82.16697915162015,163.58329760892576,100.79655509142123,79.78183919876486,138.85429557854218,2.1,2.12,-187,-285,0,-278,216,285,169.5131697654724,169.5132119655609,169.51528596878052,169.52815580368042,169.6777708530426,169.6777708530426,169.6777708530426,169.6777708530426,169.6777708530426,169.6777708530426,169.6777708530426,171.22919535636902,2,1.6952686309814453,None,,,,,,,,,,,,,,,,,,67,3,2025-02-21_09h41.17.138,comp,2024.2.4,60.15823020831541,2025-02-21 09h57.43.472175 -0500,
29,29,0,critical,whd,35.0,4.0,upper,125.0,200.0,200.0,125.0,127.0,127.0,2,1.0017657279968262,None,,,,,0,0,0,0,0,29,29,89,171.2446105480194,,,,,,,,,,,,,,,,,,,,,,,,,,,,,,,,,,,,,,,,,,,,,,,,,,,,,,,,,,,,,,,,,,,,,,,,,,,,,,,,,125.0,200.0,200.0,125.0,127.0,127.0,4.0,4.1,-258,-278,0,14,222,-274,171.2299928665161,171.23003339767456,171.2321195602417,171.2446105480194,171.39498353004456,171.39498353004456,171.39498353004456,171.39498353004456,171.39498353004456,171.39498353004456,171.39498353004456,172.26253080368042,2,1.0017657279968262,None,,,,,,,,,,,,,,,,,,67,3,2025-02-21_09h41.17.138,comp,2024.2.4,60.15823020831541,2025-02-21 09h57.43.472175 -0500,
30,30,0,filler_random,None,None,None,None,None,None,None,None,None,None,1,2.409515380859375,None,,,,,0,0,0,0,0,30,30,138,172.27764439582825,,,,,,,,,,,,,,,,,,,,,,,,,,,,,,,,,,,,,,,,,,,,,,,,,,,,,,,,,,,,,,,,,,,,,,,,,,,,,,,,,170.32109000786093,161.16197661494394,134.5980869932216,130.99416410209665,149.87928642132846,157.384630508464,1.0,1.3,238,-261,480,-264,720,-280,172.26349067687988,172.263530254364,172.26596999168396,172.27764439582825,172.4280562400818,172.4280562400818,172.4280562400818,172.4280562400818,172.4280562400818,172.4280562400818,172.4280562400818,174.69570064544678,1,2.409515380859375,None,,,,,,,,,,,,,,,,,,67,3,2025-02-21_09h41.17.138,comp,2024.2.4,60.15823020831541,2025-02-21 09h57.43.472175 -0500,
31,31,0,critical,hwd,35.0,2.1,upper,200.0,125.0,125.0,200.0,127.0,127.0,2,0.9352951049804688,None,,,,,0,0,0,0,0,31,31,41,174.71124362945557,,,,,,,,,,,,,,,,,,,,,,,,,,,,,,,,,,,,,,,,,,,,,,,,,,,,,,,,,,,,,,,,,,,,,,,,,,,,,,,,,200.0,125.0,125.0,200.0,127.0,127.0,2.1,2.11,-258,253,0,278,260,-273,174.69649600982666,174.69653606414795,174.69865345954895,174.71124362945557,174.8612551689148,174.8612551689148,174.8612551689148,174.8612551689148,174.8612551689148,174.8612551689148,174.8612551689148,175.66246438026428,2,0.9352951049804688,None,,,,,,,,,,,,,,,,,,67,3,2025-02-21_09h41.17.138,comp,2024.2.4,60.15823020831541,2025-02-21 09h57.43.472175 -0500,
32,32,0,critical,hdw,35.0,4.0,upper,200.0,125.0,127.0,127.0,125.0,200.0,3,1.361543893814087,None,,,,,0,0,0,0,0,32,32,113,175.67760801315308,,,,,,,,,,,,,,,,,,,,,,,,,,,,,,,,,,,,,,,,,,,,,,,,,,,,,,,,,,,,,,,,,,,,,,,,,,,,,,,,,200.0,125.0,127.0,127.0,125.0,200.0,4.0,4.1,-222,-282,0,15,260,-250,175.6633656024933,175.6634063720703,175.66592383384705,175.67760801315308,175.82791328430176,175.82791328430176,175.82791328430176,175.82791328430176,175.82791328430176,175.82791328430176,175.82791328430176,177.0456404685974,3,1.361543893814087,None,,,,,,,,,,,,,,,,,,67,3,2025-02-21_09h41.17.138,comp,2024.2.4,60.15823020831541,2025-02-21 09h57.43.472175 -0500,
33,33,0,critical,wdh,35.0,1.0,lower,57.0,133.0,70.0,70.0,133.0,57.0,2,2.2994978427886963,None,,,,,0,0,0,0,0,33,33,72,177.06112027168274,,,,,,,,,,,,,,,,,,,,,,,,,,,,,,,,,,,,,,,,,,,,,,,,,,,,,,,,,,,,,,,,,,,,,,,,,,,,,,,,,57.0,133.0,70.0,70.0,133.0,57.0,1.0,1.1,-678,283,-480,267,-320,283,177.0464415550232,177.04648280143738,177.0489957332611,177.06112027168274,177.2113857269287,177.2113857269287,177.2113857269287,177.2113857269287,177.2113857269287,177.2113857269287,177.2113857269287,179.36222958564758,2,2.2994978427886963,None,,,,,,,,,,,,,,,,,,67,3,2025-02-21_09h41.17.138,comp,2024.2.4,60.15823020831541,2025-02-21 09h57.43.472175 -0500,
34,34,0,critical,hdw,20.0,2.1,lower,133.0,57.0,78.0,78.0,57.0,133.0,3,2.166654586791992,None,,,,,0,0,0,0,0,34,34,46,179.3777928352356,,,,,,,,,,,,,,,,,,,,,,,,,,,,,,,,,,,,,,,,,,,,,,,,,,,,,,,,,,,,,,,,,,,,,,,,,,,,,,,,,133.0,57.0,78.0,78.0,57.0,133.0,2.1,2.12,-164,-289,0,-280,202,287,179.363018989563,179.3630588054657,179.36508083343506,179.3777928352356,179.52774143218994,179.52774143218994,179.52774143218994,179.52774143218994,179.52774143218994,179.52774143218994,179.52774143218994,181.545725107193,3,2.166654586791992,None,,,,,,,,,,,,,,,,,,67,3,2025-02-21_09h41.17.138,comp,2024.2.4,60.15823020831541,2025-02-21 09h57.43.472175 -0500,
35,35,0,critical,whd,35.0,2.1,upper,125.0,200.0,200.0,125.0,127.0,127.0,2,1.9100379943847656,None,,,,,0,0,0,0,0,35,35,13,181.5610957145691,,,,,,,,,,,,,,,,,,,,,,,,,,,,,,,,,,,,,,,,,,,,,,,,,,,,,,,,,,,,,,,,,,,,,,,,,,,,,,,,,125.0,200.0,200.0,125.0,127.0,127.0,2.1,2.12,-258,-279,0,-272,222,262,181.54655027389526,181.54659056663513,181.54915833473206,181.5610957145691,181.71111917495728,181.71111917495728,181.71111917495728,181.71111917495728,181.71111917495728,181.71111917495728,181.71111917495728,183.4788715839386,2,1.9100379943847656,None,,,,,,,,,,,,,,,,,,67,3,2025-02-21_09h41.17.138,comp,2024.2.4,60.15823020831541,2025-02-21 09h57.43.472175 -0500,
36,36,0,filler_square,None,None,None,None,None,None,None,None,None,None,3,3.8409206867218018,None,,,,,0,0,0,0,0,36,36,172,183.4944727420807,,,,,,,,,,,,,,,,,,,,,,,,,,,,,,,,,,,,,,,,,,,,,,,,,,,,,,,,,,,,,,,,,,,,,,,,,,,,,,,,,123.14551802631792,58.1970374319587,133.59862894961515,66.20491727790139,146.689514721391,146.689514721391,4.0,4.2,-158,2,0,-255,202,15,183.47981071472168,183.4798514842987,183.48212671279907,183.4944727420807,183.64434599876404,183.64434599876404,183.64434599876404,183.64434599876404,183.64434599876404,183.64434599876404,183.64434599876404,187.34543371200562,3,3.8409206867218018,None,,,,,,,,,,,,,,,,,,67,3,2025-02-21_09h41.17.138,comp,2024.2.4,60.15823020831541,2025-02-21 09h57.43.472175 -0500,
37,37,0,critical,wdh,20.0,1.0,upper,125.0,200.0,141.0,141.0,200.0,125.0,1,2.509958028793335,None,,,,,0,0,0,0,0,37,37,79,187.3611340522766,,,,,,,,,,,,,,,,,,,,,,,,,,,,,,,,,,,,,,,,,,,,,,,,,,,,,,,,,,,,,,,,,,,,,,,,,,,,,,,,,125.0,200.0,141.0,141.0,200.0,125.0,1.0,1.1,-746,273,-480,260,-251,263,187.34622359275818,187.3462643623352,187.348619222641,187.3611340522766,187.51117944717407,187.51117944717407,187.51117944717407,187.51117944717407,187.51117944717407,187.51117944717407,187.51117944717407,189.87886428833008,1,2.509958028793335,None,,,,,,,,,,,,,,,,,,67,3,2025-02-21_09h41.17.138,comp,2024.2.4,60.15823020831541,2025-02-21 09h57.43.472175 -0500,
38,38,0,filler_square,None,None,None,None,None,None,None,None,None,None,2,0.9285192489624023,None,,,,,0,0,0,0,0,38,38,176,189.89458966255188,,,,,,,,,,,,,,,,,,,,,,,,,,,,,,,,,,,,,,,,,,,,,,,,,,,,,,,,,,,,,,,,,,,,,,,,,,,,,,,,,103.25213651624875,108.68735021870937,155.82210570306466,155.82210570306466,128.88526324339543,104.41594444009068,2.1,2.12,-228,-251,0,-289,226,268,189.87983393669128,189.8798758983612,189.88194155693054,189.89458966255188,190.0443024635315,190.0443024635315,190.0443024635315,190.0443024635315,190.0443024635315,190.0443024635315,190.0443024635315,190.82886576652527,2,0.9285192489624023,None,,,,,,,,,,,,,,,,,,67,3,2025-02-21_09h41.17.138,comp,2024.2.4,60.15823020831541,2025-02-21 09h57.43.472175 -0500,
39,39,0,catch,None,None,None,None,None,None,None,None,None,None,3,0.8427143096923828,None,,,,,0,0,0,0,0,39,39,121,190.84436416625977,,,,,,,,,,,,,,,,,,,,,,,,,,,,,,,,,,,,,,,,,,,,,,,,,,,,,,,,,,,,,,,,,,,,,,,,,,,,,,,,,102,88,89,101,166,159,3.0,3.2,-190,-285,0,-14,226,265,190.829895734787,190.8299355506897,190.832017660141,190.84436416625977,190.99443340301514,190.99443340301514,190.99443340301514,190.99443340301514,190.99443340301514,190.99443340301514,190.99443340301514,191.6953547000885,3,0.8427143096923828,None,,,,,,,,,,,,,,,,,,67,3,2025-02-21_09h41.17.138,comp,2024.2.4,60.15823020831541,2025-02-21 09h57.43.472175 -0500,
40,40,0,critical,dwh,35.0,4.0,lower,70.0,70.0,57.0,133.0,133.0,57.0,3,2.1032793521881104,None,,,,,0,0,0,0,0,40,40,64,191.71104264259338,,,,,,,,,,,,,,,,,,,,,,,,,,,,,,,,,,,,,,,,,,,,,,,,,,,,,,,,,,,,,,,,,,,,,,,,,,,,,,,,,70.0,70.0,57.0,133.0,133.0,57.0,4.0,4.2,-198,-19,0,-269,191,-13,191.6961476802826,191.6961886882782,191.69866132736206,191.71104264259338,191.86082649230957,191.86082649230957,191.86082649230957,191.86082649230957,191.86082649230957,191.86082649230957,191.86082649230957,193.828675031662,3,2.1032793521881104,None,,,,,,,,,,,,,,,,,,67,3,2025-02-21_09h41.17.138,comp,2024.2.4,60.15823020831541,2025-02-21 09h57.43.472175 -0500,
41,41,0,filler_random,None,None,None,None,None,None,None,None,None,None,2,0.7169265747070312,None,,,,,0,0,0,0,0,41,41,153,193.84407424926758,,,,,,,,,,,,,,,,,,,,,,,,,,,,,,,,,,,,,,,,,,,,,,,,,,,,,,,,,,,,,,,,,,,,,,,,,,,,,,,,,79.51003451799156,77.08249558524255,157.69797118697798,81.22860120451831,157.550230904564,65.84577042222872,4.0,4.2,-175,4,0,-269,170,0,193.82957410812378,193.82961440086365,193.83164429664612,193.84407424926758,193.99418830871582,193.99418830871582,193.99418830871582,193.99418830871582,193.99418830871582,193.99418830871582,193.99418830871582,194.56221199035645,2,0.7169265747070312,None,,,,,,,,,,,,,,,,,,67,3,2025-02-21_09h41.17.138,comp,2024.2.4,60.15823020831541,2025-02-21 09h57.43.472175 -0500,
42,42,0,critical,hwd,20.0,2.1,upper,200.0,125.0,125.0,200.0,141.0,141.0,1,1.1502604484558105,None,,,,,0,0,0,0,0,42,42,19,194.57768440246582,,,,,,,,,,,,,,,,,,,,,,,,,,,,,,,,,,,,,,,,,,,,,,,,,,,,,,,,,,,,,,,,,,,,,,,,,,,,,,,,,200.0,125.0,125.0,200.0,141.0,141.0,2.1,2.12,-258,-268,0,-275,266,259,194.562992811203,194.5630328655243,194.56549835205078,194.57768440246582,194.7277808189392,194.7277808189392,194.7277808189392,194.7277808189392,194.7277808189392,194.7277808189392,194.7277808189392,195.74558305740356,1,1.1502604484558105,None,,,,,,,,,,,,,,,,,,67,3,2025-02-21_09h41.17.138,comp,2024.2.4,60.15823020831541,2025-02-21 09h57.43.472175 -0500,
43,43,0,filler_square,None,None,None,None,None,None,None,None,None,None,3,1.0001072883605957,None,,,,,0,0,0,0,0,43,43,188,195.76087713241577,,,,,,,,,,,,,,,,,,,,,,,,,,,,,,,,,,,,,,,,,,,,,,,,,,,,,,,,,,,,,,,,,,,,,,,,,,,,,,,,,73.68421047698679,69.02099583645656,79.28340407077016,75.5399190983817,87.26970980348912,87.26970980348912,2.2,2.21,-168,-263,0,264,177,268,195.7466106414795,195.746652841568,195.74888038635254,195.76087713241577,195.91098427772522,195.91098427772522,195.91098427772522,195.91098427772522,195.91098427772522,195.91098427772522,195.91098427772522,196.7785930633545,3,1.0001072883605957,None,,,,,,,,,,,,,,,,,,67,3,2025-02-21_09h41.17.138,comp,2024.2.4,60.15823020831541,2025-02-21 09h57.43.472175 -0500,
44,44,0,filler_square,None,None,None,None,None,None,None,None,None,None,1,0.8048141002655029,None,,,,,0,0,0,0,0,44,44,190,196.79408764839172,,,,,,,,,,,,,,,,,,,,,,,,,,,,,,,,,,,,,,,,,,,,,,,,,,,,,,,,,,,,,,,,,,,,,,,,,,,,,,,,,141.87233721556316,141.87233721556316,89.28119600272478,114.58171315016972,72.61602885540667,118.22757254341265,4.0,4.2,-224,8,0,-252,212,11,196.77954006195068,196.77958035469055,196.78214621543884,196.79408764839172,196.9443621635437,196.9443621635437,196.9443621635437,196.9443621635437,196.9443621635437,196.9443621635437,196.9443621635437,197.61204624176025,1,0.8048141002655029,None,,,,,,,,,,,,,,,,,,67,3,2025-02-21_09h41.17.138,comp,2024.2.4,60.15823020831541,2025-02-21 09h57.43.472175 -0500,
45,45,0,critical,dhw,20.0,2.1,lower,78.0,78.0,133.0,57.0,57.0,133.0,3,1.8277788162231445,None,,,,,0,0,0,0,0,45,45,2,197.62732982635498,,,,,,,,,,,,,,,,,,,,,,,,,,,,,,,,,,,,,,,,,,,,,,,,,,,,,,,,,,,,,,,,,,,,,,,,,,,,,,,,,78.0,78.0,133.0,57.0,57.0,133.0,2.1,2.11,-164,262,0,272,191,-251,197.6128373146057,197.61287665367126,197.61528205871582,197.62732982635498,197.77744269371033,197.77744269371033,197.77744269371033,197.77744269371033,197.77744269371033,197.77744269371033,197.77744269371033,199.46207976341248,3,1.8277788162231445,None,,,,,,,,,,,,,,,,,,67,3,2025-02-21_09h41.17.138,comp,2024.2.4,60.15823020831541,2025-02-21 09h57.43.472175 -0500,
46,46,0,critical,dhw,35.0,4.0,upper,127.0,127.0,200.0,125.0,125.0,200.0,2,1.368661880493164,None,,,,,0,0,0,0,0,46,46,53,199.47770237922668,,,,,,,,,,,,,,,,,,,,,,,,,,,,,,,,,,,,,,,,,,,,,,,,,,,,,,,,,,,,,,,,,,,,,,,,,,,,,,,,,127.0,127.0,200.0,125.0,125.0,200.0,4.0,4.2,-222,9,0,-261,258,18,199.46285843849182,199.46289730072021,199.46496987342834,199.47770237922668,199.62771487236023,199.62771487236023,199.62771487236023,199.62771487236023,199.62771487236023,199.62771487236023,199.62771487236023,200.86231446266174,2,1.368661880493164,None,,,,,,,,,,,,,,,,,,67,3,2025-02-21_09h41.17.138,comp,2024.2.4,60.15823020831541,2025-02-21 09h57.43.472175 -0500,
47,47,0,filler_random,None,None,None,None,None,None,None,None,None,None,1,5.384738445281982,None,,,,,0,0,0,0,0,47,47,158,200.87741827964783,,,,,,,,,,,,,,,,,,,,,,,,,,,,,,,,,,,,,,,,,,,,,,,,,,,,,,,,,,,,,,,,,,,,,,,,,,,,,,,,,117.67800509210684,136.88440377141933,192.03307044002477,68.6612975760402,178.29418644646265,104.41762906160976,2.1,2.12,-199,-264,0,-250,183,254,200.86322474479675,200.863263130188,200.86560368537903,200.87741827964783,201.02754616737366,201.02754616737366,201.02754616737366,201.02754616737366,201.02754616737366,201.02754616737366,201.02754616737366,206.27870869636536,1,5.384738445281982,None,,,,,,,,,,,,,,,,,,67,3,2025-02-21_09h41.17.138,comp,2024.2.4,60.15823020831541,2025-02-21 09h57.43.472175 -0500,
48,48,0,filler_random,None,None,None,None,None,None,None,None,None,None,1,1.3047761917114258,None,,,,,0,0,0,0,0,48,48,156,206.29403066635132,,,,,,,,,,,,,,,,,,,,,,,,,,,,,,,,,,,,,,,,,,,,,,,,,,,,,,,,,,,,,,,,,,,,,,,,,,,,,,,,,196.4439836917747,167.5593334072828,106.67213220169924,184.25075230597164,103.39822343308444,189.08958466932097,2.2,2.21,-272,-252,0,271,283,256,206.27960753440857,206.27964687347412,206.28252482414246,206.29403066635132,206.4444317817688,206.4444317817688,206.4444317817688,206.4444317817688,206.4444317817688,206.4444317817688,206.4444317817688,207.61209654808044,1,1.3047761917114258,None,,,,,,,,,,,,,,,,,,67,3,2025-02-21_09h41.17.138,comp,2024.2.4,60.15823020831541,2025-02-21 09h57.43.472175 -0500,
49,49,0,filler_random,None,None,None,None,None,None,None,None,None,None,2,0.8757240772247314,None,,,,,0,0,0,0,0,49,49,131,207.62738752365112,,,,,,,,,,,,,,,,,,,,,,,,,,,,,,,,,,,,,,,,,,,,,,,,,,,,,,,,,,,,,,,,,,,,,,,,,,,,,,,,,111.20234765238348,58.882874570645015,135.65398251948938,98.62558825178027,105.48362204971899,122.38823969863596,1.0,1.1,-655,289,-480,270,-273,279,207.6130130290985,207.6130530834198,207.61540961265564,207.62738752365112,207.7774143218994,207.7774143218994,207.7774143218994,207.7774143218994,207.7774143218994,207.7774143218994,207.7774143218994,208.5119457244873,2,0.8757240772247314,None,,,,,,,,,,,,,,,,,,67,3,2025-02-21_09h41.17.138,comp,2024.2.4,60.15823020831541,2025-02-21 09h57.43.472175 -0500,
50,50,0,critical,dwh,20.0,1.0,lower,78.0,78.0,57.0,133.0,133.0,57.0,2,1.727221965789795,None,,,,,0,0,0,0,0,50,50,66,208.52774214744568,,,,,,,,,,,,,,,,,,,,,,,,,,,,,,,,,,,,,,,,,,,,,,,,,,,,,,,,,,,,,,,,,,,,,,,,,,,,,,,,,78.0,78.0,57.0,133.0,133.0,57.0,1.0,1.1,-682,289,-480,260,-289,282,208.51271605491638,208.5127682685852,208.5148434638977,208.52774214744568,208.6778221130371,208.6778221130371,208.6778221130371,208.6778221130371,208.6778221130371,208.6778221130371,208.6778221130371,210.2619104385376,2,1.727221965789795,None,,,,,,,,,,,,,,,,,,67,3,2025-02-21_09h41.17.138,comp,2024.2.4,60.15823020831541,2025-02-21 09h57.43.472175 -0500,
51,51,0,filler_square,None,None,None,None,None,None,None,None,None,None,3,1.161130428314209,None,,,,,0,0,0,0,0,51,51,171,210.277827501297,,,,,,,,,,,,,,,,,,,,,,,,,,,,,,,,,,,,,,,,,,,,,,,,,,,,,,,,,,,,,,,,,,,,,,,,,,,,,,,,,71.44011808363014,72.79508720615763,64.41530984403909,68.4421888732715,80.34433568693429,80.34433568693429,2.1,2.11,-167,281,0,273,170,-261,210.26286458969116,210.26290464401245,210.26496934890747,210.277827501297,210.4275758266449,210.4275758266449,210.4275758266449,210.4275758266449,210.4275758266449,210.4275758266449,210.4275758266449,211.44507336616516,3,1.161130428314209,None,,,,,,,,,,,,,,,,,,67,3,2025-02-21_09h41.17.138,comp,2024.2.4,60.15823020831541,2025-02-21 09h57.43.472175 -0500,
52,52,0,filler_square,None,None,None,None,None,None,None,None,None,None,2,0.8668289184570312,None,,,,,0,0,0,0,0,52,52,194,211.46082663536072,,,,,,,,,,,,,,,,,,,,,,,,,,,,,,,,,,,,,,,,,,,,,,,,,,,,,,,,,,,,,,,,,,,,,,,,,,,,,,,,,87.95180429199345,91.47834664602415,95.17067600050092,95.17067600050092,58.72020926130462,74.28765813239875,2.2,2.22,-189,267,0,-268,181,-258,211.44601464271545,211.446053981781,211.4484567642212,211.46082663536072,211.61070942878723,211.61070942878723,211.61070942878723,211.61070942878723,211.61070942878723,211.61070942878723,211.61070942878723,212.34529638290405,2,0.8668289184570312,None,,,,,,,,,,,,,,,,,,67,3,2025-02-21_09h41.17.138,comp,2024.2.4,60.15823020831541,2025-02-21 09h57.43.472175 -0500,
53,53,0,critical,dwh,35.0,2.1,lower,70.0,70.0,57.0,133.0,133.0,57.0,2,3.3998196125030518,None,,,,,0,0,0,0,0,53,53,28,212.36071157455444,,,,,,,,,,,,,,,,,,,,,,,,,,,,,,,,,,,,,,,,,,,,,,,,,,,,,,,,,,,,,,,,,,,,,,,,,,,,,,,,,70.0,70.0,57.0,133.0,133.0,57.0,2.1,2.12,-198,-283,0,-274,191,254,212.34613299369812,212.34617352485657,212.348571062088,212.36071157455444,212.51080751419067,212.51080751419067,212.51080751419067,212.51080751419067,212.51080751419067,212.51080751419067,212.51080751419067,215.76213002204895,2,3.3998196125030518,None,,,,,,,,,,,,,,,,,,67,3,2025-02-21_09h41.17.138,comp,2024.2.4,60.15823020831541,2025-02-21 09h57.43.472175 -0500,
54,54,0,critical,hwd,35.0,1.0,lower,133.0,57.0,57.0,133.0,70.0,70.0,2,3.918276071548462,None,,,,,0,0,0,0,0,54,54,96,215.77749681472778,,,,,,,,,,,,,,,,,,,,,,,,,,,,,,,,,,,,,,,,,,,,,,,,,,,,,,,,,,,,,,,,,,,,,,,,,,,,,,,,,133.0,57.0,57.0,133.0,70.0,70.0,1.0,1.2,-191,-15,0,-9,198,4,215.76286339759827,215.76290249824524,215.76519012451172,215.77749681472778,215.92735958099365,215.92735958099365,215.92735958099365,215.92735958099365,215.92735958099365,215.92735958099365,215.92735958099365,219.71187329292297,2,3.918276071548462,None,,,,,,,,,,,,,,,,,,67,3,2025-02-21_09h41.17.138,comp,2024.2.4,60.15823020831541,2025-02-21 09h57.43.472175 -0500,
55,55,0,critical,dwh,20.0,1.0,upper,141.0,141.0,125.0,200.0,200.0,125.0,2,1.1919336318969727,None,,,,,0,0,0,0,0,55,55,67,219.7272527217865,,,,,,,,,,,,,,,,,,,,,,,,,,,,,,,,,,,,,,,,,,,,,,,,,,,,,,,,,,,,,,,,,,,,,,,,,,,,,,,,,141.0,141.0,125.0,200.0,200.0,125.0,1.0,1.2,-266,9,0,-3,258,8,219.71264386177063,219.71268391609192,219.71501755714417,219.7272527217865,219.8776514530182,219.8776514530182,219.8776514530182,219.8776514530182,219.8776514530182,219.8776514530182,219.8776514530182,220.92880392074585,2,1.1919336318969727,None,,,,,,,,,,,,,,,,,,67,3,2025-02-21_09h41.17.138,comp,2024.2.4,60.15823020831541,2025-02-21 09h57.43.472175 -0500,
56,56,0,critical,hwd,20.0,3.0,lower,133.0,57.0,57.0,133.0,78.0,78.0,2,0.805840015411377,None,,,,,0,0,0,0,0,56,56,104,220.944153547287,,,,,,,,,,,,,,,,,,,,,,,,,,,,,,,,,,,,,,,,,,,,,,,,,,,,,,,,,,,,,,,,,,,,,,,,,,,,,,,,,133.0,57.0,57.0,133.0,78.0,78.0,3.0,3.2,-191,-257,0,18,202,272,220.92956376075745,220.92960262298584,220.93184995651245,220.944153547287,221.09441328048706,221.09441328048706,221.09441328048706,221.09441328048706,221.09441328048706,221.09441328048706,221.09441328048706,221.76215076446533,2,0.805840015411377,None,,,,,,,,,,,,,,,,,,67,3,2025-02-21_09h41.17.138,comp,2024.2.4,60.15823020831541,2025-02-21 09h57.43.472175 -0500,
57,57,0,critical,dhw,35.0,2.1,upper,127.0,127.0,200.0,125.0,125.0,200.0,3,0.8935787677764893,None,,,,,0,0,0,0,0,57,57,1,221.77733731269836,,,,,,,,,,,,,,,,,,,,,,,,,,,,,,,,,,,,,,,,,,,,,,,,,,,,,,,,,,,,,,,,,,,,,,,,,,,,,,,,,127.0,127.0,200.0,125.0,125.0,200.0,2.1,2.11,-222,282,0,263,258,-259,221.76293563842773,221.7629749774933,221.76538920402527,221.77733731269836,221.92757987976074,221.92757987976074,221.92757987976074,221.92757987976074,221.92757987976074,221.92757987976074,221.92757987976074,222.67866611480713,3,0.8935787677764893,None,,,,,,,,,,,,,,,,,,67,3,2025-02-21_09h41.17.138,comp,2024.2.4,60.15823020831541,2025-02-21 09h57.43.472175 -0500,
58,58,0,critical,hwd,35.0,1.0,upper,200.0,125.0,125.0,200.0,127.0,127.0,2,0.9286708831787109,None,,,,,0,0,0,0,0,58,58,97,222.694194316864,,,,,,,,,,,,,,,,,,,,,,,,,,,,,,,,,,,,,,,,,,,,,,,,,,,,,,,,,,,,,,,,,,,,,,,,,,,,,,,,,200.0,125.0,125.0,200.0,127.0,127.0,1.0,1.3,222,-256,480,-275,740,-280,222.67946004867554,222.67949962615967,222.68195509910583,222.694194316864,222.8442177772522,222.8442177772522,222.8442177772522,222.8442177772522,222.8442177772522,222.8442177772522,222.8442177772522,223.628839969635,2,0.9286708831787109,None,,,,,,,,,,,,,,,,,,67,3,2025-02-21_09h41.17.138,comp,2024.2.4,60.15823020831541,2025-02-21 09h57.43.472175 -0500,
59,59,0,filler_square,None,None,None,None,None,None,None,None,None,None,2,0.9545526504516602,None,,,,,0,0,0,0,0,59,59,207,223.64417815208435,,,,,,,,,,,,,,,,,,,,,,,,,,,,,,,,,,,,,,,,,,,,,,,,,,,,,,,,,,,,,,,,,,,,,,,,,,,,,,,,,94.92044942441089,103.20032567436331,105.30582361605195,105.30582361605195,60.00000842839861,61.45809611112625,1.0,1.2,-200,3,0,-4,179,-19,223.62972831726074,223.6297824382782,223.63190627098083,223.64417815208435,223.7940595149994,223.7940595149994,223.7940595149994,223.7940595149994,223.7940595149994,223.7940595149994,223.7940595149994,224.61175298690796,2,0.9545526504516602,None,,,,,,,,,,,,,,,,,,67,3,2025-02-21_09h41.17.138,comp,2024.2.4,60.15823020831541,2025-02-21 09h57.43.472175 -0500,
60,60,0,filler_random,None,None,None,None,None,None,None,None,None,None,1,1.1337082386016846,None,,,,,0,0,0,0,0,60,60,164,224.62719464302063,,,,,,,,,,,,,,,,,,,,,,,,,,,,,,,,,,,,,,,,,,,,,,,,,,,,,,,,,,,,,,,,,,,,,,,,,,,,,,,,,117.88359209945335,167.3249527943591,91.70912323239187,147.36401001402737,96.78826434654482,112.32853692664483,4.0,4.1,-253,-250,0,12,226,-252,224.61264991760254,224.61268854141235,224.61493349075317,224.62719464302063,224.77780652046204,224.77780652046204,224.77780652046204,224.77780652046204,224.77780652046204,224.77780652046204,224.77780652046204,225.7621648311615,1,1.1337082386016846,None,,,,,,,,,,,,,,,,,,67,3,2025-02-21_09h41.17.138,comp,2024.2.4,60.15823020831541,2025-02-21 09h57.43.472175 -0500,
61,61,0,catch,None,None,None,None,None,None,None,None,None,None,1,1.4211959838867188,None,,,,,0,0,0,0,0,61,61,128,225.77747797966003,,,,,,,,,,,,,,,,,,,,,,,,,,,,,,,,,,,,,,,,,,,,,,,,,,,,,,,,,,,,,,,,,,,,,,,,,,,,,,,,,171,154,98,92,87,103,2.1,2.11,-219,271,0,257,194,-265,225.76330852508545,225.76335096359253,225.7655439376831,225.77747797966003,225.9276351928711,225.9276351928711,225.9276351928711,225.9276351928711,225.9276351928711,225.9276351928711,225.9276351928711,227.2118706703186,1,1.4211959838867188,None,,,,,,,,,,,,,,,,,,67,3,2025-02-21_09h41.17.138,comp,2024.2.4,60.15823020831541,2025-02-21 09h57.43.472175 -0500,
62,62,0,critical,wdh,35.0,2.1,upper,125.0,200.0,127.0,127.0,200.0,125.0,1,1.7548167705535889,None,,,,,0,0,0,0,0,62,62,9,227.22717714309692,,,,,,,,,,,,,,,,,,,,,,,,,,,,,,,,,,,,,,,,,,,,,,,,,,,,,,,,,,,,,,,,,,,,,,,,,,,,,,,,,125.0,200.0,127.0,127.0,200.0,125.0,2.1,2.11,-260,282,0,288,222,-254,227.21265983581543,227.21269869804382,227.21502709388733,227.22717714309692,227.37750267982483,227.37750267982483,227.37750267982483,227.37750267982483,227.37750267982483,227.37750267982483,227.37750267982483,228.99532103538513,1,1.7548167705535889,None,,,,,,,,,,,,,,,,,,67,3,2025-02-21_09h41.17.138,comp,2024.2.4,60.15823020831541,2025-02-21 09h57.43.472175 -0500,
63,63,0,critical,dwh,35.0,1.0,lower,70.0,70.0,57.0,133.0,133.0,57.0,2,0.8195488452911377,None,,,,,0,0,0,0,0,63,63,60,229.0105369091034,,,,,,,,,,,,,,,,,,,,,,,,,,,,,,,,,,,,,,,,,,,,,,,,,,,,,,,,,,,,,,,,,,,,,,,,,,,,,,,,,70.0,70.0,57.0,133.0,133.0,57.0,1.0,1.2,-198,-19,0,-18,191,3,228.99610233306885,228.99614071846008,228.9985580444336,229.0105369091034,229.16055512428284,229.16055512428284,229.16055512428284,229.16055512428284,229.16055512428284,229.16055512428284,229.16055512428284,229.84500074386597,2,0.8195488452911377,None,,,,,,,,,,,,,,,,,,67,3,2025-02-21_09h41.17.138,comp,2024.2.4,60.15823020831541,2025-02-21 09h57.43.472175 -0500,
64,64,0,filler_random,None,None,None,None,None,None,None,None,None,None,3,0.8102610111236572,None,,,,,0,0,0,0,0,64,64,154,229.86056280136108,,,,,,,,,,,,,,,,,,,,,,,,,,,,,,,,,,,,,,,,,,,,,,,,,,,,,,,,,,,,,,,,,,,,,,,,,,,,,,,,,143.70401974141768,67.30724559559424,187.2792013576613,69.4157397476271,186.71682107376813,168.30560158987703,4.0,4.2,-164,-4,0,-283,215,4,229.84589457511902,229.8459346294403,229.84830737113953,229.86056280136108,230.0108425617218,230.0108425617218,230.0108425617218,230.0108425617218,230.0108425617218,230.0108425617218,230.0108425617218,230.67860436439514,3,0.8102610111236572,None,,,,,,,,,,,,,,,,,,67,3,2025-02-21_09h41.17.138,comp,2024.2.4,60.15823020831541,2025-02-21 09h57.43.472175 -0500,
65,65,0,critical,hwd,20.0,2.1,upper,200.0,125.0,125.0,200.0,141.0,141.0,2,0.7130115032196045,None,,,,,0,0,0,0,0,65,65,43,230.69422101974487,,,,,,,,,,,,,,,,,,,,,,,,,,,,,,,,,,,,,,,,,,,,,,,,,,,,,,,,,,,,,,,,,,,,,,,,,,,,,,,,,200.0,125.0,125.0,200.0,141.0,141.0,2.1,2.11,-258,281,0,265,266,-289,230.67939448356628,230.67943453788757,230.68191361427307,230.69422101974487,230.84446597099304,230.84446597099304,230.84446597099304,230.84446597099304,230.84446597099304,230.84446597099304,230.84446597099304,231.41207480430603,2,0.7130115032196045,None,,,,,,,,,,,,,,,,,,67,3,2025-02-21_09h41.17.138,comp,2024.2.4,60.15823020831541,2025-02-21 09h57.43.472175 -0500,
66,66,0,catch,None,None,None,None,None,None,None,None,None,None,3,0.7953355312347412,None,,,,,0,0,0,0,0,66,66,124,231.4274561405182,,,,,,,,,,,,,,,,,,,,,,,,,,,,,,,,,,,,,,,,,,,,,,,,,,,,,,,,,,,,,,,,,,,,,,,,,,,,,,,,,93,97,101,89,153,172,4.0,4.1,-189,-269,0,13,226,-263,231.4131054878235,231.41314506530762,231.41521739959717,231.4274561405182,231.57753896713257,231.57753896713257,231.57753896713257,231.57753896713257,231.57753896713257,231.57753896713257,231.57753896713257,232.22859072685242,3,0.7953355312347412,None,,,,,,,,,,,,,,,,,,67,3,2025-02-21_09h41.17.138,comp,2024.2.4,60.15823020831541,2025-02-21 09h57.43.472175 -0500,
67,67,0,filler_square,None,None,None,None,None,None,None,None,None,None,2,0.7379035949707031,None,,,,,0,0,0,0,0,67,67,179,232.24410462379456,,,,,,,,,,,,,,,,,,,,,,,,,,,,,,,,,,,,,,,,,,,,,,,,,,,,,,,,,,,,,,,,,,,,,,,,,,,,,,,,,110.74109174533915,123.2963532555225,148.74265666780147,148.74265666780147,62.78258683038692,102.41956359070582,1.0,1.3,248,-278,480,-275,702,-258,232.22950100898743,232.22953939437866,232.2320008277893,232.24410462379456,232.3939929008484,232.3939929008484,232.3939929008484,232.3939929008484,232.3939929008484,232.3939929008484,232.3939929008484,232.99535846710205,2,0.7379035949707031,None,,,,,,,,,,,,,,,,,,67,3,2025-02-21_09h41.17.138,comp,2024.2.4,60.15823020831541,2025-02-21 09h57.43.472175 -0500,
68,68,0,filler_random,None,None,None,None,None,None,None,None,None,None,3,1.188044548034668,None,,,,,0,0,0,0,0,68,68,149,233.01065397262573,,,,,,,,,,,,,,,,,,,,,,,,,,,,,,,,,,,,,,,,,,,,,,,,,,,,,,,,,,,,,,,,,,,,,,,,,,,,,,,,,142.08909189349617,63.47012851284476,189.68309546324406,137.2771902664409,189.54371174134235,188.87476826390917,2.2,2.21,-196,-251,0,289,259,257,232.996324300766,232.99636578559875,232.99882006645203,233.01065397262573,233.16082239151,233.16082239151,233.16082239151,233.16082239151,233.16082239151,233.16082239151,233.16082239151,234.21206259727478,3,1.188044548034668,None,,,,,,,,,,,,,,,,,,67,3,2025-02-21_09h41.17.138,comp,2024.2.4,60.15823020831541,2025-02-21 09h57.43.472175 -0500,
69,69,0,filler_square,None,None,None,None,None,None,None,None,None,None,2,2.6347806453704834,None,,,,,0,0,0,0,0,69,69,182,234.22724890708923,,,,,,,,,,,,,,,,,,,,,,,,,,,,,,,,,,,,,,,,,,,,,,,,,,,,,,,,,,,,,,,,,,,,,,,,,,,,,,,,,81.07567447213147,99.41886835509851,112.7290386781831,112.7290386781831,107.0185681764649,89.44185944766556,4.0,4.2,-202,15,0,-267,197,8,234.21301317214966,234.2130537033081,234.21535301208496,234.22724890708923,234.37741875648499,234.37741875648499,234.37741875648499,234.37741875648499,234.37741875648499,234.37741875648499,234.37741875648499,236.87840676307678,2,2.6347806453704834,None,,,,,,,,,,,,,,,,,,67,3,2025-02-21_09h41.17.138,comp,2024.2.4,60.15823020831541,2025-02-21 09h57.43.472175 -0500,
70,70,0,critical,whd,20.0,2.1,lower,57.0,133.0,133.0,57.0,78.0,78.0,3,2.5362727642059326,None,,,,,0,0,0,0,0,70,70,38,236.89381766319275,,,,,,,,,,,,,,,,,,,,,,,,,,,,,,,,,,,,,,,,,,,,,,,,,,,,,,,,,,,,,,,,,,,,,,,,,,,,,,,,,57.0,133.0,133.0,57.0,78.0,78.0,2.1,2.12,-191,-285,0,-279,164,279,236.8791847229004,236.87922382354736,236.88165044784546,236.89381766319275,237.0438482761383,237.0438482761383,237.0438482761383,237.0438482761383,237.0438482761383,237.0438482761383,237.0438482761383,239.44505095481873,3,2.5362727642059326,None,,,,,,,,,,,,,,,,,,67,3,2025-02-21_09h41.17.138,comp,2024.2.4,60.15823020831541,2025-02-21 09h57.43.472175 -0500,
71,71,0,critical,wdh,20.0,1.0,lower,57.0,133.0,78.0,78.0,133.0,57.0,2,2.5856435298919678,None,,,,,0,0,0,0,0,71,71,78,239.4604241847992,,,,,,,,,,,,,,,,,,,,,,,,,,,,,,,,,,,,,,,,,,,,,,,,,,,,,,,,,,,,,,,,,,,,,,,,,,,,,,,,,57.0,133.0,78.0,78.0,133.0,57.0,1.0,1.1,-682,289,-480,282,-316,260,239.44583940505981,239.44587802886963,239.44825673103333,239.4604241847992,239.61056399345398,239.61056399345398,239.61056399345398,239.61056399345398,239.61056399345398,239.61056399345398,239.61056399345398,242.0616433620453,2,2.5856435298919678,None,,,,,,,,,,,,,,,,,,67,3,2025-02-21_09h41.17.138,comp,2024.2.4,60.15823020831541,2025-02-21 09h57.43.472175 -0500,
72,72,0,critical,wdh,35.0,3.0,upper,125.0,200.0,127.0,127.0,200.0,125.0,1,1.441739797592163,None,,,,,0,0,0,0,0,72,72,75,242.07723784446716,,,,,,,,,,,,,,,,,,,,,,,,,,,,,,,,,,,,,,,,,,,,,,,,,,,,,,,,,,,,,,,,,,,,,,,,,,,,,,,,,125.0,200.0,127.0,127.0,200.0,125.0,3.0,3.1,-260,282,0,-2,222,-278,242.06241488456726,242.06245303153992,242.06441235542297,242.07723784446716,242.22751808166504,242.22751808166504,242.22751808166504,242.22751808166504,242.22751808166504,242.22751808166504,242.22751808166504,243.52866959571838,1,1.441739797592163,None,,,,,,,,,,,,,,,,,,67,3,2025-02-21_09h41.17.138,comp,2024.2.4,60.15823020831541,2025-02-21 09h57.43.472175 -0500,
73,73,0,critical,hwd,35.0,2.1,upper,200.0,125.0,125.0,200.0,127.0,127.0,2,0.8056840896606445,None,,,,,0,0,0,0,0,73,73,17,243.54408264160156,,,,,,,,,,,,,,,,,,,,,,,,,,,,,,,,,,,,,,,,,,,,,,,,,,,,,,,,,,,,,,,,,,,,,,,,,,,,,,,,,200.0,125.0,125.0,200.0,127.0,127.0,2.1,2.11,-258,270,0,283,260,-255,243.52947330474854,243.52951502799988,243.53163480758667,243.54408264160156,243.69414067268372,243.69414067268372,243.69414067268372,243.69414067268372,243.69414067268372,243.69414067268372,243.69414067268372,244.36202788352966,2,0.8056840896606445,None,,,,,,,,,,,,,,,,,,67,3,2025-02-21_09h41.17.138,comp,2024.2.4,60.15823020831541,2025-02-21 09h57.43.472175 -0500,
74,74,0,filler_square,None,None,None,None,None,None,None,None,None,None,2,1.6529765129089355,None,,,,,0,0,0,0,0,74,74,206,244.37712955474854,,,,,,,,,,,,,,,,,,,,,,,,,,,,,,,,,,,,,,,,,,,,,,,,,,,,,,,,,,,,,,,,,,,,,,,,,,,,,,,,,58.26240293124596,60.162387933625396,60.248630822494476,60.248630822494476,60.14727957909484,59.18771256039507,1.0,1.2,-156,-3,0,7,156,-2,244.3629744052887,244.36301350593567,244.3650631904602,244.37712955474854,244.52741241455078,244.52741241455078,244.52741241455078,244.52741241455078,244.52741241455078,244.52741241455078,244.52741241455078,246.04499411582947,2,1.6529765129089355,None,,,,,,,,,,,,,,,,,,67,3,2025-02-21_09h41.17.138,comp,2024.2.4,60.15823020831541,2025-02-21 09h57.43.472175 -0500,
75,75,0,critical,hdw,35.0,2.1,upper,200.0,125.0,127.0,127.0,125.0,200.0,3,2.2838895320892334,None,,,,,0,0,0,0,0,75,75,21,246.06036162376404,,,,,,,,,,,,,,,,,,,,,,,,,,,,,,,,,,,,,,,,,,,,,,,,,,,,,,,,,,,,,,,,,,,,,,,,,,,,,,,,,200.0,125.0,127.0,127.0,125.0,200.0,2.1,2.11,-222,284,0,260,260,-263,246.04575061798096,246.04580521583557,246.04811763763428,246.06036162376404,246.21079754829407,246.21079754829407,246.21079754829407,246.21079754829407,246.21079754829407,246.21079754829407,246.21079754829407,248.36184287071228,3,2.2838895320892334,None,,,,,,,,,,,,,,,,,,67,3,2025-02-21_09h41.17.138,comp,2024.2.4,60.15823020831541,2025-02-21 09h57.43.472175 -0500,
76,76,0,critical,wdh,20.0,3.0,lower,57.0,133.0,78.0,78.0,133.0,57.0,3,3.388533592224121,None,,,,,0,0,0,0,0,76,76,80,248.37722492218018,,,,,,,,,,,,,,,,,,,,,,,,,,,,,,,,,,,,,,,,,,,,,,,,,,,,,,,,,,,,,,,,,,,,,,,,,,,,,,,,,57.0,133.0,78.0,78.0,133.0,57.0,3.0,3.1,-202,277,0,14,164,-257,248.3626148700714,248.36265468597412,248.36591935157776,248.37722492218018,248.52723455429077,248.52723455429077,248.52723455429077,248.52723455429077,248.52723455429077,248.52723455429077,248.52723455429077,251.77835154533386,3,3.388533592224121,None,,,,,,,,,,,,,,,,,,67,3,2025-02-21_09h41.17.138,comp,2024.2.4,60.15823020831541,2025-02-21 09h57.43.472175 -0500,
77,77,0,critical,hdw,20.0,4.0,upper,200.0,125.0,141.0,141.0,125.0,200.0,3,1.5505199432373047,None,,,,,0,0,0,0,0,77,77,119,251.79366850852966,,,,,,,,,,,,,,,,,,,,,,,,,,,,,,,,,,,,,,,,,,,,,,,,,,,,,,,,,,,,,,,,,,,,,,,,,,,,,,,,,200.0,125.0,141.0,141.0,125.0,200.0,4.0,4.2,-229,-15,0,-256,266,15,251.779155254364,251.77919554710388,251.78167152404785,251.79366850852966,251.94414067268372,251.94414067268372,251.94414067268372,251.94414067268372,251.94414067268372,251.94414067268372,251.94414067268372,253.3453598022461,3,1.5505199432373047,None,,,,,,,,,,,,,,,,,,67,3,2025-02-21_09h41.17.138,comp,2024.2.4,60.15823020831541,2025-02-21 09h57.43.472175 -0500,
78,78,0,catch,None,None,None,None,None,None,None,None,None,None,1,0.789160966873169,None,,,,,0,0,0,0,0,78,78,129,253.36065435409546,,,,,,,,,,,,,,,,,,,,,,,,,,,,,,,,,,,,,,,,,,,,,,,,,,,,,,,,,,,,,,,,,,,,,,,,,,,,,,,,,129,196,111,79,70,120,1.0,1.3,246,-263,480,-286,676,-267,253.3464479446411,253.34648990631104,253.34896850585938,253.36065435409546,253.51079654693604,253.51079654693604,253.51079654693604,253.51079654693604,253.51079654693604,253.51079654693604,253.51079654693604,254.1620819568634,1,0.789160966873169,None,,,,,,,,,,,,,,,,,,67,3,2025-02-21_09h41.17.138,comp,2024.2.4,60.15823020831541,2025-02-21 09h57.43.472175 -0500,
79,79,0,critical,whd,35.0,3.0,upper,125.0,200.0,200.0,125.0,127.0,127.0,2,1.1095221042633057,None,,,,,0,0,0,0,0,79,79,87,254.17710709571838,,,,,,,,,,,,,,,,,,,,,,,,,,,,,,,,,,,,,,,,,,,,,,,,,,,,,,,,,,,,,,,,,,,,,,,,,,,,,,,,,125.0,200.0,200.0,125.0,127.0,127.0,3.0,3.1,-258,269,0,9,222,-253,254.16286849975586,254.1629078388214,254.16497492790222,254.17710709571838,254.32741475105286,254.32741475105286,254.32741475105286,254.32741475105286,254.32741475105286,254.32741475105286,254.32741475105286,255.29507613182068,2,1.1095221042633057,None,,,,,,,,,,,,,,,,,,67,3,2025-02-21_09h41.17.138,comp,2024.2.4,60.15823020831541,2025-02-21 09h57.43.472175 -0500,
80,80,0,critical,whd,35.0,2.1,upper,125.0,200.0,200.0,125.0,127.0,127.0,2,1.2497823238372803,None,,,,,0,0,0,0,0,80,80,37,255.31055355072021,,,,,,,,,,,,,,,,,,,,,,,,,,,,,,,,,,,,,,,,,,,,,,,,,,,,,,,,,,,,,,,,,,,,,,,,,,,,,,,,,125.0,200.0,200.0,125.0,127.0,127.0,2.1,2.12,-258,-262,0,-253,222,251,255.2958722114563,255.29591155052185,255.29829692840576,255.31055355072021,255.46060919761658,255.46060919761658,255.46060919761658,255.46060919761658,255.46060919761658,255.46060919761658,255.46060919761658,256.57864117622375,2,1.2497823238372803,None,,,,,,,,,,,,,,,,,,67,3,2025-02-21_09h41.17.138,comp,2024.2.4,60.15823020831541,2025-02-21 09h57.43.472175 -0500,
81,81,0,critical,hwd,20.0,1.0,upper,200.0,125.0,125.0,200.0,141.0,141.0,2,0.6768739223480225,None,,,,,0,0,0,0,0,81,81,103,256.5937464237213,,,,,,,,,,,,,,,,,,,,,,,,,,,,,,,,,,,,,,,,,,,,,,,,,,,,,,,,,,,,,,,,,,,,,,,,,,,,,,,,,200.0,125.0,125.0,200.0,141.0,141.0,1.0,1.2,-258,11,0,-11,266,-16,256.5794379711151,256.5794765949249,256.5816729068756,256.5937464237213,256.74417066574097,256.74417066574097,256.74417066574097,256.74417066574097,256.74417066574097,256.74417066574097,256.74417066574097,257.27851009368896,2,0.6768739223480225,None,,,,,,,,,,,,,,,,,,67,3,2025-02-21_09h41.17.138,comp,2024.2.4,60.15823020831541,2025-02-21 09h57.43.472175 -0500,
82,82,0,critical,dwh,20.0,2.1,upper,141.0,141.0,125.0,200.0,200.0,125.0,3,0.8557436466217041,None,,,,,0,0,0,0,0,82,82,31,257.2939600944519,,,,,,,,,,,,,,,,,,,,,,,,,,,,,,,,,,,,,,,,,,,,,,,,,,,,,,,,,,,,,,,,,,,,,,,,,,,,,,,,,141.0,141.0,125.0,200.0,200.0,125.0,2.1,2.11,-266,265,0,281,258,-260,257.2792983055115,257.2793388366699,257.28181052207947,257.2939600944519,257.4440348148346,257.4440348148346,257.4440348148346,257.4440348148346,257.4440348148346,257.4440348148346,257.4440348148346,258.1620922088623,3,0.8557436466217041,None,,,,,,,,,,,,,,,,,,67,3,2025-02-21_09h41.17.138,comp,2024.2.4,60.15823020831541,2025-02-21 09h57.43.472175 -0500,
83,83,0,critical,dhw,20.0,2.1,upper,141.0,141.0,200.0,125.0,125.0,200.0,3,1.0155341625213623,None,,,,,0,0,0,0,0,83,83,3,258.1769964694977,,,,,,,,,,,,,,,,,,,,,,,,,,,,,,,,,,,,,,,,,,,,,,,,,,,,,,,,,,,,,,,,,,,,,,,,,,,,,,,,,141.0,141.0,200.0,125.0,125.0,200.0,2.1,2.12,-229,-263,0,-273,258,282,258.16286420822144,258.16290378570557,258.1650025844574,258.1769964694977,258.3275671005249,258.3275671005249,258.3275671005249,258.3275671005249,258.3275671005249,258.3275671005249,258.3275671005249,259.1952974796295,3,1.0155341625213623,None,,,,,,,,,,,,,,,,,,67,3,2025-02-21_09h41.17.138,comp,2024.2.4,60.15823020831541,2025-02-21 09h57.43.472175 -0500,
84,84,0,critical,dwh,35.0,2.1,lower,70.0,70.0,57.0,133.0,133.0,57.0,2,0.844052791595459,None,,,,,0,0,0,0,0,84,84,4,259.21058797836304,,,,,,,,,,,,,,,,,,,,,,,,,,,,,,,,,,,,,,,,,,,,,,,,,,,,,,,,,,,,,,,,,,,,,,,,,,,,,,,,,70.0,70.0,57.0,133.0,133.0,57.0,2.1,2.11,-198,276,0,285,191,-263,259.196085691452,259.19612646102905,259.1984512805939,259.21058797836304,259.3604166507721,259.3604166507721,259.3604166507721,259.3604166507721,259.3604166507721,259.3604166507721,259.3604166507721,260.0615828037262,2,0.844052791595459,None,,,,,,,,,,,,,,,,,,67,3,2025-02-21_09h41.17.138,comp,2024.2.4,60.15823020831541,2025-02-21 09h57.43.472175 -0500,
85,85,0,critical,dhw,35.0,3.0,upper,127.0,127.0,200.0,125.0,125.0,200.0,3,1.2092585563659668,None,,,,,0,0,0,0,0,85,85,51,260.0773141384125,,,,,,,,,,,,,,,,,,,,,,,,,,,,,,,,,,,,,,,,,,,,,,,,,,,,,,,,,,,,,,,,,,,,,,,,,,,,,,,,,127.0,127.0,200.0,125.0,125.0,200.0,3.0,3.1,-222,263,0,-4,258,-268,260.062362909317,260.0624010562897,260.0648066997528,260.0773141384125,260.2272584438324,260.2272584438324,260.2272584438324,260.2272584438324,260.2272584438324,260.2272584438324,260.2272584438324,261.2950646877289,3,1.2092585563659668,None,,,,,,,,,,,,,,,,,,67,3,2025-02-21_09h41.17.138,comp,2024.2.4,60.15823020831541,2025-02-21 09h57.43.472175 -0500,
86,86,0,filler_random,None,None,None,None,None,None,None,None,None,None,2,1.103315830230713,None,,,,,0,0,0,0,0,86,86,142,261.31057357788086,,,,,,,,,,,,,,,,,,,,,,,,,,,,,,,,,,,,,,,,,,,,,,,,,,,,,,,,,,,,,,,,,,,,,,,,,,,,,,,,,178.1848724615267,59.53978562409823,92.96811856326012,162.62841723187535,199.06201286448277,175.57709793417007,2.1,2.12,-207,-257,0,-279,265,287,261.2959613800049,261.2960011959076,261.2980365753174,261.31057357788086,261.4606075286865,261.4606075286865,261.4606075286865,261.4606075286865,261.4606075286865,261.4606075286865,261.4606075286865,262.42847180366516,2,1.103315830230713,None,,,,,,,,,,,,,,,,,,67,3,2025-02-21_09h41.17.138,comp,2024.2.4,60.15823020831541,2025-02-21 09h57.43.472175 -0500,
87,87,0,filler_square,None,None,None,None,None,None,None,None,None,None,3,1.8835890293121338,None,,,,,0,0,0,0,0,87,87,177,262.4437689781189,,,,,,,,,,,,,,,,,,,,,,,,,,,,,,,,,,,,,,,,,,,,,,,,,,,,,,,,,,,,,,,,,,,,,,,,,,,,,,,,,57.708761813031394,57.708761813031394,57.2574099377408,57.38065663101,57.04095915669172,57.454910335051814,1.0,1.2,-154,-14,0,-3,153,-19,262.429395198822,262.4294352531433,262.4318404197693,262.4437689781189,262.5937485694885,262.5937485694885,262.5937485694885,262.5937485694885,262.5937485694885,262.5937485694885,262.5937485694885,264.344824552536,3,1.8835890293121338,None,,,,,,,,,,,,,,,,,,67,3,2025-02-21_09h41.17.138,comp,2024.2.4,60.15823020831541,2025-02-21 09h57.43.472175 -0500,
88,88,0,filler_square,None,None,None,None,None,None,None,None,None,None,3,3.1503536701202393,None,,,,,0,0,0,0,0,88,88,200,264.36027908325195,,,,,,,,,,,,,,,,,,,,,,,,,,,,,,,,,,,,,,,,,,,,,,,,,,,,,,,,,,,,,,,,,,,,,,,,,,,,,,,,,92.72586106199056,78.56723043988981,72.67549736956919,69.53495675919127,94.1414890003003,94.1414890003003,4.0,4.2,-170,-2,0,-274,178,3,264.34572315216064,264.3457794189453,264.3480803966522,264.36027908325195,264.51045274734497,264.51045274734497,264.51045274734497,264.51045274734497,264.51045274734497,264.51045274734497,264.51045274734497,267.5118110179901,3,3.1503536701202393,None,,,,,,,,,,,,,,,,,,67,3,2025-02-21_09h41.17.138,comp,2024.2.4,60.15823020831541,2025-02-21 09h57.43.472175 -0500,
89,89,0,filler_square,None,None,None,None,None,None,None,None,None,None,2,2.454563856124878,None,,,,,0,0,0,0,0,89,89,202,267.5272011756897,,,,,,,,,,,,,,,,,,,,,,,,,,,,,,,,,,,,,,,,,,,,,,,,,,,,,,,,,,,,,,,,,,,,,,,,,,,,,,,,,64.60356827249907,81.67198157665732,111.92695496389862,111.92695496389862,60.8503830593809,60.914439311395164,1.0,1.3,287,-259,480,-270,662,-253,267.5128014087677,267.5128412246704,267.5152313709259,267.5272011756897,267.67711758613586,267.67711758613586,267.67711758613586,267.67711758613586,267.67711758613586,267.67711758613586,267.67711758613586,269.99469113349915,2,2.454563856124878,None,,,,,,,,,,,,,,,,,,67,3,2025-02-21_09h41.17.138,comp,2024.2.4,60.15823020831541,2025-02-21 09h57.43.472175 -0500,
90,90,0,critical,hwd,20.0,1.0,lower,133.0,57.0,57.0,133.0,78.0,78.0,3,2.908813714981079,None,,,,,0,0,0,0,0,90,90,102,270.010128736496,,,,,,,,,,,,,,,,,,,,,,,,,,,,,,,,,,,,,,,,,,,,,,,,,,,,,,,,,,,,,,,,,,,,,,,,,,,,,,,,,133.0,57.0,57.0,133.0,78.0,78.0,1.0,1.1,-671,252,-480,259,-278,282,269.99548864364624,269.99552726745605,269.9976999759674,270.010128736496,270.1603765487671,270.1603765487671,270.1603765487671,270.1603765487671,270.1603765487671,270.1603765487671,270.1603765487671,272.9284157752991,3,2.908813714981079,None,,,,,,,,,,,,,,,,,,67,3,2025-02-21_09h41.17.138,comp,2024.2.4,60.15823020831541,2025-02-21 09h57.43.472175 -0500,
91,91,0,filler_random,None,None,None,None,None,None,None,None,None,None,3,0.9176738262176514,None,,,,,0,0,0,0,0,91,91,157,272.9439866542816,,,,,,,,,,,,,,,,,,,,,,,,,,,,,,,,,,,,,,,,,,,,,,,,,,,,,,,,,,,,,,,,,,,,,,,,,,,,,,,,,113.89620521851754,136.75506388480517,63.803399859663784,68.70192302885327,155.46888355845408,172.15889026945524,2.2,2.21,-199,-254,0,270,216,262,272.92933535575867,272.92937755584717,272.93178939819336,272.9439866542816,273.0937259197235,273.0937259197235,273.0937259197235,273.0937259197235,273.0937259197235,273.0937259197235,273.0937259197235,273.878155708313,3,0.9176738262176514,None,,,,,,,,,,,,,,,,,,67,3,2025-02-21_09h41.17.138,comp,2024.2.4,60.15823020831541,2025-02-21 09h57.43.472175 -0500,
92,92,0,filler_random,None,None,None,None,None,None,None,None,None,None,1,1.368138074874878,None,,,,,0,0,0,0,0,92,92,163,273.8935534954071,,,,,,,,,,,,,,,,,,,,,,,,,,,,,,,,,,,,,,,,,,,,,,,,,,,,,,,,,,,,,,,,,,,,,,,,,,,,,,,,,198.51554497972356,165.45787338420251,105.83925227736228,199.44990281906314,81.81833449894425,192.43650824569337,2.1,2.12,-278,-260,0,-275,292,279,273.879047870636,273.8790867328644,273.8814752101898,273.8935534954071,274.04394936561584,274.04394936561584,274.04394936561584,274.04394936561584,274.04394936561584,274.04394936561584,274.04394936561584,275.2783465385437,1,1.368138074874878,None,,,,,,,,,,,,,,,,,,67,3,2025-02-21_09h41.17.138,comp,2024.2.4,60.15823020831541,2025-02-21 09h57.43.472175 -0500,
93,93,0,filler_square,None,None,None,None,None,None,None,None,None,None,2,0.9132156372070312,None,,,,,0,0,0,0,0,93,93,170,275.293657541275,,,,,,,,,,,,,,,,,,,,,,,,,,,,,,,,,,,,,,,,,,,,,,,,,,,,,,,,,,,,,,,,,,,,,,,,,,,,,,,,,142.0630291604121,141.40398758810719,194.52741652791644,194.52741652791644,175.29874996733096,91.80346594485377,3.0,3.2,-264,-271,0,-5,239,256,275.27933263778687,275.2793734073639,275.2814633846283,275.293657541275,275.44385600090027,275.44385600090027,275.44385600090027,275.44385600090027,275.44385600090027,275.44385600090027,275.44385600090027,276.2118353843689,2,0.9132156372070312,None,,,,,,,,,,,,,,,,,,67,3,2025-02-21_09h41.17.138,comp,2024.2.4,60.15823020831541,2025-02-21 09h57.43.472175 -0500,
94,94,0,critical,hwd,20.0,3.0,upper,200.0,125.0,125.0,200.0,141.0,141.0,2,1.0506095886230469,None,,,,,0,0,0,0,0,94,94,105,276.227135181427,,,,,,,,,,,,,,,,,,,,,,,,,,,,,,,,,,,,,,,,,,,,,,,,,,,,,,,,,,,,,,,,,,,,,,,,,,,,,,,,,200.0,125.0,125.0,200.0,141.0,141.0,3.0,3.1,-258,268,0,13,266,-262,276.2126030921936,276.21264386177063,276.21472096443176,276.227135181427,276.37760066986084,276.37760066986084,276.37760066986084,276.37760066986084,276.37760066986084,276.37760066986084,276.37760066986084,277.2950277328491,2,1.0506095886230469,None,,,,,,,,,,,,,,,,,,67,3,2025-02-21_09h41.17.138,comp,2024.2.4,60.15823020831541,2025-02-21 09h57.43.472175 -0500,
95,95,0,critical,wdh,20.0,2.1,upper,125.0,200.0,141.0,141.0,200.0,125.0,1,1.3283579349517822,None,,,,,0,0,0,0,0,95,95,35,277.31017303466797,,,,,,,,,,,,,,,,,,,,,,,,,,,,,,,,,,,,,,,,,,,,,,,,,,,,,,,,,,,,,,,,,,,,,,,,,,,,,,,,,125.0,200.0,141.0,141.0,200.0,125.0,2.1,2.12,-266,-282,0,-265,229,251,277.295818567276,277.2958574295044,277.2979893684387,277.31017303466797,277.4606440067291,277.4606440067291,277.4606440067291,277.4606440067291,277.4606440067291,277.4606440067291,277.4606440067291,278.6450529098511,1,1.3283579349517822,None,,,,,,,,,,,,,,,,,,67,3,2025-02-21_09h41.17.138,comp,2024.2.4,60.15823020831541,2025-02-21 09h57.43.472175 -0500,
96,96,0,critical,wdh,20.0,3.0,upper,125.0,200.0,141.0,141.0,200.0,125.0,1,1.2339482307434082,None,,,,,0,0,0,0,0,96,96,81,278.6605293750763,,,,,,,,,,,,,,,,,,,,,,,,,,,,,,,,,,,,,,,,,,,,,,,,,,,,,,,,,,,,,,,,,,,,,,,,,,,,,,,,,125.0,200.0,141.0,141.0,200.0,125.0,3.0,3.2,-266,-263,0,12,229,263,278.64584946632385,278.6458909511566,278.6482803821564,278.6605293750763,278.81057500839233,278.81057500839233,278.81057500839233,278.81057500839233,278.81057500839233,278.81057500839233,278.81057500839233,279.9116213321686,1,1.2339482307434082,None,,,,,,,,,,,,,,,,,,67,3,2025-02-21_09h41.17.138,comp,2024.2.4,60.15823020831541,2025-02-21 09h57.43.472175 -0500,
97,97,0,critical,wdh,20.0,4.0,upper,125.0,200.0,141.0,141.0,200.0,125.0,3,1.27988862991333,None,,,,,0,0,0,0,0,97,97,83,279.92711186408997,,,,,,,,,,,,,,,,,,,,,,,,,,,,,,,,,,,,,,,,,,,,,,,,,,,,,,,,,,,,,,,,,,,,,,,,,,,,,,,,,125.0,200.0,141.0,141.0,200.0,125.0,4.0,4.2,-266,8,0,-260,229,-6,279.9124038219452,279.91244435310364,279.91622161865234,279.92711186408997,280.0771818161011,280.0771818161011,280.0771818161011,280.0771818161011,280.0771818161011,280.0771818161011,280.0771818161011,281.2119448184967,3,1.27988862991333,None,,,,,,,,,,,,,,,,,,67,3,2025-02-21_09h41.17.138,comp,2024.2.4,60.15823020831541,2025-02-21 09h57.43.472175 -0500,
98,98,0,filler_random,None,None,None,None,None,None,None,None,None,None,2,1.2184650897979736,None,,,,,0,0,0,0,0,98,98,145,281.22721123695374,,,,,,,,,,,,,,,,,,,,,,,,,,,,,,,,,,,,,,,,,,,,,,,,,,,,,,,,,,,,,,,,,,,,,,,,,,,,,,,,,65.9902447238757,189.09861868212727,130.52268108688497,66.12563076196136,65.43541547308999,109.8694550874051,2.2,2.22,-224,272,0,-284,184,-290,281.2128658294678,281.21290731430054,281.2149729728699,281.22721123695374,281.3769733905792,281.3769733905792,281.3769733905792,281.3769733905792,281.3769733905792,281.3769733905792,281.3769733905792,282.4613959789276,2,1.2184650897979736,None,,,,,,,,,,,,,,,,,,67,3,2025-02-21_09h41.17.138,comp,2024.2.4,60.15823020831541,2025-02-21 09h57.43.472175 -0500,
99,99,0,critical,dwh,20.0,2.1,lower,78.0,78.0,57.0,133.0,133.0,57.0,2,1.1777260303497314,None,,,,,0,0,0,0,0,99,99,6,282.4767906665802,,,,,,,,,,,,,,,,,,,,,,,,,,,,,,,,,,,,,,,,,,,,,,,,,,,,,,,,,,,,,,,,,,,,,,,,,,,,,,,,,78.0,78.0,57.0,133.0,133.0,57.0,2.1,2.11,-202,259,0,282,191,-287,282.4621956348419,282.4622356891632,282.4647214412689,282.4767906665802,282.6269223690033,282.6269223690033,282.6269223690033,282.6269223690033,282.6269223690033,282.6269223690033,282.6269223690033,283.66153264045715,2,1.1777260303497314,None,,,,,,,,,,,,,,,,,,67,3,2025-02-21_09h41.17.138,comp,2024.2.4,60.15823020831541,2025-02-21 09h57.43.472175 -0500,
100,100,0,critical,wdh,35.0,4.0,upper,125.0,200.0,127.0,127.0,200.0,125.0,3,0.9366729259490967,None,,,,,0,0,0,0,0,100,100,77,283.67714262008667,,,,,,,,,,,,,,,,,,,,,,,,,,,,,,,,,,,,,,,,,,,,,,,,,,,,,,,,,,,,,,,,,,,,,,,,,,,,,,,,,125.0,200.0,127.0,127.0,200.0,125.0,4.0,4.2,-260,-19,0,-260,222,2,283.6623921394348,283.6624319553375,283.6645085811615,283.67714262008667,283.82718324661255,283.82718324661255,283.82718324661255,283.82718324661255,283.82718324661255,283.82718324661255,283.82718324661255,284.6283459663391,3,0.9366729259490967,None,,,,,,,,,,,,,,,,,,67,3,2025-02-21_09h41.17.138,comp,2024.2.4,60.15823020831541,2025-02-21 09h57.43.472175 -0500,
101,101,0,filler_square,None,None,None,None,None,None,None,None,None,None,1,1.3379738330841064,None,,,,,0,0,0,0,0,101,101,186,284.64365696907043,,,,,,,,,,,,,,,,,,,,,,,,,,,,,,,,,,,,,,,,,,,,,,,,,,,,,,,,,,,,,,,,,,,,,,,,,,,,,,,,,139.73763658838504,139.73763658838504,99.80044646591998,74.8009457895555,75.26321018777537,139.05616362435944,3.0,3.1,-203,262,0,-19,203,-286,284.6292927265167,284.6293339729309,284.63174414634705,284.64365696907043,284.7936577796936,284.7936577796936,284.7936577796936,284.7936577796936,284.7936577796936,284.7936577796936,284.7936577796936,285.9946687221527,1,1.3379738330841064,None,,,,,,,,,,,,,,,,,,67,3,2025-02-21_09h41.17.138,comp,2024.2.4,60.15823020831541,2025-02-21 09h57.43.472175 -0500,
102,102,0,filler_random,None,None,None,None,None,None,None,None,None,None,3,2.09228777885437,None,,,,,0,0,0,0,0,102,102,151,286.01016330718994,,,,,,,,,,,,,,,,,,,,,,,,,,,,,,,,,,,,,,,,,,,,,,,,,,,,,,,,,,,,,,,,,,,,,,,,,,,,,,,,,81.2873357873988,179.34147696111137,57.48990108142296,112.76224071132674,105.64089387538075,152.0772572685318,2.2,2.21,-242,-278,0,259,228,272,285.9956817626953,285.9957220554352,285.99883937835693,286.01016330718994,286.1603252887726,286.1603252887726,286.1603252887726,286.1603252887726,286.1603252887726,286.1603252887726,286.1603252887726,288.11142468452454,3,2.09228777885437,None,,,,,,,,,,,,,,,,,,67,3,2025-02-21_09h41.17.138,comp,2024.2.4,60.15823020831541,2025-02-21 09h57.43.472175 -0500,
103,103,0,filler_square,None,None,None,None,None,None,None,None,None,None,3,1.6545021533966064,None,,,,,0,0,0,0,0,103,103,187,288.1271319389343,,,,,,,,,,,,,,,,,,,,,,,,,,,,,,,,,,,,,,,,,,,,,,,,,,,,,,,,,,,,,,,,,,,,,,,,,,,,,,,,,61.306843006775594,62.10345662219527,81.12138890193046,61.48931908742232,127.0237298017855,127.0237298017855,4.0,4.1,-158,-280,0,-6,190,-253,288.112389087677,288.1124315261841,288.11481738090515,288.1271319389343,288.27721786499023,288.27721786499023,288.27721786499023,288.27721786499023,288.27721786499023,288.27721786499023,288.27721786499023,289.79473519325256,3,1.6545021533966064,None,,,,,,,,,,,,,,,,,,67,3,2025-02-21_09h41.17.138,comp,2024.2.4,60.15823020831541,2025-02-21 09h57.43.472175 -0500,
104,104,0,critical,wdh,20.0,4.0,lower,57.0,133.0,78.0,78.0,133.0,57.0,2,0.8196580410003662,None,,,,,0,0,0,0,0,104,104,82,289.8100929260254,,,,,,,,,,,,,,,,,,,,,,,,,,,,,,,,,,,,,,,,,,,,,,,,,,,,,,,,,,,,,,,,,,,,,,,,,,,,,,,,,57.0,133.0,78.0,78.0,133.0,57.0,4.0,4.2,-202,18,0,-272,164,-13,289.79550790786743,289.7955479621887,289.7975471019745,289.8100929260254,289.96027088165283,289.96027088165283,289.96027088165283,289.96027088165283,289.96027088165283,289.96027088165283,289.96027088165283,290.6446375846863,2,0.8196580410003662,None,,,,,,,,,,,,,,,,,,67,3,2025-02-21_09h41.17.138,comp,2024.2.4,60.15823020831541,2025-02-21 09h57.43.472175 -0500,
105,105,0,critical,dhw,35.0,1.0,upper,127.0,127.0,200.0,125.0,125.0,200.0,2,0.7856559753417969,None,,,,,0,0,0,0,0,105,105,49,290.6601040363312,,,,,,,,,,,,,,,,,,,,,,,,,,,,,,,,,,,,,,,,,,,,,,,,,,,,,,,,,,,,,,,,,,,,,,,,,,,,,,,,,127.0,127.0,200.0,125.0,125.0,200.0,1.0,1.2,-222,9,0,4,258,-18,290.64538979530334,290.6454288959503,290.6479334831238,290.6601040363312,290.81086921691895,290.81086921691895,290.81086921691895,290.81086921691895,290.81086921691895,290.81086921691895,290.81086921691895,291.4616029262543,2,0.7856559753417969,None,,,,,,,,,,,,,,,,,,67,3,2025-02-21_09h41.17.138,comp,2024.2.4,60.15823020831541,2025-02-21 09h57.43.472175 -0500,
106,106,0,critical,wdh,35.0,3.0,lower,57.0,133.0,70.0,70.0,133.0,57.0,3,2.168748617172241,None,,,,,0,0,0,0,0,106,106,74,291.4769389629364,,,,,,,,,,,,,,,,,,,,,,,,,,,,,,,,,,,,,,,,,,,,,,,,,,,,,,,,,,,,,,,,,,,,,,,,,,,,,,,,,57.0,133.0,70.0,70.0,133.0,57.0,3.0,3.1,-198,260,0,10,160,-259,291.462393283844,291.4624328613281,291.46587586402893,291.4769389629364,291.6270287036896,291.6270287036896,291.6270287036896,291.6270287036896,291.6270287036896,291.6270287036896,291.6270287036896,293.66139221191406,3,2.168748617172241,None,,,,,,,,,,,,,,,,,,67,3,2025-02-21_09h41.17.138,comp,2024.2.4,60.15823020831541,2025-02-21 09h57.43.472175 -0500,
107,107,0,filler_square,None,None,None,None,None,None,None,None,None,None,3,1.1937580108642578,None,,,,,0,0,0,0,0,107,107,193,293.6768159866333,,,,,,,,,,,,,,,,,,,,,,,,,,,,,,,,,,,,,,,,,,,,,,,,,,,,,,,,,,,,,,,,,,,,,,,,,,,,,,,,,111.42825623985735,79.46728952145561,92.90370923082759,128.03650719372217,140.7290465323639,140.7290465323639,1.0,1.2,-200,-18,0,-8,230,-7,293.66236186027527,293.66240096092224,293.66484332084656,293.6768159866333,293.826961517334,293.826961517334,293.826961517334,293.826961517334,293.826961517334,293.826961517334,293.826961517334,294.8780915737152,3,1.1937580108642578,None,,,,,,,,,,,,,,,,,,67,3,2025-02-21_09h41.17.138,comp,2024.2.4,60.15823020831541,2025-02-21 09h57.43.472175 -0500,
108,108,0,catch,None,None,None,None,None,None,None,None,None,None,1,0.7839217185974121,None,,,,,0,0,0,0,0,108,108,120,294.8936114311218,,,,,,,,,,,,,,,,,,,,,,,,,,,,,,,,,,,,,,,,,,,,,,,,,,,,,,,,,,,,,,,,,,,,,,,,,,,,,,,,,158,167,86,104,104,86,1.0,1.3,248,-271,480,-255,671,-263,294.8791148662567,294.879154920578,294.8812189102173,294.8936114311218,295.04396986961365,295.04396986961365,295.04396986961365,295.04396986961365,295.04396986961365,295.04396986961365,295.04396986961365,295.6946613788605,1,0.7839217185974121,None,,,,,,,,,,,,,,,,,,67,3,2025-02-21_09h41.17.138,comp,2024.2.4,60.15823020831541,2025-02-21 09h57.43.472175 -0500,
109,109,0,critical,dwh,20.0,2.1,lower,78.0,78.0,57.0,133.0,133.0,57.0,1,1.2968783378601074,None,,,,,0,0,0,0,0,109,109,30,295.7100598812103,,,,,,,,,,,,,,,,,,,,,,,,,,,,,,,,,,,,,,,,,,,,,,,,,,,,,,,,,,,,,,,,,,,,,,,,,,,,,,,,,78.0,78.0,57.0,133.0,133.0,57.0,2.1,2.11,-202,282,0,281,191,-283,295.6954538822174,295.69549322128296,295.69749641418457,295.7100598812103,295.8604474067688,295.8604474067688,295.8604474067688,295.8604474067688,295.8604474067688,295.8604474067688,295.8604474067688,297.0115931034088,1,1.2968783378601074,None,,,,,,,,,,,,,,,,,,67,3,2025-02-21_09h41.17.138,comp,2024.2.4,60.15823020831541,2025-02-21 09h57.43.472175 -0500,
110,110,0,critical,hwd,35.0,3.0,lower,133.0,57.0,57.0,133.0,70.0,70.0,2,0.9713168144226074,None,,,,,0,0,0,0,0,110,110,98,297.02694058418274,,,,,,,,,,,,,,,,,,,,,,,,,,,,,,,,,,,,,,,,,,,,,,,,,,,,,,,,,,,,,,,,,,,,,,,,,,,,,,,,,133.0,57.0,57.0,133.0,70.0,70.0,3.0,3.2,-191,-253,0,-14,198,272,297.0123760700226,297.01241755485535,297.0145025253296,297.02694058418274,297.17683959007263,297.17683959007263,297.17683959007263,297.17683959007263,297.17683959007263,297.17683959007263,297.17683959007263,298.01126742362976,2,0.9713168144226074,None,,,,,,,,,,,,,,,,,,67,3,2025-02-21_09h41.17.138,comp,2024.2.4,60.15823020831541,2025-02-21 09h57.43.472175 -0500,
111,111,0,critical,whd,20.0,1.0,upper,125.0,200.0,200.0,125.0,141.0,141.0,2,0.9171454906463623,None,,,,,0,0,0,0,0,111,111,91,298.026713848114,,,,,,,,,,,,,,,,,,,,,,,,,,,,,,,,,,,,,,,,,,,,,,,,,,,,,,,,,,,,,,,,,,,,,,,,,,,,,,,,,125.0,200.0,200.0,125.0,141.0,141.0,1.0,1.3,222,-274,480,-276,709,-262,298.01206946372986,298.01210856437683,298.0145227909088,298.026713848114,298.17717480659485,298.17717480659485,298.17717480659485,298.17717480659485,298.17717480659485,298.17717480659485,298.17717480659485,298.94521164894104,2,0.9171454906463623,None,,,,,,,,,,,,,,,,,,67,3,2025-02-21_09h41.17.138,comp,2024.2.4,60.15823020831541,2025-02-21 09h57.43.472175 -0500,
112,112,0,filler_square,None,None,None,None,None,None,None,None,None,None,3,6.877978086471558,None,,,,,0,0,0,0,0,112,112,192,298.9603443145752,,,,,,,,,,,,,,,,,,,,,,,,,,,,,,,,,,,,,,,,,,,,,,,,,,,,,,,,,,,,,,,,,,,,,,,,,,,,,,,,,59.39204347845336,59.691397636356015,60.04795878034432,60.080328688523124,60.24725439362115,60.24725439362115,4.0,4.2,-156,-17,0,-273,156,-13,298.94615864753723,298.94620013237,298.948255777359,298.9603443145752,299.11039328575134,299.11039328575134,299.11039328575134,299.11039328575134,299.11039328575134,299.11039328575134,299.11039328575134,305.844575881958,3,6.877978086471558,None,,,,,,,,,,,,,,,,,,67,3,2025-02-21_09h41.17.138,comp,2024.2.4,60.15823020831541,2025-02-21 09h57.43.472175 -0500,
113,113,0,critical,hwd,35.0,2.1,lower,133.0,57.0,57.0,133.0,70.0,70.0,2,0.7161381244659424,None,,,,,0,0,0,0,0,113,113,40,305.86030292510986,,,,,,,,,,,,,,,,,,,,,,,,,,,,,,,,,,,,,,,,,,,,,,,,,,,,,,,,,,,,,,,,,,,,,,,,,,,,,,,,,133.0,57.0,57.0,133.0,70.0,70.0,2.1,2.11,-191,272,0,250,198,-275,305.84537267684937,305.84541296958923,305.8479673862457,305.86030292510986,306.0103814601898,306.0103814601898,306.0103814601898,306.0103814601898,306.0103814601898,306.0103814601898,306.0103814601898,306.5946137905121,2,0.7161381244659424,None,,,,,,,,,,,,,,,,,,67,3,2025-02-21_09h41.17.138,comp,2024.2.4,60.15823020831541,2025-02-21 09h57.43.472175 -0500,
114,114,0,filler_random,None,None,None,None,None,None,None,None,None,None,2,0.9552788734436035,None,,,,,0,0,0,0,0,114,114,134,306.6101016998291,,,,,,,,,,,,,,,,,,,,,,,,,,,,,,,,,,,,,,,,,,,,,,,,,,,,,,,,,,,,,,,,,,,,,,,,,,,,,,,,,83.32524100329363,157.84610015535094,162.63415393788517,179.68882701636346,95.51135379318299,151.00031935135468,3.0,3.1,-265,269,0,-1,261,-275,306.59547185897827,306.5955111980438,306.5974462032318,306.6101016998291,306.76024746894836,306.76024746894836,306.76024746894836,306.76024746894836,306.76024746894836,306.76024746894836,306.76024746894836,307.5784156322479,2,0.9552788734436035,None,,,,,,,,,,,,,,,,,,67,3,2025-02-21_09h41.17.138,comp,2024.2.4,60.15823020831541,2025-02-21 09h57.43.472175 -0500,
115,115,0,filler_random,None,None,None,None,None,None,None,None,None,None,2,0.5719192028045654,None,,,,,0,0,0,0,0,115,115,141,307.5934271812439,,,,,,,,,,,,,,,,,,,,,,,,,,,,,,,,,,,,,,,,,,,,,,,,,,,,,,,,,,,,,,,,,,,,,,,,,,,,,,,,,88.57833925449843,116.47463828582337,118.53230487244477,153.4040482608699,69.27651227892113,106.10788057053004,3.0,3.2,-231,-252,0,5,226,283,307.57934045791626,307.57938027381897,307.58186507225037,307.5934271812439,307.743479013443,307.743479013443,307.743479013443,307.743479013443,307.743479013443,307.743479013443,307.743479013443,308.17799186706543,2,0.5719192028045654,None,,,,,,,,,,,,,,,,,,67,3,2025-02-21_09h41.17.138,comp,2024.2.4,60.15823020831541,2025-02-21 09h57.43.472175 -0500,
116,116,0,critical,dhw,20.0,1.0,upper,141.0,141.0,200.0,125.0,125.0,200.0,3,1.2770166397094727,None,,,,,0,0,0,0,0,116,116,55,308.1933329105377,,,,,,,,,,,,,,,,,,,,,,,,,,,,,,,,,,,,,,,,,,,,,,,,,,,,,,,,,,,,,,,,,,,,,,,,,,,,,,,,,141.0,141.0,200.0,125.0,125.0,200.0,1.0,1.2,-229,13,0,10,258,-1,308.1787440776825,308.17879581451416,308.18118476867676,308.1933329105377,308.34367322921753,308.34367322921753,308.34367322921753,308.34367322921753,308.34367322921753,308.34367322921753,308.34367322921753,309.4781241416931,3,1.2770166397094727,None,,,,,,,,,,,,,,,,,,67,3,2025-02-21_09h41.17.138,comp,2024.2.4,60.15823020831541,2025-02-21 09h57.43.472175 -0500,
117,117,0,critical,whd,35.0,2.1,lower,57.0,133.0,133.0,57.0,70.0,70.0,2,0.9926693439483643,None,,,,,0,0,0,0,0,117,117,12,309.49375319480896,,,,,,,,,,,,,,,,,,,,,,,,,,,,,,,,,,,,,,,,,,,,,,,,,,,,,,,,,,,,,,,,,,,,,,,,,,,,,,,,,57.0,133.0,133.0,57.0,70.0,70.0,2.1,2.12,-191,-262,0,-263,160,269,309.478910446167,309.4789493083954,309.48098516464233,309.49375319480896,309.64345693588257,309.64345693588257,309.64345693588257,309.64345693588257,309.64345693588257,309.64345693588257,309.64345693588257,310.4944932460785,2,0.9926693439483643,None,,,,,,,,,,,,,,,,,,67,3,2025-02-21_09h41.17.138,comp,2024.2.4,60.15823020831541,2025-02-21 09h57.43.472175 -0500,
118,118,0,critical,hwd,35.0,4.0,lower,133.0,57.0,57.0,133.0,70.0,70.0,2,0.8081974983215332,None,,,,,0,0,0,0,0,118,118,100,310.5101592540741,,,,,,,,,,,,,,,,,,,,,,,,,,,,,,,,,,,,,,,,,,,,,,,,,,,,,,,,,,,,,,,,,,,,,,,,,,,,,,,,,133.0,57.0,57.0,133.0,70.0,70.0,4.0,4.1,-191,-261,0,-1,198,-273,310.49524116516113,310.49527978897095,310.49773263931274,310.5101592540741,310.66020798683167,310.66020798683167,310.66020798683167,310.66020798683167,310.66020798683167,310.66020798683167,310.66020798683167,311.3285162448883,2,0.8081974983215332,None,,,,,,,,,,,,,,,,,,67,3,2025-02-21_09h41.17.138,comp,2024.2.4,60.15823020831541,2025-02-21 09h57.43.472175 -0500,
119,119,0,filler_square,None,None,None,None,None,None,None,None,None,None,1,0.9100103378295898,None,,,,,0,0,0,0,0,119,119,195,311.3602771759033,,,,,,,,,,,,,,,,,,,,,,,,,,,,,,,,,,,,,,,,,,,,,,,,,,,,,,,,,,,,,,,,,,,,,,,,,,,,,,,,,192.90628042475328,192.90628042475328,149.07528976466773,123.03199846900529,172.6034494448758,171.08562469975857,3.0,3.2,-254,-269,0,-11,243,261,311.32943391799927,311.3294770717621,311.33155608177185,311.3602771759033,311.4938259124756,311.4938259124756,311.4938259124756,311.4938259124756,311.4938259124756,311.4938259124756,311.4938259124756,312.27812671661377,1,0.9100103378295898,None,,,,,,,,,,,,,,,,,,67,3,2025-02-21_09h41.17.138,comp,2024.2.4,60.15823020831541,2025-02-21 09h57.43.472175 -0500,
120,120,0,critical,dwh,35.0,3.0,upper,127.0,127.0,125.0,200.0,200.0,125.0,2,0.9607505798339844,None,,,,,0,0,0,0,0,120,120,63,312.29353189468384,,,,,,,,,,,,,,,,,,,,,,,,,,,,,,,,,,,,,,,,,,,,,,,,,,,,,,,,,,,,,,,,,,,,,,,,,,,,,,,,,127.0,127.0,125.0,200.0,200.0,125.0,3.0,3.2,-260,-289,0,-17,258,268,312.2790791988373,312.27911829948425,312.28124618530273,312.29353189468384,312.443541765213,312.443541765213,312.443541765213,312.443541765213,312.443541765213,312.443541765213,312.443541765213,313.2614965438843,2,0.9607505798339844,None,,,,,,,,,,,,,,,,,,67,3,2025-02-21_09h41.17.138,comp,2024.2.4,60.15823020831541,2025-02-21 09h57.43.472175 -0500,
121,121,0,filler_random,None,None,None,None,None,None,None,None,None,None,3,0.9843826293945312,None,,,,,0,0,0,0,0,121,121,167,313.2770502567291,,,,,,,,,,,,,,,,,,,,,,,,,,,,,,,,,,,,,,,,,,,,,,,,,,,,,,,,,,,,,,,,,,,,,,,,,,,,,,,,,86.65894336846637,101.54975986509507,173.35328318067678,117.41530390439945,197.5815167097593,171.4829929426029,2.2,2.21,-205,-257,0,272,240,251,313.26239347457886,313.2624328136444,313.2654855251312,313.2770502567291,313.4270911216736,313.4270911216736,313.4270911216736,313.4270911216736,313.4270911216736,313.4270911216736,313.4270911216736,314.2780349254608,3,0.9843826293945312,None,,,,,,,,,,,,,,,,,,67,3,2025-02-21_09h41.17.138,comp,2024.2.4,60.15823020831541,2025-02-21 09h57.43.472175 -0500,
122,122,0,filler_random,None,None,None,None,None,None,None,None,None,None,3,0.8249835968017578,None,,,,,0,0,0,0,0,122,122,162,314.2932856082916,,,,,,,,,,,,,,,,,,,,,,,,,,,,,,,,,,,,,,,,,,,,,,,,,,,,,,,,,,,,,,,,,,,,,,,,,,,,,,,,,130.13633474239,99.43314637592201,70.55604706070874,147.63277668333143,82.96363329497109,192.61746228185132,2.2,2.22,-220,271,0,-276,266,-272,314.27894020080566,314.2789809703827,314.2813820838928,314.2932856082916,314.4437551498413,314.4437551498413,314.4437551498413,314.4437551498413,314.4437551498413,314.4437551498413,314.4437551498413,315.12784910202026,3,0.8249835968017578,None,,,,,,,,,,,,,,,,,,67,3,2025-02-21_09h41.17.138,comp,2024.2.4,60.15823020831541,2025-02-21 09h57.43.472175 -0500,
123,123,0,filler_square,None,None,None,None,None,None,None,None,None,None,2,0.8484530448913574,None,,,,,0,0,0,0,0,123,123,185,315.1435058116913,,,,,,,,,,,,,,,,,,,,,,,,,,,,,,,,,,,,,,,,,,,,,,,,,,,,,,,,,,,,,,,,,,,,,,,,,,,,,,,,,114.27643853275875,103.13127310969584,75.51014756416369,103.47290586033442,124.95798783358927,124.95798783358927,2.1,2.11,-199,286,0,256,210,-254,315.12878608703613,315.12882804870605,315.1308958530426,315.1435058116913,315.29345512390137,315.29345512390137,315.29345512390137,315.29345512390137,315.29345512390137,315.29345512390137,315.29345512390137,315.9951763153076,2,0.8484530448913574,None,,,,,,,,,,,,,,,,,,67,3,2025-02-21_09h41.17.138,comp,2024.2.4,60.15823020831541,2025-02-21 09h57.43.472175 -0500,
124,124,0,critical,wdh,35.0,4.0,lower,57.0,133.0,70.0,70.0,133.0,57.0,3,1.1877412796020508,None,,,,,0,0,0,0,0,124,124,76,316.01040601730347,,,,,,,,,,,,,,,,,,,,,,,,,,,,,,,,,,,,,,,,,,,,,,,,,,,,,,,,,,,,,,,,,,,,,,,,,,,,,,,,,57.0,133.0,70.0,70.0,133.0,57.0,4.0,4.1,-198,-267,0,18,160,-271,315.9959993362427,315.99604201316833,315.9979841709137,316.01040601730347,316.16011142730713,316.16011142730713,316.16011142730713,316.16011142730713,316.16011142730713,316.16011142730713,316.16011142730713,317.2111220359802,3,1.1877412796020508,None,,,,,,,,,,,,,,,,,,67,3,2025-02-21_09h41.17.138,comp,2024.2.4,60.15823020831541,2025-02-21 09h57.43.472175 -0500,
125,125,0,critical,hwd,20.0,2.1,lower,133.0,57.0,57.0,133.0,78.0,78.0,2,1.2349236011505127,None,,,,,0,0,0,0,0,125,125,42,317.22656297683716,,,,,,,,,,,,,,,,,,,,,,,,,,,,,,,,,,,,,,,,,,,,,,,,,,,,,,,,,,,,,,,,,,,,,,,,,,,,,,,,,133.0,57.0,57.0,133.0,78.0,78.0,2.1,2.12,-191,-285,0,-278,202,258,317.21190190315247,317.2119417190552,317.21430802345276,317.22656297683716,317.37680292129517,317.37680292129517,317.37680292129517,317.37680292129517,317.37680292129517,317.37680292129517,317.37680292129517,318.47783064842224,2,1.2349236011505127,None,,,,,,,,,,,,,,,,,,67,3,2025-02-21_09h41.17.138,comp,2024.2.4,60.15823020831541,2025-02-21 09h57.43.472175 -0500,
126,126,0,critical,dwh,20.0,2.1,upper,141.0,141.0,125.0,200.0,200.0,125.0,2,0.7929894924163818,None,,,,,0,0,0,0,0,126,126,7,318.493182182312,,,,,,,,,,,,,,,,,,,,,,,,,,,,,,,,,,,,,,,,,,,,,,,,,,,,,,,,,,,,,,,,,,,,,,,,,,,,,,,,,141.0,141.0,125.0,200.0,200.0,125.0,2.1,2.12,-266,-287,0,-259,258,270,318.47860074043274,318.47864031791687,318.4808831214905,318.493182182312,318.64368438720703,318.64368438720703,318.64368438720703,318.64368438720703,318.64368438720703,318.64368438720703,318.64368438720703,319.29478001594543,2,0.7929894924163818,None,,,,,,,,,,,,,,,,,,67,3,2025-02-21_09h41.17.138,comp,2024.2.4,60.15823020831541,2025-02-21 09h57.43.472175 -0500,
127,127,0,filler_random,None,None,None,None,None,None,None,None,None,None,2,0.727971076965332,None,,,,,0,0,0,0,0,127,127,133,319.3101921081543,,,,,,,,,,,,,,,,,,,,,,,,,,,,,,,,,,,,,,,,,,,,,,,,,,,,,,,,,,,,,,,,,,,,,,,,,,,,,,,,,97.04944479402064,108.41329578999243,194.68180052142517,182.83784640704584,122.17408732813688,135.98548208386265,1.0,1.1,-722,256,-480,268,-225,281,319.2956614494324,319.29570293426514,319.2977337837219,319.3101921081543,319.46051049232483,319.46051049232483,319.46051049232483,319.46051049232483,319.46051049232483,319.46051049232483,319.46051049232483,320.04470586776733,2,0.727971076965332,None,,,,,,,,,,,,,,,,,,67,3,2025-02-21_09h41.17.138,comp,2024.2.4,60.15823020831541,2025-02-21 09h57.43.472175 -0500,
128,128,0,critical,dwh,35.0,3.0,lower,70.0,70.0,57.0,133.0,133.0,57.0,2,0.8834314346313477,None,,,,,0,0,0,0,0,128,128,62,320.0601375102997,,,,,,,,,,,,,,,,,,,,,,,,,,,,,,,,,,,,,,,,,,,,,,,,,,,,,,,,,,,,,,,,,,,,,,,,,,,,,,,,,70.0,70.0,57.0,133.0,133.0,57.0,3.0,3.1,-198,273,0,-3,191,-258,320.0455131530762,320.04555439949036,320.0475890636444,320.0601375102997,320.2100760936737,320.2100760936737,320.2100760936737,320.2100760936737,320.2100760936737,320.2100760936737,320.2100760936737,320.94493103027344,2,0.8834314346313477,None,,,,,,,,,,,,,,,,,,67,3,2025-02-21_09h41.17.138,comp,2024.2.4,60.15823020831541,2025-02-21 09h57.43.472175 -0500,
129,129,0,critical,hwd,35.0,2.1,lower,133.0,57.0,57.0,133.0,70.0,70.0,2,2.2469418048858643,None,,,,,0,0,0,0,0,129,129,16,320.96026134490967,,,,,,,,,,,,,,,,,,,,,,,,,,,,,,,,,,,,,,,,,,,,,,,,,,,,,,,,,,,,,,,,,,,,,,,,,,,,,,,,,133.0,57.0,57.0,133.0,70.0,70.0,2.1,2.12,-191,-255,0,-282,198,267,320.9457252025604,320.94577860832214,320.9478425979614,320.96026134490967,321.11005115509033,321.11005115509033,321.11005115509033,321.11005115509033,321.11005115509033,321.11005115509033,321.11005115509033,323.21132040023804,2,2.2469418048858643,None,,,,,,,,,,,,,,,,,,67,3,2025-02-21_09h41.17.138,comp,2024.2.4,60.15823020831541,2025-02-21 09h57.43.472175 -0500,
130,130,0,filler_square,None,None,None,None,None,None,None,None,None,None,1,1.0913100242614746,None,,,,,0,0,0,0,0,130,130,175,323.2268660068512,,,,,,,,,,,,,,,,,,,,,,,,,,,,,,,,,,,,,,,,,,,,,,,,,,,,,,,,,,,,,,,,,,,,,,,,,,,,,,,,,149.7066051214269,149.7066051214269,101.74695312255454,122.15349144171174,114.77192210880993,57.78955268450072,4.0,4.2,-232,-18,0,-266,186,-2,323.2122313976288,323.2122712135315,323.2142639160156,323.2268660068512,323.3767464160919,323.3767464160919,323.3767464160919,323.3767464160919,323.3767464160919,323.3767464160919,323.3767464160919,324.3281936645508,1,1.0913100242614746,None,,,,,,,,,,,,,,,,,,67,3,2025-02-21_09h41.17.138,comp,2024.2.4,60.15823020831541,2025-02-21 09h57.43.472175 -0500,
131,131,0,filler_square,None,None,None,None,None,None,None,None,None,None,3,1.0857594013214111,None,,,,,0,0,0,0,0,131,131,201,324.34364795684814,,,,,,,,,,,,,,,,,,,,,,,,,,,,,,,,,,,,,,,,,,,,,,,,,,,,,,,,,,,,,,,,,,,,,,,,,,,,,,,,,125.12948111689224,148.1159889336884,118.81720264375679,162.1818569145917,169.29656996501004,169.29656996501004,4.0,4.1,-251,-272,0,16,262,-281,324.3291494846344,324.3291902542114,324.33126521110535,324.34364795684814,324.4935345649719,324.4935345649719,324.4935345649719,324.4935345649719,324.4935345649719,324.4935345649719,324.4935345649719,325.4447169303894,3,1.0857594013214111,None,,,,,,,,,,,,,,,,,,67,3,2025-02-21_09h41.17.138,comp,2024.2.4,60.15823020831541,2025-02-21 09h57.43.472175 -0500,
132,132,0,critical,dwh,20.0,4.0,lower,78.0,78.0,57.0,133.0,133.0,57.0,2,0.9622101783752441,None,,,,,0,0,0,0,0,132,132,70,325.4599313735962,,,,,,,,,,,,,,,,,,,,,,,,,,,,,,,,,,,,,,,,,,,,,,,,,,,,,,,,,,,,,,,,,,,,,,,,,,,,,,,,,78.0,78.0,57.0,133.0,133.0,57.0,4.0,4.1,-202,-268,0,16,191,-251,325.4455292224884,325.4455683231354,325.44874334335327,325.4599313735962,325.6099967956543,325.6099967956543,325.6099967956543,325.6099967956543,325.6099967956543,325.6099967956543,325.6099967956543,326.4277312755585,2,0.9622101783752441,None,,,,,,,,,,,,,,,,,,67,3,2025-02-21_09h41.17.138,comp,2024.2.4,60.15823020831541,2025-02-21 09h57.43.472175 -0500,
133,133,0,filler_square,None,None,None,None,None,None,None,None,None,None,3,1.0668063163757324,None,,,,,0,0,0,0,0,133,133,203,326.4434630870819,,,,,,,,,,,,,,,,,,,,,,,,,,,,,,,,,,,,,,,,,,,,,,,,,,,,,,,,,,,,,,,,,,,,,,,,,,,,,,,,,84.45251884774845,87.50791807397354,63.65165694736785,75.7899279725055,95.37232770233729,95.37232770233729,1.0,1.2,-178,-1,0,9,182,-9,326.4286539554596,326.42869448661804,326.4307351112366,326.4434630870819,326.5932991504669,326.5932991504669,326.5932991504669,326.5932991504669,326.5932991504669,326.5932991504669,326.5932991504669,327.5114130973816,3,1.0668063163757324,None,,,,,,,,,,,,,,,,,,67,3,2025-02-21_09h41.17.138,comp,2024.2.4,60.15823020831541,2025-02-21 09h57.43.472175 -0500,
134,134,0,critical,dhw,35.0,1.0,lower,70.0,70.0,133.0,57.0,57.0,133.0,2,1.5027589797973633,None,,,,,0,0,0,0,0,134,134,48,327.526752948761,,,,,,,,,,,,,,,,,,,,,,,,,,,,,,,,,,,,,,,,,,,,,,,,,,,,,,,,,,,,,,,,,,,,,,,,,,,,,,,,,70.0,70.0,133.0,57.0,57.0,133.0,1.0,1.3,320,-267,480,-261,671,-279,327.5122413635254,327.51228046417236,327.51438093185425,327.526752948761,327.6770544052124,327.6770544052124,327.6770544052124,327.6770544052124,327.6770544052124,327.6770544052124,327.6770544052124,329.0443890094757,2,1.5027589797973633,None,,,,,,,,,,,,,,,,,,67,3,2025-02-21_09h41.17.138,comp,2024.2.4,60.15823020831541,2025-02-21 09h57.43.472175 -0500,
135,135,0,filler_square,None,None,None,None,None,None,None,None,None,None,3,1.0503475666046143,None,,,,,0,0,0,0,0,135,135,184,329.0599241256714,,,,,,,,,,,,,,,,,,,,,,,,,,,,,,,,,,,,,,,,,,,,,,,,,,,,,,,,,,,,,,,,,,,,,,,,,,,,,,,,,132.19962331579438,57.27291927541882,77.66089735022105,71.54034447495272,142.75342786620268,142.75342786620268,3.0,3.2,-160,-264,0,16,203,263,329.0453293323517,329.0453691482544,329.04786467552185,329.0599241256714,329.2099611759186,329.2099611759186,329.2099611759186,329.2099611759186,329.2099611759186,329.2099611759186,329.2099611759186,330.1277334690094,3,1.0503475666046143,None,,,,,,,,,,,,,,,,,,67,3,2025-02-21_09h41.17.138,comp,2024.2.4,60.15823020831541,2025-02-21 09h57.43.472175 -0500,
136,136,0,filler_square,None,None,None,None,None,None,None,None,None,None,2,1.0948853492736816,None,,,,,0,0,0,0,0,136,136,209,330.1432147026062,,,,,,,,,,,,,,,,,,,,,,,,,,,,,,,,,,,,,,,,,,,,,,,,,,,,,,,,,,,,,,,,,,,,,,,,,,,,,,,,,157.72981587094495,157.72981587094495,117.69915819242902,156.83508061088307,86.61454275397453,85.24421517486412,2.2,2.22,-253,267,0,-270,217,-252,330.1286895275116,330.1287314891815,330.131055355072,330.1432147026062,330.2934784889221,330.2934784889221,330.2934784889221,330.2934784889221,330.2934784889221,330.2934784889221,330.2934784889221,331.24455547332764,2,1.0948853492736816,None,,,,,,,,,,,,,,,,,,67,3,2025-02-21_09h41.17.138,comp,2024.2.4,60.15823020831541,2025-02-21 09h57.43.472175 -0500,
137,137,0,critical,whd,20.0,2.1,upper,125.0,200.0,200.0,125.0,141.0,141.0,2,3.2338759899139404,None,,,,,0,0,0,0,0,137,137,15,331.2600932121277,,,,,,,,,,,,,,,,,,,,,,,,,,,,,,,,,,,,,,,,,,,,,,,,,,,,,,,,,,,,,,,,,,,,,,,,,,,,,,,,,125.0,200.0,200.0,125.0,141.0,141.0,2.1,2.12,-258,-262,0,-256,229,288,331.2453513145447,331.2453908920288,331.24806094169617,331.2600932121277,331.4101321697235,331.4101321697235,331.4101321697235,331.4101321697235,331.4101321697235,331.4101321697235,331.4101321697235,334.5113260746002,2,3.2338759899139404,None,,,,,,,,,,,,,,,,,,67,3,2025-02-21_09h41.17.138,comp,2024.2.4,60.15823020831541,2025-02-21 09h57.43.472175 -0500,
138,138,0,critical,whd,35.0,1.0,upper,125.0,200.0,200.0,125.0,127.0,127.0,2,0.8169722557067871,None,,,,,0,0,0,0,0,138,138,85,334.5265734195709,,,,,,,,,,,,,,,,,,,,,,,,,,,,,,,,,,,,,,,,,,,,,,,,,,,,,,,,,,,,,,,,,,,,,,,,,,,,,,,,,125.0,200.0,200.0,125.0,127.0,127.0,1.0,1.1,-738,257,-480,263,-258,278,334.512113571167,334.512154340744,334.5145254135132,334.5265734195709,334.67682909965515,334.67682909965515,334.67682909965515,334.67682909965515,334.67682909965515,334.67682909965515,334.67682909965515,335.3613295555115,2,0.8169722557067871,None,,,,,,,,,,,,,,,,,,67,3,2025-02-21_09h41.17.138,comp,2024.2.4,60.15823020831541,2025-02-21 09h57.43.472175 -0500,
139,139,0,filler_square,None,None,None,None,None,None,None,None,None,None,2,1.9173004627227783,None,,,,,0,0,0,0,0,139,139,191,335.37656807899475,,,,,,,,,,,,,,,,,,,,,,,,,,,,,,,,,,,,,,,,,,,,,,,,,,,,,,,,,,,,,,,,,,,,,,,,,,,,,,,,,78.43266754448024,128.78491516688447,128.9057189223601,128.9057189223601,83.95345348516513,100.79761749764063,2.1,2.12,-225,-259,0,-276,211,284,335.3622751235962,335.3623151779175,335.36471462249756,335.37656807899475,335.52670788764954,335.52670788764954,335.52670788764954,335.52670788764954,335.52670788764954,335.52670788764954,335.52670788764954,337.3112154006958,2,1.9173004627227783,None,,,,,,,,,,,,,,,,,,67,3,2025-02-21_09h41.17.138,comp,2024.2.4,60.15823020831541,2025-02-21 09h57.43.472175 -0500,
