thisN,thisTrialN,thisRepN,effect,order,distance,config,diag,h_1,w_1,h_2,w_2,h_3,w_3,rect_choice.keys,rect_choice.rt,rect_choice.duration,instructions_loop.thisRepN,instructions_loop.thisTrialN,instructions_loop.thisN,instructions_loop.thisIndex,blocks.thisRepN,blocks.thisTrialN,blocks.thisN,blocks.thisIndex,trials.thisRepN,trials.thisTrialN,trials.thisN,trials.thisIndex,thisRow.t,notes,consent.started,agree_button.started,decline_button.started,consent_img.started,mouse.started,consent.stopped,agree_button.numClicks,agree_button.timesOn,agree_button.timesOff,decline_button.numClicks,decline_button.timesOn,decline_button.timesOff,mouse.x,mouse.y,mouse.leftButton,mouse.midButton,mouse.rightButton,mouse.time,mouse.clicked_name,exp_params.started,exp_params.stopped,welcome.started,welcome_text.started,welcome.stopped,instructions_1.started,instructions_1_text_1.started,instructions_1_text_2.started,key_resp.started,instructions_1.stopped,instructions_loop.key_resp.keys,instructions_loop.key_resp.rt,instructions_loop.key_resp.duration,instructions_2.started,instructions_2_text_1.started,instructions_2_text_2.started,key_resp_2.started,instructions_2.stopped,instructions_loop.key_resp_2.keys,instructions_loop.key_resp_2.rt,instructions_loop.key_resp_2.duration,instructions_3.started,instructions_3_text_1.started,r1_instr3.started,r2_instr3.started,r3_instr3.started,r1_instr3_label.started,r2_instr3_label.started,r3_instr3_label.started,instructions_3_text_3.started,instructions_3_text_4.started,key_resp_3.started,instructions_3.stopped,instructions_loop.key_resp_3.keys,instructions_loop.key_resp_3.rt,instructions_loop.key_resp_3.duration,instructions_4.started,instructions_4_text_1.started,instructions_4_text_3.started,instructions_4_text_2.started,key_resp_4.started,instructions_4.stopped,instructions_loop.key_resp_4.keys,instructions_loop.key_resp_4.rt,instructions_loop.key_resp_4.duration,instructions_5.started,instructions_5_text_1.started,instructions_5_text_2.started,key_resp_5.started,instructions_5.stopped,instructions_loop.key_resp_5.keys,instructions_loop.key_resp_5.rt,instructions_loop.key_resp_5.duration,start_exp.started,start_exp_text.started,key_resp_6.started,start_exp.stopped,key_resp_6.keys,key_resp_6.rt,key_resp_6.duration,h_1_tmp,w_1_tmp,h_2_tmp,w_2_tmp,h_3_tmp,w_3_tmp,config_tmp,config_tmp_1,r_1_x,r_1_y,r_2_x,r_2_y,r_3_x,r_3_y,pre_trial.started,pre_trial.stopped,choice_trial.started,rect_choice.started,r_1.started,r_2.started,r_3.started,r_1_label.started,r_2_label.started,r_3_label.started,prompt.started,choice_trial.stopped,trials.rect_choice.keys,trials.rect_choice.rt,trials.rect_choice.duration,end_block.started,end_block_text.started,end_block.stopped,end.started,end_text.started,key_resp_7.started,end.stopped,key_resp_7.keys,key_resp_7.rt,key_resp_7.duration,debriefing.started,debrief_form.started,end_debrief.started,debriefing.stopped,end_debrief.keys,end_debrief.rt,end_debrief.duration,participant,computer,date,expName,psychopyVersion,frameRate,expStart,
,,,,,,,,,,,,,,,,,,,,,,,,,,,,,,,0.014766216278076172,0.03894639015197754,0.03894639015197754,0.03894639015197754,0.014567136764526367,31.4591646194458,1,[31.417640447616577],[31.417661905288696],0,,,[-82.0],[-499.0],[1],[0],[0],[31.444011926651],['agree_button'],,,,,,,,,,,,,,,,,,,,,,,,,,,,,,,,,,,,,,,,,,,,,,,,,,,,,,,,,,,,,,,,,,,,,,,,,,,,,,,,,,,,,,,,,,,,,,,,,,,,,,,,,,,68,4,2025-02-21_09h42.05.055,comp,2024.2.4,None,2025-02-21 09h59.44.947135 -0500,
,,,,,,,,,,,,,,,,,,,,,,,,,,,,,,,,,,,,,,,,,,,,,,,,,,31.45965600013733,31.459715604782104,,,,,,,,,,,,,,,,,,,,,,,,,,,,,,,,,,,,,,,,,,,,,,,,,,,,,,,,,,,,,,,,,,,,,,,,,,,,,,,,,,,,,,,,,,,,,,,,,,,,,,,,,68,4,2025-02-21_09h42.05.055,comp,2024.2.4,None,2025-02-21 09h59.44.947135 -0500,
,,,,,,,,,,,,,,,,,,,,,,,,,,,,,,,,,,,,,,,,,,,,,,,,,,,,31.459776639938354,31.477097034454346,33.47003436088562,,,,,,,,,,,,,,,,,,,,,,,,,,,,,,,,,,,,,,,,,,,,,,,,,,,,,,,,,,,,,,,,,,,,,,,,,,,,,,,,,,,,,,,,,,,,,,,,,,,,,,68,4,2025-02-21_09h42.05.055,comp,2024.2.4,None,2025-02-21 09h59.44.947135 -0500,
0,0,0,,,,,,,,,,,,,,,0,0,0,0,,,,,,,,,33.48416066169739,,,,,,,,,,,,,,,,,,,,,,,,,,33.47093176841736,33.48416066169739,33.48416066169739,34.97071886062622,39.57367563247681,space,4.597573280334473,None,39.5738730430603,39.58996033668518,39.58996033668518,41.08582544326782,46.647133350372314,space,5.546015501022339,None,46.64729428291321,46.67884159088135,46.67884159088135,46.67884159088135,46.67884159088135,46.67884159088135,46.67884159088135,46.67884159088135,46.67884159088135,46.67884159088135,48.15208029747009,55.14213490486145,space,6.984889268875122,None,55.142303228378296,55.15850043296814,55.15850043296814,55.15850043296814,56.644850969314575,63.61497354507446,space,6.963400602340698,None,63.61512589454651,63.6306574344635,63.6306574344635,65.13250589370728,65.67283153533936,space,0.531397819519043,None,65.6730306148529,65.68841218948364,65.68841218948364,67.04696297645569,space,1.3525400161743164,None,,,,,,,,,,,,,,,,,,,,,,,,,,,,,,,,,,,,,,,,,,,,,,,68,4,2025-02-21_09h42.05.055,comp,2024.2.4,None,2025-02-21 09h59.44.947135 -0500,
0,0,0,critical,whd,20.0,1.0,upper,125.0,200.0,200.0,125.0,141.0,141.0,1,12.51200819015503,None,,,,,0,0,0,0,0,0,0,91,67.12833404541016,,,,,,,,,,,,,,,,,,,,,,,,,,,,,,,,,,,,,,,,,,,,,,,,,,,,,,,,,,,,,,,,,,,,,,,,,,,,,,,,,125.0,200.0,200.0,125.0,141.0,141.0,1.0,1.3,222,-267,480,-265,709,-260,67.11193251609802,67.11196613311768,67.1129846572876,67.12833404541016,67.28217029571533,67.28217029571533,67.28217029571533,67.28217029571533,67.28217029571533,67.28217029571533,67.28217029571533,79.64870548248291,1,12.51200819015503,None,,,,,,,,,,,,,,,,,,68,4,2025-02-21_09h42.05.055,comp,2024.2.4,None,2025-02-21 09h59.44.947135 -0500,
1,1,0,critical,dhw,20.0,2.1,upper,141.0,141.0,200.0,125.0,125.0,200.0,3,3.2009191513061523,None,,,,,0,0,0,0,0,1,1,27,79.66299390792847,,,,,,,,,,,,,,,,,,,,,,,,,,,,,,,,,,,,,,,,,,,,,,,,,,,,,,,,,,,,,,,,,,,,,,,,,,,,,,,,,141.0,141.0,200.0,125.0,125.0,200.0,2.1,2.12,-229,-275,0,-258,258,274,79.65013790130615,79.65018486976624,79.65243864059448,79.66299390792847,79.8037269115448,79.8037269115448,79.8037269115448,79.8037269115448,79.8037269115448,79.8037269115448,79.8037269115448,82.87682366371155,3,3.2009191513061523,None,,,,,,,,,,,,,,,,,,68,4,2025-02-21_09h42.05.055,comp,2024.2.4,None,2025-02-21 09h59.44.947135 -0500,
2,2,0,filler_square,None,None,None,None,None,None,None,None,None,None,1,2.3542239665985107,None,,,,,0,0,0,0,0,2,2,198,82.89415454864502,,,,,,,,,,,,,,,,,,,,,,,,,,,,,,,,,,,,,,,,,,,,,,,,,,,,,,,,,,,,,,,,,,,,,,,,,,,,,,,,,131.7899860430377,131.7899860430377,84.64087314653811,122.14811613732951,61.54350842030537,59.13529714897108,2.1,2.12,-223,-290,0,-259,187,289,82.87860536575317,82.87876009941101,82.88232135772705,82.89415454864502,83.03757905960083,83.03757905960083,83.03757905960083,83.03757905960083,83.03757905960083,83.03757905960083,83.03757905960083,85.25822496414185,1,2.3542239665985107,None,,,,,,,,,,,,,,,,,,68,4,2025-02-21_09h42.05.055,comp,2024.2.4,None,2025-02-21 09h59.44.947135 -0500,
3,3,0,critical,dwh,35.0,1.0,upper,127.0,127.0,125.0,200.0,200.0,125.0,2,2.799670457839966,None,,,,,0,0,0,0,0,3,3,61,85.29709696769714,,,,,,,,,,,,,,,,,,,,,,,,,,,,,,,,,,,,,,,,,,,,,,,,,,,,,,,,,,,,,,,,,,,,,,,,,,,,,,,,,127.0,127.0,125.0,200.0,200.0,125.0,1.0,1.3,220,-269,480,-271,738,-253,85.25987243652344,85.25996398925781,85.26380014419556,85.29709696769714,85.42243957519531,85.42243957519531,85.42243957519531,85.42243957519531,85.42243957519531,85.42243957519531,85.42243957519531,88.10365200042725,2,2.799670457839966,None,,,,,,,,,,,,,,,,,,68,4,2025-02-21_09h42.05.055,comp,2024.2.4,None,2025-02-21 09h59.44.947135 -0500,
4,4,0,filler_random,None,None,None,None,None,None,None,None,None,None,2,4.135130167007446,None,,,,,0,0,0,0,0,4,4,131,88.12077498435974,,,,,,,,,,,,,,,,,,,,,,,,,,,,,,,,,,,,,,,,,,,,,,,,,,,,,,,,,,,,,,,,,,,,,,,,,,,,,,,,,89.94398511219909,126.39293427798877,178.78096263137746,65.04780309935252,131.0508674262299,89.80984701773693,4.0,4.2,-192,-2,0,-278,173,17,88.10549330711365,88.1056272983551,88.10926747322083,88.12077498435974,88.26837754249573,88.26837754249573,88.26837754249573,88.26837754249573,88.26837754249573,88.26837754249573,88.26837754249573,92.2728180885315,2,4.135130167007446,None,,,,,,,,,,,,,,,,,,68,4,2025-02-21_09h42.05.055,comp,2024.2.4,None,2025-02-21 09h59.44.947135 -0500,
5,5,0,critical,whd,35.0,3.0,lower,57.0,133.0,133.0,57.0,70.0,70.0,2,5.566125154495239,None,,,,,0,0,0,0,0,5,5,86,92.28987836837769,,,,,,,,,,,,,,,,,,,,,,,,,,,,,,,,,,,,,,,,,,,,,,,,,,,,,,,,,,,,,,,,,,,,,,,,,,,,,,,,,57.0,133.0,133.0,57.0,70.0,70.0,3.0,3.2,-191,-262,0,-19,160,283,92.27432775497437,92.27440476417542,92.27801704406738,92.28987836837769,92.44134879112244,92.44134879112244,92.44134879112244,92.44134879112244,92.44134879112244,92.44134879112244,92.44134879112244,97.86743307113647,2,5.566125154495239,None,,,,,,,,,,,,,,,,,,68,4,2025-02-21_09h42.05.055,comp,2024.2.4,None,2025-02-21 09h59.44.947135 -0500,
6,6,0,critical,wdh,35.0,2.1,upper,125.0,200.0,127.0,127.0,200.0,125.0,1,6.304699182510376,None,,,,,0,0,0,0,0,6,6,9,97.88757419586182,,,,,,,,,,,,,,,,,,,,,,,,,,,,,,,,,,,,,,,,,,,,,,,,,,,,,,,,,,,,,,,,,,,,,,,,,,,,,,,,,125.0,200.0,127.0,127.0,200.0,125.0,2.1,2.12,-260,-253,0,-252,222,275,97.86901068687439,97.86908745765686,97.87234616279602,97.88757419586182,98.02600860595703,98.02600860595703,98.02600860595703,98.02600860595703,98.02600860595703,98.02600860595703,98.02600860595703,104.19499158859253,1,6.304699182510376,None,,,,,,,,,,,,,,,,,,68,4,2025-02-21_09h42.05.055,comp,2024.2.4,None,2025-02-21 09h59.44.947135 -0500,
7,7,0,critical,dhw,35.0,3.0,upper,127.0,127.0,200.0,125.0,125.0,200.0,3,3.1558477878570557,None,,,,,0,0,0,0,0,7,7,51,104.21235084533691,,,,,,,,,,,,,,,,,,,,,,,,,,,,,,,,,,,,,,,,,,,,,,,,,,,,,,,,,,,,,,,,,,,,,,,,,,,,,,,,,127.0,127.0,200.0,125.0,125.0,200.0,3.0,3.2,-222,-259,0,-9,258,267,104.19652700424194,104.19660592079163,104.20011520385742,104.21235084533691,104.36490631103516,104.36490631103516,104.36490631103516,104.36490631103516,104.36490631103516,104.36490631103516,104.36490631103516,107.37409234046936,3,3.1558477878570557,None,,,,,,,,,,,,,,,,,,68,4,2025-02-21_09h42.05.055,comp,2024.2.4,None,2025-02-21 09h59.44.947135 -0500,
8,8,0,critical,dhw,20.0,4.0,upper,141.0,141.0,200.0,125.0,125.0,200.0,2,2.6016013622283936,None,,,,,0,0,0,0,0,8,8,59,107.3910219669342,,,,,,,,,,,,,,,,,,,,,,,,,,,,,,,,,,,,,,,,,,,,,,,,,,,,,,,,,,,,,,,,,,,,,,,,,,,,,,,,,141.0,141.0,200.0,125.0,125.0,200.0,4.0,4.2,-229,-14,0,-253,258,5,107.37570190429688,107.37587547302246,107.37948608398438,107.3910219669342,107.54347491264343,107.54347491264343,107.54347491264343,107.54347491264343,107.54347491264343,107.54347491264343,107.54347491264343,109.99806046485901,2,2.6016013622283936,None,,,,,,,,,,,,,,,,,,68,4,2025-02-21_09h42.05.055,comp,2024.2.4,None,2025-02-21 09h59.44.947135 -0500,
9,9,0,filler_random,None,None,None,None,None,None,None,None,None,None,2,1.8810300827026367,None,,,,,0,0,0,0,0,9,9,152,110.01548862457275,,,,,,,,,,,,,,,,,,,,,,,,,,,,,,,,,,,,,,,,,,,,,,,,,,,,,,,,,,,,,,,,,,,,,,,,,,,,,,,,,134.0431335991766,146.39367560451637,173.5856221357106,148.56603823121634,143.85749908605436,98.21268091872409,2.1,2.12,-243,-274,0,-266,219,288,109.99995851516724,110.00009560585022,110.00371408462524,110.01548862457275,110.16004753112793,110.16004753112793,110.16004753112793,110.16004753112793,110.16004753112793,110.16004753112793,110.16004753112793,111.90375876426697,2,1.8810300827026367,None,,,,,,,,,,,,,,,,,,68,4,2025-02-21_09h42.05.055,comp,2024.2.4,None,2025-02-21 09h59.44.947135 -0500,
10,10,0,critical,hdw,35.0,4.0,lower,133.0,57.0,70.0,70.0,57.0,133.0,1,3.9470303058624268,None,,,,,0,0,0,0,0,10,10,112,111.92498564720154,,,,,,,,,,,,,,,,,,,,,,,,,,,,,,,,,,,,,,,,,,,,,,,,,,,,,,,,,,,,,,,,,,,,,,,,,,,,,,,,,133.0,57.0,70.0,70.0,57.0,133.0,4.0,4.1,-160,-272,0,-20,198,-278,111.9053943157196,111.90550827980042,111.9091444015503,111.92498564720154,112.06360030174255,112.06360030174255,112.06360030174255,112.06360030174255,112.06360030174255,112.06360030174255,112.06360030174255,115.88518357276917,1,3.9470303058624268,None,,,,,,,,,,,,,,,,,,68,4,2025-02-21_09h42.05.055,comp,2024.2.4,None,2025-02-21 09h59.44.947135 -0500,
11,11,0,filler_random,None,None,None,None,None,None,None,None,None,None,2,6.159401178359985,None,,,,,0,0,0,0,0,11,11,139,115.90463352203369,,,,,,,,,,,,,,,,,,,,,,,,,,,,,,,,,,,,,,,,,,,,,,,,,,,,,,,,,,,,,,,,,,,,,,,,,,,,,,,,,102.95520984657155,150.87038203614225,122.06787826195655,139.31288699180533,63.21383089846842,70.99240058589164,3.0,3.1,-241,277,0,18,201,-256,115.88702034950256,115.88709592819214,115.89036107063293,115.90463352203369,116.04967141151428,116.04967141151428,116.04967141151428,116.04967141151428,116.04967141151428,116.04967141151428,116.04967141151428,122.06639432907104,2,6.159401178359985,None,,,,,,,,,,,,,,,,,,68,4,2025-02-21_09h42.05.055,comp,2024.2.4,None,2025-02-21 09h59.44.947135 -0500,
12,12,0,filler_random,None,None,None,None,None,None,None,None,None,None,1,1.2234649658203125,None,,,,,0,0,0,0,0,12,12,134,122.08880257606506,,,,,,,,,,,,,,,,,,,,,,,,,,,,,,,,,,,,,,,,,,,,,,,,,,,,,,,,,,,,,,,,,,,,,,,,,,,,,,,,,140.26209255936772,194.79219842491585,145.218662473365,69.30571262078668,60.99905733755955,139.99122615547452,2.2,2.22,-228,254,0,-260,201,-286,122.0682954788208,122.06841158866882,122.0724425315857,122.08880257606506,122.23242735862732,122.23242735862732,122.23242735862732,122.23242735862732,122.23242735862732,122.23242735862732,122.23242735862732,123.31434345245361,1,1.2234649658203125,None,,,,,,,,,,,,,,,,,,68,4,2025-02-21_09h42.05.055,comp,2024.2.4,None,2025-02-21 09h59.44.947135 -0500,
13,13,0,critical,dwh,20.0,2.1,upper,141.0,141.0,125.0,200.0,200.0,125.0,2,2.6468403339385986,None,,,,,0,0,0,0,0,13,13,7,123.33103013038635,,,,,,,,,,,,,,,,,,,,,,,,,,,,,,,,,,,,,,,,,,,,,,,,,,,,,,,,,,,,,,,,,,,,,,,,,,,,,,,,,141.0,141.0,125.0,200.0,200.0,125.0,2.1,2.12,-266,-268,0,-259,258,269,123.31592917442322,123.31600785255432,123.31930470466614,123.33103013038635,123.46750164031982,123.46750164031982,123.46750164031982,123.46750164031982,123.46750164031982,123.46750164031982,123.46750164031982,125.984454870224,2,2.6468403339385986,None,,,,,,,,,,,,,,,,,,68,4,2025-02-21_09h42.05.055,comp,2024.2.4,None,2025-02-21 09h59.44.947135 -0500,
14,14,0,critical,wdh,35.0,2.1,lower,57.0,133.0,70.0,70.0,133.0,57.0,1,2.8938870429992676,None,,,,,0,0,0,0,0,14,14,8,126.00249290466309,,,,,,,,,,,,,,,,,,,,,,,,,,,,,,,,,,,,,,,,,,,,,,,,,,,,,,,,,,,,,,,,,,,,,,,,,,,,,,,,,57.0,133.0,70.0,70.0,133.0,57.0,2.1,2.12,-198,-272,0,-273,160,276,125.98600840568542,125.98608303070068,125.98954725265503,126.00249290466309,126.15043926239014,126.15043926239014,126.15043926239014,126.15043926239014,126.15043926239014,126.15043926239014,126.15043926239014,128.9000346660614,1,2.8938870429992676,None,,,,,,,,,,,,,,,,,,68,4,2025-02-21_09h42.05.055,comp,2024.2.4,None,2025-02-21 09h59.44.947135 -0500,
15,15,0,catch,None,None,None,None,None,None,None,None,None,None,3,1.8674333095550537,None,,,,,0,0,0,0,0,15,15,128,128.91731214523315,,,,,,,,,,,,,,,,,,,,,,,,,,,,,,,,,,,,,,,,,,,,,,,,,,,,,,,,,,,,,,,,,,,,,,,,,,,,,,,,,91,99,133,57,197,128,1.0,1.2,-174,-11,0,20,188,6,128.9020290374756,128.9021077156067,128.90557217597961,128.91731214523315,129.06943082809448,129.06943082809448,129.06943082809448,129.06943082809448,129.06943082809448,129.06943082809448,129.06943082809448,130.79126811027527,3,1.8674333095550537,None,,,,,,,,,,,,,,,,,,68,4,2025-02-21_09h42.05.055,comp,2024.2.4,None,2025-02-21 09h59.44.947135 -0500,
16,16,0,critical,hwd,35.0,2.1,lower,133.0,57.0,57.0,133.0,70.0,70.0,2,3.5762827396392822,None,,,,,0,0,0,0,0,16,16,16,130.80791020393372,,,,,,,,,,,,,,,,,,,,,,,,,,,,,,,,,,,,,,,,,,,,,,,,,,,,,,,,,,,,,,,,,,,,,,,,,,,,,,,,,133.0,57.0,57.0,133.0,70.0,70.0,2.1,2.12,-191,-262,0,-269,198,282,130.79286360740662,130.7929413318634,130.79624962806702,130.80791020393372,130.95591735839844,130.95591735839844,130.95591735839844,130.95591735839844,130.95591735839844,130.95591735839844,130.95591735839844,134.40245985984802,2,3.5762827396392822,None,,,,,,,,,,,,,,,,,,68,4,2025-02-21_09h42.05.055,comp,2024.2.4,None,2025-02-21 09h59.44.947135 -0500,
17,17,0,filler_square,None,None,None,None,None,None,None,None,None,None,2,1.6684820652008057,None,,,,,0,0,0,0,0,17,17,185,134.41946005821228,,,,,,,,,,,,,,,,,,,,,,,,,,,,,,,,,,,,,,,,,,,,,,,,,,,,,,,,,,,,,,,,,,,,,,,,,,,,,,,,,134.02835985978743,106.06828440910823,149.96919511111224,149.96919511111224,98.6740716449041,131.90007341174714,2.1,2.12,-224,-284,0,-282,237,261,134.40435552597046,134.40443444252014,134.40821957588196,134.41946005821228,134.5698070526123,134.5698070526123,134.5698070526123,134.5698070526123,134.5698070526123,134.5698070526123,134.5698070526123,136.105153799057,2,1.6684820652008057,None,,,,,,,,,,,,,,,,,,68,4,2025-02-21_09h42.05.055,comp,2024.2.4,None,2025-02-21 09h59.44.947135 -0500,
18,18,0,catch,None,None,None,None,None,None,None,None,None,None,3,1.133058786392212,None,,,,,0,0,0,0,0,18,18,123,136.12310242652893,,,,,,,,,,,,,,,,,,,,,,,,,,,,,,,,,,,,,,,,,,,,,,,,,,,,,,,,,,,,,,,,,,,,,,,,,,,,,,,,,96,94,90,100,132,193,1.0,1.2,-193,-11,0,-8,242,1,136.10725021362305,136.1073260307312,136.1105694770813,136.12310242652893,136.27123379707336,136.27123379707336,136.27123379707336,136.27123379707336,136.27123379707336,136.27123379707336,136.27123379707336,137.27590250968933,3,1.133058786392212,None,,,,,,,,,,,,,,,,,,68,4,2025-02-21_09h42.05.055,comp,2024.2.4,None,2025-02-21 09h59.44.947135 -0500,
19,19,0,filler_square,None,None,None,None,None,None,None,None,None,None,3,1.1077072620391846,None,,,,,0,0,0,0,0,19,19,190,137.29222965240479,,,,,,,,,,,,,,,,,,,,,,,,,,,,,,,,,,,,,,,,,,,,,,,,,,,,,,,,,,,,,,,,,,,,,,,,,,,,,,,,,75.79312987539772,144.77332439898817,111.98334350975551,82.27562052483243,151.67819661510316,151.67819661510316,1.0,1.1,-690,261,-480,273,-267,266,137.27777481079102,137.27785420417786,137.28120732307434,137.29222965240479,137.43879556655884,137.43879556655884,137.43879556655884,137.43879556655884,137.43879556655884,137.43879556655884,137.43879556655884,138.41244506835938,3,1.1077072620391846,None,,,,,,,,,,,,,,,,,,68,4,2025-02-21_09h42.05.055,comp,2024.2.4,None,2025-02-21 09h59.44.947135 -0500,
20,20,0,filler_square,None,None,None,None,None,None,None,None,None,None,2,1.6963741779327393,None,,,,,0,0,0,0,0,20,20,195,138.43152165412903,,,,,,,,,,,,,,,,,,,,,,,,,,,,,,,,,,,,,,,,,,,,,,,,,,,,,,,,,,,,,,,,,,,,,,,,,,,,,,,,,61.70712521881787,103.19486961079035,118.02620207160182,118.02620207160182,76.81166543838141,106.64850470274644,3.0,3.1,-207,275,0,-5,208,-274,138.41442346572876,138.41450238227844,138.4182915687561,138.43152165412903,138.57511138916016,138.57511138916016,138.57511138916016,138.57511138916016,138.57511138916016,138.57511138916016,138.57511138916016,140.14270973205566,2,1.6963741779327393,None,,,,,,,,,,,,,,,,,,68,4,2025-02-21_09h42.05.055,comp,2024.2.4,None,2025-02-21 09h59.44.947135 -0500,
21,21,0,filler_random,None,None,None,None,None,None,None,None,None,None,1,1.264838695526123,None,,,,,0,0,0,0,0,21,21,146,140.15914750099182,,,,,,,,,,,,,,,,,,,,,,,,,,,,,,,,,,,,,,,,,,,,,,,,,,,,,,,,,,,,,,,,,,,,,,,,,,,,,,,,,126.39536298408379,156.96342944795987,59.43008880951279,157.54096402633746,85.49539270384076,60.49585720269153,1.0,1.3,227,-252,480,-270,685,-268,140.14455699920654,140.1446328163147,140.14792776107788,140.15914750099182,140.30495476722717,140.30495476722717,140.30495476722717,140.30495476722717,140.30495476722717,140.30495476722717,140.30495476722717,141.43836379051208,1,1.264838695526123,None,,,,,,,,,,,,,,,,,,68,4,2025-02-21_09h42.05.055,comp,2024.2.4,None,2025-02-21 09h59.44.947135 -0500,
22,22,0,critical,whd,20.0,1.0,lower,57.0,133.0,133.0,57.0,78.0,78.0,1,3.4425902366638184,None,,,,,0,0,0,0,0,22,22,90,141.45392894744873,,,,,,,,,,,,,,,,,,,,,,,,,,,,,,,,,,,,,,,,,,,,,,,,,,,,,,,,,,,,,,,,,,,,,,,,,,,,,,,,,57.0,133.0,133.0,57.0,78.0,78.0,1.0,1.1,-671,276,-480,284,-316,273,141.43995809555054,141.4400351047516,141.44361352920532,141.45392894744873,141.6080915927887,141.6080915927887,141.6080915927887,141.6080915927887,141.6080915927887,141.6080915927887,141.6080915927887,144.90757966041565,1,3.4425902366638184,None,,,,,,,,,,,,,,,,,,68,4,2025-02-21_09h42.05.055,comp,2024.2.4,None,2025-02-21 09h59.44.947135 -0500,
23,23,0,filler_square,None,None,None,None,None,None,None,None,None,None,1,1.2195637226104736,None,,,,,0,0,0,0,0,23,23,201,144.92466020584106,,,,,,,,,,,,,,,,,,,,,,,,,,,,,,,,,,,,,,,,,,,,,,,,,,,,,,,,,,,,,,,,,,,,,,,,,,,,,,,,,122.85774693475177,122.85774693475177,59.698433364189135,97.31662580007296,117.36642202254393,62.734709145932044,1.0,1.1,-686,267,-480,270,-304,267,144.90956354141235,144.90969491004944,144.9138958454132,144.92466020584106,145.07441186904907,145.07441186904907,145.07441186904907,145.07441186904907,145.07441186904907,145.07441186904907,145.07441186904907,146.1590895652771,1,1.2195637226104736,None,,,,,,,,,,,,,,,,,,68,4,2025-02-21_09h42.05.055,comp,2024.2.4,None,2025-02-21 09h59.44.947135 -0500,
24,24,0,filler_random,None,None,None,None,None,None,None,None,None,None,3,2.833073616027832,None,,,,,0,0,0,0,0,24,24,162,146.1748230457306,,,,,,,,,,,,,,,,,,,,,,,,,,,,,,,,,,,,,,,,,,,,,,,,,,,,,,,,,,,,,,,,,,,,,,,,,,,,,,,,,67.71275114509122,135.0082024696676,69.26031306291974,183.2662575026131,129.97242459986424,109.45282848877713,2.2,2.22,-255,287,0,-253,242,-253,146.16097569465637,146.1610517501831,146.16448712348938,146.1748230457306,146.32320261001587,146.32320261001587,146.32320261001587,146.32320261001587,146.32320261001587,146.32320261001587,146.32320261001587,149.02427291870117,3,2.833073616027832,None,,,,,,,,,,,,,,,,,,68,4,2025-02-21_09h42.05.055,comp,2024.2.4,None,2025-02-21 09h59.44.947135 -0500,
25,25,0,critical,dwh,20.0,4.0,lower,78.0,78.0,57.0,133.0,133.0,57.0,3,4.383739948272705,None,,,,,0,0,0,0,0,25,25,70,149.0401599407196,,,,,,,,,,,,,,,,,,,,,,,,,,,,,,,,,,,,,,,,,,,,,,,,,,,,,,,,,,,,,,,,,,,,,,,,,,,,,,,,,78.0,78.0,57.0,133.0,133.0,57.0,4.0,4.1,-202,-251,0,0,191,-289,149.02580666542053,149.025949716568,149.02975606918335,149.0401599407196,149.19750714302063,149.19750714302063,149.19750714302063,149.19750714302063,149.19750714302063,149.19750714302063,149.19750714302063,153.42607831954956,3,4.383739948272705,None,,,,,,,,,,,,,,,,,,68,4,2025-02-21_09h42.05.055,comp,2024.2.4,None,2025-02-21 09h59.44.947135 -0500,
26,26,0,filler_square,None,None,None,None,None,None,None,None,None,None,3,1.1898524761199951,None,,,,,0,0,0,0,0,26,26,172,153.44315314292908,,,,,,,,,,,,,,,,,,,,,,,,,,,,,,,,,,,,,,,,,,,,,,,,,,,,,,,,,,,,,,,,,,,,,,,,,,,,,,,,,84.37283412027418,86.3358855792952,133.53409053068327,58.15356711615088,198.43511887795853,198.43511887795853,1.0,1.1,-648,262,-480,265,-256,268,153.42807459831238,153.42815685272217,153.4321105480194,153.44315314292908,153.5915470123291,153.5915470123291,153.5915470123291,153.5915470123291,153.5915470123291,153.5915470123291,153.5915470123291,154.64332747459412,3,1.1898524761199951,None,,,,,,,,,,,,,,,,,,68,4,2025-02-21_09h42.05.055,comp,2024.2.4,None,2025-02-21 09h59.44.947135 -0500,
27,27,0,critical,hdw,35.0,2.1,lower,133.0,57.0,70.0,70.0,57.0,133.0,1,2.3494584560394287,None,,,,,0,0,0,0,0,27,27,44,154.65899443626404,,,,,,,,,,,,,,,,,,,,,,,,,,,,,,,,,,,,,,,,,,,,,,,,,,,,,,,,,,,,,,,,,,,,,,,,,,,,,,,,,133.0,57.0,70.0,70.0,57.0,133.0,2.1,2.11,-160,251,0,284,198,-251,154.6448369026184,154.6449329853058,154.64830565452576,154.65899443626404,154.80937337875366,154.80937337875366,154.80937337875366,154.80937337875366,154.80937337875366,154.80937337875366,154.80937337875366,157.01670002937317,1,2.3494584560394287,None,,,,,,,,,,,,,,,,,,68,4,2025-02-21_09h42.05.055,comp,2024.2.4,None,2025-02-21 09h59.44.947135 -0500,
28,28,0,filler_random,None,None,None,None,None,None,None,None,None,None,3,3.245124578475952,None,,,,,0,0,0,0,0,28,28,158,157.03486561775208,,,,,,,,,,,,,,,,,,,,,,,,,,,,,,,,,,,,,,,,,,,,,,,,,,,,,,,,,,,,,,,,,,,,,,,,,,,,,,,,,188.0522925689133,95.68306160205705,98.10939332138467,105.20350900440381,199.48155647639652,87.50287659888859,1.0,1.3,284,-283,480,-288,672,-276,157.01842284202576,157.0185022354126,157.02176928520203,157.03486561775208,157.17714262008667,157.17714262008667,157.17714262008667,157.17714262008667,157.17714262008667,157.17714262008667,157.17714262008667,160.29294872283936,3,3.245124578475952,None,,,,,,,,,,,,,,,,,,68,4,2025-02-21_09h42.05.055,comp,2024.2.4,None,2025-02-21 09h59.44.947135 -0500,
29,29,0,critical,wdh,35.0,4.0,lower,57.0,133.0,70.0,70.0,133.0,57.0,3,5.684346914291382,None,,,,,0,0,0,0,0,29,29,76,160.30863523483276,,,,,,,,,,,,,,,,,,,,,,,,,,,,,,,,,,,,,,,,,,,,,,,,,,,,,,,,,,,,,,,,,,,,,,,,,,,,,,,,,57.0,133.0,70.0,70.0,133.0,57.0,4.0,4.2,-198,7,0,-290,160,-1,160.29451704025269,160.29459023475647,160.29824423789978,160.30863523483276,160.45194745063782,160.45194745063782,160.45194745063782,160.45194745063782,160.45194745063782,160.45194745063782,160.45194745063782,165.99815917015076,3,5.684346914291382,None,,,,,,,,,,,,,,,,,,68,4,2025-02-21_09h42.05.055,comp,2024.2.4,None,2025-02-21 09h59.44.947135 -0500,
30,30,0,critical,dwh,20.0,3.0,lower,78.0,78.0,57.0,133.0,133.0,57.0,2,3.7216544151306152,None,,,,,0,0,0,0,0,30,30,68,166.01514720916748,,,,,,,,,,,,,,,,,,,,,,,,,,,,,,,,,,,,,,,,,,,,,,,,,,,,,,,,,,,,,,,,,,,,,,,,,,,,,,,,,78.0,78.0,57.0,133.0,133.0,57.0,3.0,3.1,-202,255,0,-5,191,-277,166.00003933906555,166.00014209747314,166.00437808036804,166.01514720916748,166.16251850128174,166.16251850128174,166.16251850128174,166.16251850128174,166.16251850128174,166.16251850128174,166.16251850128174,169.73997521400452,2,3.7216544151306152,None,,,,,,,,,,,,,,,,,,68,4,2025-02-21_09h42.05.055,comp,2024.2.4,None,2025-02-21 09h59.44.947135 -0500,
31,31,0,critical,hwd,35.0,3.0,upper,200.0,125.0,125.0,200.0,127.0,127.0,2,14.747910022735596,None,,,,,0,0,0,0,0,31,31,99,169.75601196289062,,,,,,,,,,,,,,,,,,,,,,,,,,,,,,,,,,,,,,,,,,,,,,,,,,,,,,,,,,,,,,,,,,,,,,,,,,,,,,,,,200.0,125.0,125.0,200.0,127.0,127.0,3.0,3.1,-258,251,0,-13,260,-287,169.74155640602112,169.74163699150085,169.74498987197876,169.75601196289062,169.8974781036377,169.8974781036377,169.8974781036377,169.8974781036377,169.8974781036377,169.8974781036377,169.8974781036377,184.51839351654053,2,14.747910022735596,None,,,,,,,,,,,,,,,,,,68,4,2025-02-21_09h42.05.055,comp,2024.2.4,None,2025-02-21 09h59.44.947135 -0500,
32,32,0,filler_random,None,None,None,None,None,None,None,None,None,None,2,2.0550076961517334,None,,,,,0,0,0,0,0,32,32,140,184.5371572971344,,,,,,,,,,,,,,,,,,,,,,,,,,,,,,,,,,,,,,,,,,,,,,,,,,,,,,,,,,,,,,,,,,,,,,,,,,,,,,,,,173.19379194741828,63.31739627117854,151.769252767171,104.64850248805399,171.81227298029896,57.63599155128763,2.1,2.12,-180,-280,0,-261,177,255,184.5201165676117,184.52019619941711,184.52364420890808,184.5371572971344,184.68596577644348,184.68596577644348,184.68596577644348,184.68596577644348,184.68596577644348,184.68596577644348,184.68596577644348,186.59713411331177,2,2.0550076961517334,None,,,,,,,,,,,,,,,,,,68,4,2025-02-21_09h42.05.055,comp,2024.2.4,None,2025-02-21 09h59.44.947135 -0500,
33,33,0,filler_random,None,None,None,None,None,None,None,None,None,None,2,1.6169722080230713,None,,,,,0,0,0,0,0,33,33,144,186.6153528690338,,,,,,,,,,,,,,,,,,,,,,,,,,,,,,,,,,,,,,,,,,,,,,,,,,,,,,,,,,,,,,,,,,,,,,,,,,,,,,,,,103.25103296093417,79.85025894522504,116.81324860578945,122.90920786674151,85.89077823830237,115.88554608405397,2.1,2.11,-197,268,0,280,215,-259,186.59885025024414,186.5989272594452,186.6022641658783,186.6153528690338,186.75255799293518,186.75255799293518,186.75255799293518,186.75255799293518,186.75255799293518,186.75255799293518,186.75255799293518,188.23593497276306,2,1.6169722080230713,None,,,,,,,,,,,,,,,,,,68,4,2025-02-21_09h42.05.055,comp,2024.2.4,None,2025-02-21 09h59.44.947135 -0500,
34,34,0,filler_square,None,None,None,None,None,None,None,None,None,None,3,2.066922426223755,None,,,,,0,0,0,0,0,34,34,197,188.25313329696655,,,,,,,,,,,,,,,,,,,,,,,,,,,,,,,,,,,,,,,,,,,,,,,,,,,,,,,,,,,,,,,,,,,,,,,,,,,,,,,,,82.75312574737329,134.19337142225507,138.57057519009825,155.6719279671696,159.69898124823834,159.69898124823834,1.0,1.1,-721,286,-480,267,-226,278,188.2376685142517,188.2377691268921,188.24124765396118,188.25313329696655,188.40884017944336,188.40884017944336,188.40884017944336,188.40884017944336,188.40884017944336,188.40884017944336,188.40884017944336,190.3385021686554,3,2.066922426223755,None,,,,,,,,,,,,,,,,,,68,4,2025-02-21_09h42.05.055,comp,2024.2.4,None,2025-02-21 09h59.44.947135 -0500,
35,35,0,critical,dwh,20.0,3.0,upper,141.0,141.0,125.0,200.0,200.0,125.0,2,2.4014079570770264,None,,,,,0,0,0,0,0,35,35,69,190.3588125705719,,,,,,,,,,,,,,,,,,,,,,,,,,,,,,,,,,,,,,,,,,,,,,,,,,,,,,,,,,,,,,,,,,,,,,,,,,,,,,,,,141.0,141.0,125.0,200.0,200.0,125.0,3.0,3.1,-266,253,0,-3,258,-289,190.34007167816162,190.34014534950256,190.34357333183289,190.3588125705719,190.5047631263733,190.5047631263733,190.5047631263733,190.5047631263733,190.5047631263733,190.5047631263733,190.5047631263733,192.76989269256592,2,2.4014079570770264,None,,,,,,,,,,,,,,,,,,68,4,2025-02-21_09h42.05.055,comp,2024.2.4,None,2025-02-21 09h59.44.947135 -0500,
36,36,0,critical,dhw,20.0,1.0,upper,141.0,141.0,200.0,125.0,125.0,200.0,3,2.9826903343200684,None,,,,,0,0,0,0,0,36,36,55,192.7861683368683,,,,,,,,,,,,,,,,,,,,,,,,,,,,,,,,,,,,,,,,,,,,,,,,,,,,,,,,,,,,,,,,,,,,,,,,,,,,,,,,,141.0,141.0,200.0,125.0,125.0,200.0,1.0,1.3,251,-290,480,-263,738,-271,192.77142643928528,192.77150511741638,192.7749526500702,192.7861683368683,192.93766856193542,192.93766856193542,192.93766856193542,192.93766856193542,192.93766856193542,192.93766856193542,192.93766856193542,195.77308249473572,3,2.9826903343200684,None,,,,,,,,,,,,,,,,,,68,4,2025-02-21_09h42.05.055,comp,2024.2.4,None,2025-02-21 09h59.44.947135 -0500,
37,37,0,critical,dwh,20.0,1.0,lower,78.0,78.0,57.0,133.0,133.0,57.0,2,2.786057472229004,None,,,,,0,0,0,0,0,37,37,66,195.7900309562683,,,,,,,,,,,,,,,,,,,,,,,,,,,,,,,,,,,,,,,,,,,,,,,,,,,,,,,,,,,,,,,,,,,,,,,,,,,,,,,,,78.0,78.0,57.0,133.0,133.0,57.0,1.0,1.2,-202,-7,0,18,191,15,195.77472257614136,195.7748818397522,195.77927422523499,195.7900309562683,195.94040274620056,195.94040274620056,195.94040274620056,195.94040274620056,195.94040274620056,195.94040274620056,195.94040274620056,198.5904462337494,2,2.786057472229004,None,,,,,,,,,,,,,,,,,,68,4,2025-02-21_09h42.05.055,comp,2024.2.4,None,2025-02-21 09h59.44.947135 -0500,
38,38,0,filler_square,None,None,None,None,None,None,None,None,None,None,3,1.4890244007110596,None,,,,,0,0,0,0,0,38,38,180,198.60695910453796,,,,,,,,,,,,,,,,,,,,,,,,,,,,,,,,,,,,,,,,,,,,,,,,,,,,,,,,,,,,,,,,,,,,,,,,,,,,,,,,,106.65976859880672,121.39017414465283,124.11793655529463,86.93268686426582,183.3003156575513,183.3003156575513,3.0,3.2,-200,-267,0,-4,231,260,198.59231543540955,198.59239149093628,198.59576320648193,198.60695910453796,198.75367760658264,198.75367760658264,198.75367760658264,198.75367760658264,198.75367760658264,198.75367760658264,198.75367760658264,200.10657334327698,3,1.4890244007110596,None,,,,,,,,,,,,,,,,,,68,4,2025-02-21_09h42.05.055,comp,2024.2.4,None,2025-02-21 09h59.44.947135 -0500,
39,39,0,filler_square,None,None,None,None,None,None,None,None,None,None,3,1.2991046905517578,None,,,,,0,0,0,0,0,39,39,176,200.12487840652466,,,,,,,,,,,,,,,,,,,,,,,,,,,,,,,,,,,,,,,,,,,,,,,,,,,,,,,,,,,,,,,,,,,,,,,,,,,,,,,,,58.221655744662755,58.55859298699372,58.30058406328997,58.70243791793645,75.7826931153751,75.7826931153751,1.0,1.1,-635,281,-480,288,-317,261,200.10842299461365,200.10850191116333,200.11186528205872,200.12487840652466,200.27690935134888,200.27690935134888,200.27690935134888,200.27690935134888,200.27690935134888,200.27690935134888,200.27690935134888,201.42599177360535,3,1.2991046905517578,None,,,,,,,,,,,,,,,,,,68,4,2025-02-21_09h42.05.055,comp,2024.2.4,None,2025-02-21 09h59.44.947135 -0500,
40,40,0,critical,dhw,35.0,4.0,upper,127.0,127.0,200.0,125.0,125.0,200.0,2,2.2062127590179443,None,,,,,0,0,0,0,0,40,40,53,201.44184231758118,,,,,,,,,,,,,,,,,,,,,,,,,,,,,,,,,,,,,,,,,,,,,,,,,,,,,,,,,,,,,,,,,,,,,,,,,,,,,,,,,127.0,127.0,200.0,125.0,125.0,200.0,4.0,4.2,-222,-7,0,-265,258,15,201.4275221824646,201.42760157585144,201.43111276626587,201.44184231758118,201.60083532333374,201.60083532333374,201.60083532333374,201.60083532333374,201.60083532333374,201.60083532333374,201.60083532333374,203.6593279838562,2,2.2062127590179443,None,,,,,,,,,,,,,,,,,,68,4,2025-02-21_09h42.05.055,comp,2024.2.4,None,2025-02-21 09h59.44.947135 -0500,
41,41,0,filler_square,None,None,None,None,None,None,None,None,None,None,3,1.0600533485412598,None,,,,,0,0,0,0,0,41,41,175,203.67683601379395,,,,,,,,,,,,,,,,,,,,,,,,,,,,,,,,,,,,,,,,,,,,,,,,,,,,,,,,,,,,,,,,,,,,,,,,,,,,,,,,,78.79901460725343,154.6013721949205,144.1263888520917,91.85683101890295,166.65514011248948,166.65514011248948,1.0,1.2,-219,-7,0,5,225,-14,203.66135621070862,203.6614384651184,203.66547465324402,203.67683601379395,203.82855916023254,203.82855916023254,203.82855916023254,203.82855916023254,203.82855916023254,203.82855916023254,203.82855916023254,204.74315643310547,3,1.0600533485412598,None,,,,,,,,,,,,,,,,,,68,4,2025-02-21_09h42.05.055,comp,2024.2.4,None,2025-02-21 09h59.44.947135 -0500,
42,42,0,critical,wdh,35.0,3.0,upper,125.0,200.0,127.0,127.0,200.0,125.0,1,1.6965415477752686,None,,,,,0,0,0,0,0,42,42,75,204.7594084739685,,,,,,,,,,,,,,,,,,,,,,,,,,,,,,,,,,,,,,,,,,,,,,,,,,,,,,,,,,,,,,,,,,,,,,,,,,,,,,,,,125.0,200.0,127.0,127.0,200.0,125.0,3.0,3.1,-260,280,0,20,222,-290,204.7448012828827,204.74491810798645,204.74860286712646,204.7594084739685,204.90921449661255,204.90921449661255,204.90921449661255,204.90921449661255,204.90921449661255,204.90921449661255,204.90921449661255,206.46778845787048,1,1.6965415477752686,None,,,,,,,,,,,,,,,,,,68,4,2025-02-21_09h42.05.055,comp,2024.2.4,None,2025-02-21 09h59.44.947135 -0500,
43,43,0,catch,None,None,None,None,None,None,None,None,None,None,3,1.9328429698944092,None,,,,,0,0,0,0,0,43,43,124,206.4839255809784,,,,,,,,,,,,,,,,,,,,,,,,,,,,,,,,,,,,,,,,,,,,,,,,,,,,,,,,,,,,,,,,,,,,,,,,,,,,,,,,,114,76,64,126,179,146,3.0,3.2,-197,-274,0,-19,232,269,206.4698724746704,206.46995306015015,206.47322511672974,206.4839255809784,206.63278937339783,206.63278937339783,206.63278937339783,206.63278937339783,206.63278937339783,206.63278937339783,206.63278937339783,208.41932821273804,3,1.9328429698944092,None,,,,,,,,,,,,,,,,,,68,4,2025-02-21_09h42.05.055,comp,2024.2.4,None,2025-02-21 09h59.44.947135 -0500,
44,44,0,critical,wdh,20.0,2.1,upper,125.0,200.0,141.0,141.0,200.0,125.0,3,10.541175603866577,None,,,,,0,0,0,0,0,44,44,35,208.43588161468506,,,,,,,,,,,,,,,,,,,,,,,,,,,,,,,,,,,,,,,,,,,,,,,,,,,,,,,,,,,,,,,,,,,,,,,,,,,,,,,,,125.0,200.0,141.0,141.0,200.0,125.0,2.1,2.12,-266,-265,0,-284,229,275,208.42084789276123,208.42092633247375,208.4242000579834,208.43588161468506,208.5796456336975,208.5796456336975,208.5796456336975,208.5796456336975,208.5796456336975,208.5796456336975,208.5796456336975,218.98472213745117,3,10.541175603866577,None,,,,,,,,,,,,,,,,,,68,4,2025-02-21_09h42.05.055,comp,2024.2.4,None,2025-02-21 09h59.44.947135 -0500,
45,45,0,critical,hdw,35.0,3.0,lower,133.0,57.0,70.0,70.0,57.0,133.0,1,2.8146262168884277,None,,,,,0,0,0,0,0,45,45,110,219.001366853714,,,,,,,,,,,,,,,,,,,,,,,,,,,,,,,,,,,,,,,,,,,,,,,,,,,,,,,,,,,,,,,,,,,,,,,,,,,,,,,,,133.0,57.0,70.0,70.0,57.0,133.0,3.0,3.2,-160,-286,0,0,198,251,218.9863052368164,218.9863874912262,218.98966717720032,219.001366853714,219.14778900146484,219.14778900146484,219.14778900146484,219.14778900146484,219.14778900146484,219.14778900146484,219.14778900146484,221.83187985420227,1,2.8146262168884277,None,,,,,,,,,,,,,,,,,,68,4,2025-02-21_09h42.05.055,comp,2024.2.4,None,2025-02-21 09h59.44.947135 -0500,
46,46,0,critical,dwh,35.0,4.0,upper,127.0,127.0,125.0,200.0,200.0,125.0,2,3.360515594482422,None,,,,,0,0,0,0,0,46,46,65,221.84820008277893,,,,,,,,,,,,,,,,,,,,,,,,,,,,,,,,,,,,,,,,,,,,,,,,,,,,,,,,,,,,,,,,,,,,,,,,,,,,,,,,,127.0,127.0,125.0,200.0,200.0,125.0,4.0,4.1,-260,-264,0,2,258,-256,221.83341884613037,221.8334972858429,221.8378975391388,221.84820008277893,222.00037908554077,222.00037908554077,222.00037908554077,222.00037908554077,222.00037908554077,222.00037908554077,222.00037908554077,225.21650862693787,2,3.360515594482422,None,,,,,,,,,,,,,,,,,,68,4,2025-02-21_09h42.05.055,comp,2024.2.4,None,2025-02-21 09h59.44.947135 -0500,
47,47,0,critical,hdw,20.0,2.1,upper,200.0,125.0,141.0,141.0,125.0,200.0,1,2.646087646484375,None,,,,,0,0,0,0,0,47,47,23,225.23434042930603,,,,,,,,,,,,,,,,,,,,,,,,,,,,,,,,,,,,,,,,,,,,,,,,,,,,,,,,,,,,,,,,,,,,,,,,,,,,,,,,,200.0,125.0,141.0,141.0,125.0,200.0,2.1,2.11,-229,272,0,284,266,-273,225.21821093559265,225.21833515167236,225.2221601009369,225.23434042930603,225.39168167114258,225.39168167114258,225.39168167114258,225.39168167114258,225.39168167114258,225.39168167114258,225.39168167114258,227.88519477844238,1,2.646087646484375,None,,,,,,,,,,,,,,,,,,68,4,2025-02-21_09h42.05.055,comp,2024.2.4,None,2025-02-21 09h59.44.947135 -0500,
48,48,0,filler_random,None,None,None,None,None,None,None,None,None,None,1,1.6972684860229492,None,,,,,0,0,0,0,0,48,48,153,227.90270900726318,,,,,,,,,,,,,,,,,,,,,,,,,,,,,,,,,,,,,,,,,,,,,,,,,,,,,,,,,,,,,,,,,,,,,,,,,,,,,,,,,163.8381152005126,69.85989545746195,84.58420480922823,60.865780342924445,112.09440767435834,76.9949403947142,4.0,4.2,-161,6,0,-281,165,4,227.88720440864563,227.88728523254395,227.89102816581726,227.90270900726318,228.05003952980042,228.05003952980042,228.05003952980042,228.05003952980042,228.05003952980042,228.05003952980042,228.05003952980042,229.61577701568604,1,1.6972684860229492,None,,,,,,,,,,,,,,,,,,68,4,2025-02-21_09h42.05.055,comp,2024.2.4,None,2025-02-21 09h59.44.947135 -0500,
49,49,0,filler_square,None,None,None,None,None,None,None,None,None,None,2,1.037499189376831,None,,,,,0,0,0,0,0,49,49,181,229.63632607460022,,,,,,,,,,,,,,,,,,,,,,,,,,,,,,,,,,,,,,,,,,,,,,,,,,,,,,,,,,,,,,,,,,,,,,,,,,,,,,,,,75.62152567579122,93.01540208662259,136.96807481377763,136.96807481377763,60.87830931129356,121.96120257902373,3.0,3.2,-211,-286,0,9,225,251,229.61766576766968,229.61777997016907,229.62129259109497,229.63632607460022,229.78358054161072,229.78358054161072,229.78358054161072,229.78358054161072,229.78358054161072,229.78358054161072,229.78358054161072,230.6841368675232,2,1.037499189376831,None,,,,,,,,,,,,,,,,,,68,4,2025-02-21_09h42.05.055,comp,2024.2.4,None,2025-02-21 09h59.44.947135 -0500,
50,50,0,filler_random,None,None,None,None,None,None,None,None,None,None,2,1.076547384262085,None,,,,,0,0,0,0,0,50,50,147,230.69971632957458,,,,,,,,,,,,,,,,,,,,,,,,,,,,,,,,,,,,,,,,,,,,,,,,,,,,,,,,,,,,,,,,,,,,,,,,,,,,,,,,,87.741440267215,83.1567084542572,197.40963325063302,189.91715467781293,150.8334464009886,108.69462150110462,1.0,1.2,-233,-1,0,5,245,19,230.68576908111572,230.6858377456665,230.68918204307556,230.69971632957458,230.8494508266449,230.8494508266449,230.8494508266449,230.8494508266449,230.8494508266449,230.8494508266449,230.8494508266449,231.79364824295044,2,1.076547384262085,None,,,,,,,,,,,,,,,,,,68,4,2025-02-21_09h42.05.055,comp,2024.2.4,None,2025-02-21 09h59.44.947135 -0500,
51,51,0,critical,hwd,20.0,3.0,lower,133.0,57.0,57.0,133.0,78.0,78.0,2,2.4276857376098633,None,,,,,0,0,0,0,0,51,51,104,231.8123438358307,,,,,,,,,,,,,,,,,,,,,,,,,,,,,,,,,,,,,,,,,,,,,,,,,,,,,,,,,,,,,,,,,,,,,,,,,,,,,,,,,133.0,57.0,57.0,133.0,78.0,78.0,3.0,3.2,-191,-256,0,-5,202,289,231.79519844055176,231.79527473449707,231.79854917526245,231.8123438358307,231.94880509376526,231.94880509376526,231.94880509376526,231.94880509376526,231.94880509376526,231.94880509376526,231.94880509376526,234.24977231025696,2,2.4276857376098633,None,,,,,,,,,,,,,,,,,,68,4,2025-02-21_09h42.05.055,comp,2024.2.4,None,2025-02-21 09h59.44.947135 -0500,
52,52,0,critical,dwh,20.0,4.0,upper,141.0,141.0,125.0,200.0,200.0,125.0,2,2.5906589031219482,None,,,,,0,0,0,0,0,52,52,71,234.2667200565338,,,,,,,,,,,,,,,,,,,,,,,,,,,,,,,,,,,,,,,,,,,,,,,,,,,,,,,,,,,,,,,,,,,,,,,,,,,,,,,,,141.0,141.0,125.0,200.0,200.0,125.0,4.0,4.1,-266,-259,0,-18,258,-273,234.251318693161,234.2513964176178,234.25492978096008,234.2667200565338,234.40504455566406,234.40504455566406,234.40504455566406,234.40504455566406,234.40504455566406,234.40504455566406,234.40504455566406,236.86282539367676,2,2.5906589031219482,None,,,,,,,,,,,,,,,,,,68,4,2025-02-21_09h42.05.055,comp,2024.2.4,None,2025-02-21 09h59.44.947135 -0500,
53,53,0,filler_random,None,None,None,None,None,None,None,None,None,None,1,1.2044975757598877,None,,,,,0,0,0,0,0,53,53,138,236.88356590270996,,,,,,,,,,,,,,,,,,,,,,,,,,,,,,,,,,,,,,,,,,,,,,,,,,,,,,,,,,,,,,,,,,,,,,,,,,,,,,,,,152.6474173760622,87.50093233937652,134.16801401276462,69.72087427085344,73.22694352598825,61.32927543196058,2.2,2.22,-175,259,0,-264,162,-277,236.86458206176758,236.864661693573,236.8679416179657,236.88356590270996,237.02003121376038,237.02003121376038,237.02003121376038,237.02003121376038,237.02003121376038,237.02003121376038,237.02003121376038,238.10359168052673,1,1.2044975757598877,None,,,,,,,,,,,,,,,,,,68,4,2025-02-21_09h42.05.055,comp,2024.2.4,None,2025-02-21 09h59.44.947135 -0500,
54,54,0,critical,whd,35.0,2.1,lower,57.0,133.0,133.0,57.0,70.0,70.0,2,2.5201950073242188,None,,,,,0,0,0,0,0,54,54,36,238.11998176574707,,,,,,,,,,,,,,,,,,,,,,,,,,,,,,,,,,,,,,,,,,,,,,,,,,,,,,,,,,,,,,,,,,,,,,,,,,,,,,,,,57.0,133.0,133.0,57.0,70.0,70.0,2.1,2.12,-191,-277,0,-283,160,278,238.1051731109619,238.1052486896515,238.10966229438782,238.11998176574707,238.2718152999878,238.2718152999878,238.2718152999878,238.2718152999878,238.2718152999878,238.2718152999878,238.2718152999878,240.65479946136475,2,2.5201950073242188,None,,,,,,,,,,,,,,,,,,68,4,2025-02-21_09h42.05.055,comp,2024.2.4,None,2025-02-21 09h59.44.947135 -0500,
55,55,0,filler_random,None,None,None,None,None,None,None,None,None,None,3,2.66262149810791,None,,,,,0,0,0,0,0,55,55,149,240.67340183258057,,,,,,,,,,,,,,,,,,,,,,,,,,,,,,,,,,,,,,,,,,,,,,,,,,,,,,,,,,,,,,,,,,,,,,,,,,,,,,,,,58.176070758633365,142.26441018406857,63.08329932394652,102.15084027897657,167.03661575924366,79.87667342651928,4.0,4.2,-218,-3,0,-256,187,1,240.6568319797516,240.65691137313843,240.66027808189392,240.67340183258057,240.82463955879211,240.82463955879211,240.82463955879211,240.82463955879211,240.82463955879211,240.82463955879211,240.82463955879211,243.35349321365356,3,2.66262149810791,None,,,,,,,,,,,,,,,,,,68,4,2025-02-21_09h42.05.055,comp,2024.2.4,None,2025-02-21 09h59.44.947135 -0500,
56,56,0,filler_random,None,None,None,None,None,None,None,None,None,None,3,2.485112428665161,None,,,,,0,0,0,0,0,56,56,136,243.37137031555176,,,,,,,,,,,,,,,,,,,,,,,,,,,,,,,,,,,,,,,,,,,,,,,,,,,,,,,,,,,,,,,,,,,,,,,,,,,,,,,,,144.35280227887003,98.72119360712682,111.60192551868116,130.48041751855112,146.28098591724915,172.6594127156945,2.2,2.22,-211,251,0,-262,248,-276,243.35547590255737,243.3555498123169,243.35926580429077,243.37137031555176,243.5216200351715,243.5216200351715,243.5216200351715,243.5216200351715,243.5216200351715,243.5216200351715,243.5216200351715,245.86221289634705,3,2.485112428665161,None,,,,,,,,,,,,,,,,,,68,4,2025-02-21_09h42.05.055,comp,2024.2.4,None,2025-02-21 09h59.44.947135 -0500,
57,57,0,critical,hwd,20.0,2.1,upper,200.0,125.0,125.0,200.0,141.0,141.0,1,1.1589481830596924,None,,,,,0,0,0,0,0,57,57,43,245.88176274299622,,,,,,,,,,,,,,,,,,,,,,,,,,,,,,,,,,,,,,,,,,,,,,,,,,,,,,,,,,,,,,,,,,,,,,,,,,,,,,,,,200.0,125.0,125.0,200.0,141.0,141.0,2.1,2.12,-258,-287,0,-274,266,278,245.86368680000305,245.86379885673523,245.86710476875305,245.88176274299622,246.02270007133484,246.02270007133484,246.02270007133484,246.02270007133484,246.02270007133484,246.02270007133484,246.02270007133484,247.05023384094238,1,1.1589481830596924,None,,,,,,,,,,,,,,,,,,68,4,2025-02-21_09h42.05.055,comp,2024.2.4,None,2025-02-21 09h59.44.947135 -0500,
58,58,0,filler_random,None,None,None,None,None,None,None,None,None,None,3,2.401420831680298,None,,,,,0,0,0,0,0,58,58,156,247.0710380077362,,,,,,,,,,,,,,,,,,,,,,,,,,,,,,,,,,,,,,,,,,,,,,,,,,,,,,,,,,,,,,,,,,,,,,,,,,,,,,,,,108.87212034857458,100.64645108143165,197.93368162991547,62.01673916612534,165.96618393276975,131.01062509447416,1.0,1.3,303,-262,480,-284,673,-252,247.05202651023865,247.0521080493927,247.05537581443787,247.0710380077362,247.20682954788208,247.20682954788208,247.20682954788208,247.20682954788208,247.20682954788208,247.20682954788208,247.20682954788208,249.4745283126831,3,2.401420831680298,None,,,,,,,,,,,,,,,,,,68,4,2025-02-21_09h42.05.055,comp,2024.2.4,None,2025-02-21 09h59.44.947135 -0500,
59,59,0,critical,dhw,20.0,1.0,lower,78.0,78.0,133.0,57.0,57.0,133.0,2,2.5248241424560547,None,,,,,0,0,0,0,0,59,59,54,249.49177193641663,,,,,,,,,,,,,,,,,,,,,,,,,,,,,,,,,,,,,,,,,,,,,,,,,,,,,,,,,,,,,,,,,,,,,,,,,,,,,,,,,78.0,78.0,133.0,57.0,57.0,133.0,1.0,1.1,-644,285,-480,286,-289,274,249.47633147239685,249.47641515731812,249.48090243339539,249.49177193641663,249.64437413215637,249.64437413215637,249.64437413215637,249.64437413215637,249.64437413215637,249.64437413215637,249.64437413215637,252.02503180503845,2,2.5248241424560547,None,,,,,,,,,,,,,,,,,,68,4,2025-02-21_09h42.05.055,comp,2024.2.4,None,2025-02-21 09h59.44.947135 -0500,
60,60,0,critical,hdw,20.0,3.0,lower,133.0,57.0,78.0,78.0,57.0,133.0,1,2.5746891498565674,None,,,,,0,0,0,0,0,60,60,116,252.0413317680359,,,,,,,,,,,,,,,,,,,,,,,,,,,,,,,,,,,,,,,,,,,,,,,,,,,,,,,,,,,,,,,,,,,,,,,,,,,,,,,,,133.0,57.0,78.0,78.0,57.0,133.0,3.0,3.2,-164,-261,0,-10,202,270,252.02666926383972,252.02682828903198,252.03043699264526,252.0413317680359,252.19088315963745,252.19088315963745,252.19088315963745,252.19088315963745,252.19088315963745,252.19088315963745,252.19088315963745,254.626460313797,1,2.5746891498565674,None,,,,,,,,,,,,,,,,,,68,4,2025-02-21_09h42.05.055,comp,2024.2.4,None,2025-02-21 09h59.44.947135 -0500,
61,61,0,filler_random,None,None,None,None,None,None,None,None,None,None,1,1.4285662174224854,None,,,,,0,0,0,0,0,61,61,168,254.64362239837646,,,,,,,,,,,,,,,,,,,,,,,,,,,,,,,,,,,,,,,,,,,,,,,,,,,,,,,,,,,,,,,,,,,,,,,,,,,,,,,,,136.666460167423,105.25496489840118,157.74126550516078,82.67011401939834,83.55065997169336,137.7893640454494,3.0,3.1,-190,253,0,-16,206,-257,254.62837290763855,254.62845420837402,254.63266277313232,254.64362239837646,254.7865068912506,254.7865068912506,254.7865068912506,254.7865068912506,254.7865068912506,254.7865068912506,254.7865068912506,256.07518315315247,1,1.4285662174224854,None,,,,,,,,,,,,,,,,,,68,4,2025-02-21_09h42.05.055,comp,2024.2.4,None,2025-02-21 09h59.44.947135 -0500,
62,62,0,critical,hwd,35.0,1.0,lower,133.0,57.0,57.0,133.0,70.0,70.0,1,3.756197214126587,None,,,,,0,0,0,0,0,62,62,96,256.0918028354645,,,,,,,,,,,,,,,,,,,,,,,,,,,,,,,,,,,,,,,,,,,,,,,,,,,,,,,,,,,,,,,,,,,,,,,,,,,,,,,,,133.0,57.0,57.0,133.0,70.0,70.0,1.0,1.3,289,-254,480,-278,678,-277,256.07675981521606,256.0768392086029,256.0803563594818,256.0918028354645,256.2278895378113,256.2278895378113,256.2278895378113,256.2278895378113,256.2278895378113,256.2278895378113,256.2278895378113,259.8615081310272,1,3.756197214126587,None,,,,,,,,,,,,,,,,,,68,4,2025-02-21_09h42.05.055,comp,2024.2.4,None,2025-02-21 09h59.44.947135 -0500,
63,63,0,critical,dwh,20.0,1.0,upper,141.0,141.0,125.0,200.0,200.0,125.0,3,3.639193058013916,None,,,,,0,0,0,0,0,63,63,67,259.8808214664459,,,,,,,,,,,,,,,,,,,,,,,,,,,,,,,,,,,,,,,,,,,,,,,,,,,,,,,,,,,,,,,,,,,,,,,,,,,,,,,,,141.0,141.0,125.0,200.0,200.0,125.0,1.0,1.1,-746,287,-480,277,-222,284,259.86324977874756,259.8633270263672,259.8667109012604,259.8808214664459,260.02637362480164,260.02637362480164,260.02637362480164,260.02637362480164,260.02637362480164,260.02637362480164,260.02637362480164,263.52947211265564,3,3.639193058013916,None,,,,,,,,,,,,,,,,,,68,4,2025-02-21_09h42.05.055,comp,2024.2.4,None,2025-02-21 09h59.44.947135 -0500,
64,64,0,catch,None,None,None,None,None,None,None,None,None,None,1,2.991197347640991,None,,,,,0,0,0,0,0,64,64,126,263.5464129447937,,,,,,,,,,,,,,,,,,,,,,,,,,,,,,,,,,,,,,,,,,,,,,,,,,,,,,,,,,,,,,,,,,,,,,,,,,,,,,,,,133,192,126,64,115,75,1.0,1.2,-224,1,0,-7,166,-14,263.5314681529999,263.53154945373535,263.5350067615509,263.5464129447937,263.69829511642456,263.69829511642456,263.69829511642456,263.69829511642456,263.69829511642456,263.69829511642456,263.69829511642456,266.5451521873474,1,2.991197347640991,None,,,,,,,,,,,,,,,,,,68,4,2025-02-21_09h42.05.055,comp,2024.2.4,None,2025-02-21 09h59.44.947135 -0500,
65,65,0,critical,dhw,35.0,4.0,lower,70.0,70.0,133.0,57.0,57.0,133.0,3,3.1468186378479004,None,,,,,0,0,0,0,0,65,65,52,266.56563329696655,,,,,,,,,,,,,,,,,,,,,,,,,,,,,,,,,,,,,,,,,,,,,,,,,,,,,,,,,,,,,,,,,,,,,,,,,,,,,,,,,70.0,70.0,133.0,57.0,57.0,133.0,4.0,4.1,-160,-270,0,14,191,-279,266.5467965602875,266.54691457748413,266.5507640838623,266.56563329696655,266.7104961872101,266.7104961872101,266.7104961872101,266.7104961872101,266.7104961872101,266.7104961872101,266.7104961872101,269.71921372413635,3,3.1468186378479004,None,,,,,,,,,,,,,,,,,,68,4,2025-02-21_09h42.05.055,comp,2024.2.4,None,2025-02-21 09h59.44.947135 -0500,
66,66,0,critical,dwh,20.0,2.1,lower,78.0,78.0,57.0,133.0,133.0,57.0,3,2.4762890338897705,None,,,,,0,0,0,0,0,66,66,6,269.73982334136963,,,,,,,,,,,,,,,,,,,,,,,,,,,,,,,,,,,,,,,,,,,,,,,,,,,,,,,,,,,,,,,,,,,,,,,,,,,,,,,,,78.0,78.0,57.0,133.0,133.0,57.0,2.1,2.12,-202,-255,0,-263,191,288,269.7207601070404,269.7208483219147,269.7241427898407,269.73982334136963,269.8791296482086,269.8791296482086,269.8791296482086,269.8791296482086,269.8791296482086,269.8791296482086,269.8791296482086,272.23171639442444,3,2.4762890338897705,None,,,,,,,,,,,,,,,,,,68,4,2025-02-21_09h42.05.055,comp,2024.2.4,None,2025-02-21 09h59.44.947135 -0500,
67,67,0,critical,wdh,35.0,1.0,lower,57.0,133.0,70.0,70.0,133.0,57.0,3,4.367892026901245,None,,,,,0,0,0,0,0,67,67,72,272.2486071586609,,,,,,,,,,,,,,,,,,,,,,,,,,,,,,,,,,,,,,,,,,,,,,,,,,,,,,,,,,,,,,,,,,,,,,,,,,,,,,,,,57.0,133.0,70.0,70.0,133.0,57.0,1.0,1.2,-198,10,0,11,160,-19,272.23323249816895,272.2333073616028,272.23667669296265,272.2486071586609,272.4002425670624,272.4002425670624,272.4002425670624,272.4002425670624,272.4002425670624,272.4002425670624,272.4002425670624,276.6265161037445,3,4.367892026901245,None,,,,,,,,,,,,,,,,,,68,4,2025-02-21_09h42.05.055,comp,2024.2.4,None,2025-02-21 09h59.44.947135 -0500,
68,68,0,critical,hwd,20.0,2.1,lower,133.0,57.0,57.0,133.0,78.0,78.0,1,2.712479829788208,None,,,,,0,0,0,0,0,68,68,42,276.6481125354767,,,,,,,,,,,,,,,,,,,,,,,,,,,,,,,,,,,,,,,,,,,,,,,,,,,,,,,,,,,,,,,,,,,,,,,,,,,,,,,,,133.0,57.0,57.0,133.0,78.0,78.0,2.1,2.11,-191,283,0,263,202,-271,276.62823390960693,276.62836837768555,276.6322503089905,276.6481125354767,276.78216075897217,276.78216075897217,276.78216075897217,276.78216075897217,276.78216075897217,276.78216075897217,276.78216075897217,279.3636255264282,1,2.712479829788208,None,,,,,,,,,,,,,,,,,,68,4,2025-02-21_09h42.05.055,comp,2024.2.4,None,2025-02-21 09h59.44.947135 -0500,
69,69,0,critical,whd,35.0,3.0,upper,125.0,200.0,200.0,125.0,127.0,127.0,1,1.5495193004608154,None,,,,,0,0,0,0,0,69,69,87,279.37869024276733,,,,,,,,,,,,,,,,,,,,,,,,,,,,,,,,,,,,,,,,,,,,,,,,,,,,,,,,,,,,,,,,,,,,,,,,,,,,,,,,,125.0,200.0,200.0,125.0,127.0,127.0,3.0,3.2,-258,-286,0,19,222,282,279.3651716709137,279.3652489185333,279.36874747276306,279.37869024276733,279.5379784107208,279.5379784107208,279.5379784107208,279.5379784107208,279.5379784107208,279.5379784107208,279.5379784107208,280.94146060943604,1,1.5495193004608154,None,,,,,,,,,,,,,,,,,,68,4,2025-02-21_09h42.05.055,comp,2024.2.4,None,2025-02-21 09h59.44.947135 -0500,
70,70,0,critical,whd,35.0,1.0,upper,125.0,200.0,200.0,125.0,127.0,127.0,1,3.246314525604248,None,,,,,0,0,0,0,0,70,70,85,280.9616799354553,,,,,,,,,,,,,,,,,,,,,,,,,,,,,,,,,,,,,,,,,,,,,,,,,,,,,,,,,,,,,,,,,,,,,,,,,,,,,,,,,125.0,200.0,200.0,125.0,127.0,127.0,1.0,1.3,222,-287,480,-288,702,-282,280.9431276321411,280.9432284832001,280.9469883441925,280.9616799354553,281.09696102142334,281.09696102142334,281.09696102142334,281.09696102142334,281.09696102142334,281.09696102142334,281.09696102142334,284.2213921546936,1,3.246314525604248,None,,,,,,,,,,,,,,,,,,68,4,2025-02-21_09h42.05.055,comp,2024.2.4,None,2025-02-21 09h59.44.947135 -0500,
71,71,0,critical,wdh,20.0,1.0,lower,57.0,133.0,78.0,78.0,133.0,57.0,1,2.435464859008789,None,,,,,0,0,0,0,0,71,71,78,284.2374837398529,,,,,,,,,,,,,,,,,,,,,,,,,,,,,,,,,,,,,,,,,,,,,,,,,,,,,,,,,,,,,,,,,,,,,,,,,,,,,,,,,57.0,133.0,78.0,78.0,133.0,57.0,1.0,1.1,-682,290,-480,263,-316,282,284.2232484817505,284.2233898639679,284.2271218299866,284.2374837398529,284.38118290901184,284.38118290901184,284.38118290901184,284.38118290901184,284.38118290901184,284.38118290901184,284.38118290901184,286.69028425216675,1,2.435464859008789,None,,,,,,,,,,,,,,,,,,68,4,2025-02-21_09h42.05.055,comp,2024.2.4,None,2025-02-21 09h59.44.947135 -0500,
72,72,0,filler_square,None,None,None,None,None,None,None,None,None,None,2,1.1742379665374756,None,,,,,0,0,0,0,0,72,72,192,286.7065062522888,,,,,,,,,,,,,,,,,,,,,,,,,,,,,,,,,,,,,,,,,,,,,,,,,,,,,,,,,,,,,,,,,,,,,,,,,,,,,,,,,71.34250684766528,112.81725127842311,171.07545822515016,171.07545822515016,64.2095169658144,169.83151744531963,1.0,1.2,-238,-4,0,20,266,1,286.69202756881714,286.6921031475067,286.6952953338623,286.7065062522888,286.8530776500702,286.8530776500702,286.8530776500702,286.8530776500702,286.8530776500702,286.8530776500702,286.8530776500702,287.8837716579437,2,1.1742379665374756,None,,,,,,,,,,,,,,,,,,68,4,2025-02-21_09h42.05.055,comp,2024.2.4,None,2025-02-21 09h59.44.947135 -0500,
73,73,0,critical,dhw,20.0,4.0,lower,78.0,78.0,133.0,57.0,57.0,133.0,3,3.972853899002075,None,,,,,0,0,0,0,0,73,73,58,287.89956736564636,,,,,,,,,,,,,,,,,,,,,,,,,,,,,,,,,,,,,,,,,,,,,,,,,,,,,,,,,,,,,,,,,,,,,,,,,,,,,,,,,78.0,78.0,133.0,57.0,57.0,133.0,4.0,4.1,-164,-280,0,-7,191,-257,287.88525557518005,287.8853313922882,287.8887629508972,287.89956736564636,288.04134154319763,288.04134154319763,288.04134154319763,288.04134154319763,288.04134154319763,288.04134154319763,288.04134154319763,291.8749010562897,3,3.972853899002075,None,,,,,,,,,,,,,,,,,,68,4,2025-02-21_09h42.05.055,comp,2024.2.4,None,2025-02-21 09h59.44.947135 -0500,
74,74,0,critical,whd,20.0,3.0,lower,57.0,133.0,133.0,57.0,78.0,78.0,2,2.2032124996185303,None,,,,,0,0,0,0,0,74,74,92,291.8928918838501,,,,,,,,,,,,,,,,,,,,,,,,,,,,,,,,,,,,,,,,,,,,,,,,,,,,,,,,,,,,,,,,,,,,,,,,,,,,,,,,,57.0,133.0,133.0,57.0,78.0,78.0,3.0,3.1,-191,272,0,0,164,-285,291.8763337135315,291.87640833854675,291.87988567352295,291.8928918838501,292.0365152359009,292.0365152359009,292.0365152359009,292.0365152359009,292.0365152359009,292.0365152359009,292.0365152359009,294.1139135360718,2,2.2032124996185303,None,,,,,,,,,,,,,,,,,,68,4,2025-02-21_09h42.05.055,comp,2024.2.4,None,2025-02-21 09h59.44.947135 -0500,
75,75,0,filler_random,None,None,None,None,None,None,None,None,None,None,2,1.9956355094909668,None,,,,,0,0,0,0,0,75,75,166,294.1324303150177,,,,,,,,,,,,,,,,,,,,,,,,,,,,,,,,,,,,,,,,,,,,,,,,,,,,,,,,,,,,,,,,,,,,,,,,,,,,,,,,,110.90818758395689,165.3120445411841,173.28980316997058,104.20760351964611,107.90652446922284,88.88266154877843,1.0,1.3,249,-260,480,-262,673,-251,294.1158916950226,294.115971326828,294.11969470977783,294.1324303150177,294.27131509780884,294.27131509780884,294.27131509780884,294.27131509780884,294.27131509780884,294.27131509780884,294.27131509780884,296.13714814186096,2,1.9956355094909668,None,,,,,,,,,,,,,,,,,,68,4,2025-02-21_09h42.05.055,comp,2024.2.4,None,2025-02-21 09h59.44.947135 -0500,
76,76,0,filler_square,None,None,None,None,None,None,None,None,None,None,3,5.118130207061768,None,,,,,0,0,0,0,0,76,76,205,296.1539816856384,,,,,,,,,,,,,,,,,,,,,,,,,,,,,,,,,,,,,,,,,,,,,,,,,,,,,,,,,,,,,,,,,,,,,,,,,,,,,,,,,79.2500300064028,105.38801323238727,115.242665710577,93.977849078363,125.73106604674295,125.73106604674295,2.2,2.22,-196,274,0,-280,206,-285,296.139169216156,296.1392822265625,296.1431403160095,296.1539816856384,296.3004298210144,296.3004298210144,296.3004298210144,296.3004298210144,296.3004298210144,296.3004298210144,296.3004298210144,301.28904914855957,3,5.118130207061768,None,,,,,,,,,,,,,,,,,,68,4,2025-02-21_09h42.05.055,comp,2024.2.4,None,2025-02-21 09h59.44.947135 -0500,
77,77,0,critical,whd,20.0,2.1,upper,125.0,200.0,200.0,125.0,141.0,141.0,2,3.263608694076538,None,,,,,0,0,0,0,0,77,77,15,301.3050215244293,,,,,,,,,,,,,,,,,,,,,,,,,,,,,,,,,,,,,,,,,,,,,,,,,,,,,,,,,,,,,,,,,,,,,,,,,,,,,,,,,125.0,200.0,200.0,125.0,141.0,141.0,2.1,2.11,-258,263,0,257,229,-255,301.2906770706177,301.2907865047455,301.2946400642395,301.3050215244293,301.45604276657104,301.45604276657104,301.45604276657104,301.45604276657104,301.45604276657104,301.45604276657104,301.45604276657104,304.5707883834839,2,3.263608694076538,None,,,,,,,,,,,,,,,,,,68,4,2025-02-21_09h42.05.055,comp,2024.2.4,None,2025-02-21 09h59.44.947135 -0500,
78,78,0,filler_random,None,None,None,None,None,None,None,None,None,None,1,4.2850987911224365,None,,,,,0,0,0,0,0,78,78,150,304.58724761009216,,,,,,,,,,,,,,,,,,,,,,,,,,,,,,,,,,,,,,,,,,,,,,,,,,,,,,,,,,,,,,,,,,,,,,,,,,,,,,,,,103.03585023933219,144.22034689496553,78.49592976405302,171.9816524233475,114.86506486431941,61.64885980567488,1.0,1.2,-254,-3,0,0,213,-13,304.5724663734436,304.5725429058075,304.57584047317505,304.58724761009216,304.73303747177124,304.73303747177124,304.73303747177124,304.73303747177124,304.73303747177124,304.73303747177124,304.73303747177124,308.89001417160034,1,4.2850987911224365,None,,,,,,,,,,,,,,,,,,68,4,2025-02-21_09h42.05.055,comp,2024.2.4,None,2025-02-21 09h59.44.947135 -0500,
79,79,0,filler_square,None,None,None,None,None,None,None,None,None,None,3,2.148926258087158,None,,,,,0,0,0,0,0,79,79,206,308.9071650505066,,,,,,,,,,,,,,,,,,,,,,,,,,,,,,,,,,,,,,,,,,,,,,,,,,,,,,,,,,,,,,,,,,,,,,,,,,,,,,,,,78.06111186863077,72.5003052291794,57.14596568621658,72.52371971120813,93.26632261132421,93.26632261132421,2.2,2.21,-169,-250,0,266,179,267,308.89212369918823,308.8921995162964,308.89596676826477,308.9071650505066,309.05946016311646,309.05946016311646,309.05946016311646,309.05946016311646,309.05946016311646,309.05946016311646,309.05946016311646,311.06825971603394,3,2.148926258087158,None,,,,,,,,,,,,,,,,,,68,4,2025-02-21_09h42.05.055,comp,2024.2.4,None,2025-02-21 09h59.44.947135 -0500,
80,80,0,filler_square,None,None,None,None,None,None,None,None,None,None,1,1.3629448413848877,None,,,,,0,0,0,0,0,80,80,171,311.08515548706055,,,,,,,,,,,,,,,,,,,,,,,,,,,,,,,,,,,,,,,,,,,,,,,,,,,,,,,,,,,,,,,,,,,,,,,,,,,,,,,,,162.86180144296043,162.86180144296043,122.73079826421771,69.7809417148982,135.56921068817547,58.61107787243642,2.2,2.22,-212,275,0,-258,160,-268,311.0700707435608,311.0701472759247,311.07339906692505,311.08515548706055,311.2264828681946,311.2264828681946,311.2264828681946,311.2264828681946,311.2264828681946,311.2264828681946,311.2264828681946,312.46126079559326,1,1.3629448413848877,None,,,,,,,,,,,,,,,,,,68,4,2025-02-21_09h42.05.055,comp,2024.2.4,None,2025-02-21 09h59.44.947135 -0500,
81,81,0,critical,dwh,35.0,2.1,lower,70.0,70.0,57.0,133.0,133.0,57.0,1,2.1256608963012695,None,,,,,0,0,0,0,0,81,81,28,312.4825587272644,,,,,,,,,,,,,,,,,,,,,,,,,,,,,,,,,,,,,,,,,,,,,,,,,,,,,,,,,,,,,,,,,,,,,,,,,,,,,,,,,70.0,70.0,57.0,133.0,133.0,57.0,2.1,2.11,-198,259,0,274,191,-256,312.4629662036896,312.4630992412567,312.46669030189514,312.4825587272644,312.63111209869385,312.63111209869385,312.63111209869385,312.63111209869385,312.63111209869385,312.63111209869385,312.63111209869385,314.61365938186646,1,2.1256608963012695,None,,,,,,,,,,,,,,,,,,68,4,2025-02-21_09h42.05.055,comp,2024.2.4,None,2025-02-21 09h59.44.947135 -0500,
82,82,0,filler_random,None,None,None,None,None,None,None,None,None,None,1,2.4799394607543945,None,,,,,0,0,0,0,0,82,82,137,314.6323080062866,,,,,,,,,,,,,,,,,,,,,,,,,,,,,,,,,,,,,,,,,,,,,,,,,,,,,,,,,,,,,,,,,,,,,,,,,,,,,,,,,197.92237109320973,151.611495197095,192.96937045165794,77.3019960059116,110.75119478896934,144.27416826418755,3.0,3.2,-210,-288,0,8,207,279,314.6155092716217,314.61565136909485,314.61934328079224,314.6323080062866,314.7776346206665,314.7776346206665,314.7776346206665,314.7776346206665,314.7776346206665,314.7776346206665,314.7776346206665,317.11631417274475,1,2.4799394607543945,None,,,,,,,,,,,,,,,,,,68,4,2025-02-21_09h42.05.055,comp,2024.2.4,None,2025-02-21 09h59.44.947135 -0500,
83,83,0,catch,None,None,None,None,None,None,None,None,None,None,1,1.3262526988983154,None,,,,,0,0,0,0,0,83,83,129,317.1379382610321,,,,,,,,,,,,,,,,,,,,,,,,,,,,,,,,,,,,,,,,,,,,,,,,,,,,,,,,,,,,,,,,,,,,,,,,,,,,,,,,,130,195,66,124,91,99,2.1,2.12,-256,-254,0,-253,208,265,317.1184594631195,317.11853671073914,317.122252702713,317.1379382610321,317.27868485450745,317.27868485450745,317.27868485450745,317.27868485450745,317.27868485450745,317.27868485450745,317.27868485450745,318.4775378704071,1,1.3262526988983154,None,,,,,,,,,,,,,,,,,,68,4,2025-02-21_09h42.05.055,comp,2024.2.4,None,2025-02-21 09h59.44.947135 -0500,
84,84,0,critical,wdh,20.0,2.1,upper,125.0,200.0,141.0,141.0,200.0,125.0,1,1.8457715511322021,None,,,,,0,0,0,0,0,84,84,11,318.4988844394684,,,,,,,,,,,,,,,,,,,,,,,,,,,,,,,,,,,,,,,,,,,,,,,,,,,,,,,,,,,,,,,,,,,,,,,,,,,,,,,,,125.0,200.0,141.0,141.0,200.0,125.0,2.1,2.12,-266,-250,0,-267,229,262,318.4792411327362,318.4793801307678,318.48315620422363,318.4988844394684,318.6454529762268,318.6454529762268,318.6454529762268,318.6454529762268,318.6454529762268,318.6454529762268,318.6454529762268,320.3468658924103,1,1.8457715511322021,None,,,,,,,,,,,,,,,,,,68,4,2025-02-21_09h42.05.055,comp,2024.2.4,None,2025-02-21 09h59.44.947135 -0500,
85,85,0,critical,dwh,35.0,2.1,lower,70.0,70.0,57.0,133.0,133.0,57.0,3,3.92663311958313,None,,,,,0,0,0,0,0,85,85,4,320.3617973327637,,,,,,,,,,,,,,,,,,,,,,,,,,,,,,,,,,,,,,,,,,,,,,,,,,,,,,,,,,,,,,,,,,,,,,,,,,,,,,,,,70.0,70.0,57.0,133.0,133.0,57.0,2.1,2.12,-198,-281,0,-264,191,284,320.34845423698425,320.3485321998596,320.35191822052,320.3617973327637,320.5109395980835,320.5109395980835,320.5109395980835,320.5109395980835,320.5109395980835,320.5109395980835,320.5109395980835,324.2917261123657,3,3.92663311958313,None,,,,,,,,,,,,,,,,,,68,4,2025-02-21_09h42.05.055,comp,2024.2.4,None,2025-02-21 09h59.44.947135 -0500,
86,86,0,critical,hdw,20.0,3.0,upper,200.0,125.0,141.0,141.0,125.0,200.0,3,6.938991546630859,None,,,,,0,0,0,0,0,86,86,117,324.3092215061188,,,,,,,,,,,,,,,,,,,,,,,,,,,,,,,,,,,,,,,,,,,,,,,,,,,,,,,,,,,,,,,,,,,,,,,,,,,,,,,,,200.0,125.0,141.0,141.0,125.0,200.0,3.0,3.2,-229,-289,0,-13,266,251,324.2924256324768,324.29245805740356,324.2938950061798,324.3092215061188,324.44747138023376,324.44747138023376,324.44747138023376,324.44747138023376,324.44747138023376,324.44747138023376,324.44747138023376,331.26378297805786,3,6.938991546630859,None,,,,,,,,,,,,,,,,,,68,4,2025-02-21_09h42.05.055,comp,2024.2.4,None,2025-02-21 09h59.44.947135 -0500,
87,87,0,filler_square,None,None,None,None,None,None,None,None,None,None,2,1.1681151390075684,None,,,,,0,0,0,0,0,87,87,204,331.28007435798645,,,,,,,,,,,,,,,,,,,,,,,,,,,,,,,,,,,,,,,,,,,,,,,,,,,,,,,,,,,,,,,,,,,,,,,,,,,,,,,,,165.79365692311302,111.42556365712461,182.68713257276826,182.68713257276826,176.88472454462845,112.50667734043235,2.2,2.22,-243,252,0,-265,244,-263,331.2656078338623,331.2656831741333,331.26921248435974,331.28007435798645,331.42819809913635,331.42819809913635,331.42819809913635,331.42819809913635,331.42819809913635,331.42819809913635,331.42819809913635,332.4655759334564,2,1.1681151390075684,None,,,,,,,,,,,,,,,,,,68,4,2025-02-21_09h42.05.055,comp,2024.2.4,None,2025-02-21 09h59.44.947135 -0500,
88,88,0,critical,dhw,20.0,2.1,lower,78.0,78.0,133.0,57.0,57.0,133.0,3,3.2542331218719482,None,,,,,0,0,0,0,0,88,88,2,332.48220205307007,,,,,,,,,,,,,,,,,,,,,,,,,,,,,,,,,,,,,,,,,,,,,,,,,,,,,,,,,,,,,,,,,,,,,,,,,,,,,,,,,78.0,78.0,133.0,57.0,57.0,133.0,2.1,2.11,-164,280,0,277,191,-288,332.46721601486206,332.4672923088074,332.4709565639496,332.48220205307007,332.633175611496,332.633175611496,332.633175611496,332.633175611496,332.633175611496,332.633175611496,332.633175611496,335.75060391426086,3,3.2542331218719482,None,,,,,,,,,,,,,,,,,,68,4,2025-02-21_09h42.05.055,comp,2024.2.4,None,2025-02-21 09h59.44.947135 -0500,
89,89,0,critical,wdh,20.0,1.0,upper,125.0,200.0,141.0,141.0,200.0,125.0,1,2.7053802013397217,None,,,,,0,0,0,0,0,89,89,79,335.7667281627655,,,,,,,,,,,,,,,,,,,,,,,,,,,,,,,,,,,,,,,,,,,,,,,,,,,,,,,,,,,,,,,,,,,,,,,,,,,,,,,,,125.0,200.0,141.0,141.0,200.0,125.0,1.0,1.1,-746,273,-480,268,-251,286,335.7523033618927,335.7524063587189,335.75640892982483,335.7667281627655,335.91634249687195,335.91634249687195,335.91634249687195,335.91634249687195,335.91634249687195,335.91634249687195,335.91634249687195,338.4868063926697,1,2.7053802013397217,None,,,,,,,,,,,,,,,,,,68,4,2025-02-21_09h42.05.055,comp,2024.2.4,None,2025-02-21 09h59.44.947135 -0500,
90,90,0,filler_random,None,None,None,None,None,None,None,None,None,None,2,2.767151117324829,None,,,,,0,0,0,0,0,90,90,160,338.50583243370056,,,,,,,,,,,,,,,,,,,,,,,,,,,,,,,,,,,,,,,,,,,,,,,,,,,,,,,,,,,,,,,,,,,,,,,,,,,,,,,,,144.02838128057527,114.41902535454444,97.80549198011545,152.16714825907258,168.4106259549245,62.9219047257663,3.0,3.1,-229,251,0,-19,204,-275,338.48863649368286,338.48871970176697,338.4920599460602,338.50583243370056,338.662880897522,338.662880897522,338.662880897522,338.662880897522,338.662880897522,338.662880897522,338.662880897522,341.293185710907,2,2.767151117324829,None,,,,,,,,,,,,,,,,,,68,4,2025-02-21_09h42.05.055,comp,2024.2.4,None,2025-02-21 09h59.44.947135 -0500,
91,91,0,filler_random,None,None,None,None,None,None,None,None,None,None,1,1.073939323425293,None,,,,,0,0,0,0,0,91,91,164,341.31100130081177,,,,,,,,,,,,,,,,,,,,,,,,,,,,,,,,,,,,,,,,,,,,,,,,,,,,,,,,,,,,,,,,,,,,,,,,,,,,,,,,,184.7394459974209,166.44377441806304,166.5663829795489,156.70865348347914,118.28809002056587,119.24297445016703,1.0,1.1,-738,265,-480,254,-246,272,341.2949318885803,341.29501008987427,341.2982928752899,341.31100130081177,341.4529869556427,341.4529869556427,341.4529869556427,341.4529869556427,341.4529869556427,341.4529869556427,341.4529869556427,342.3882224559784,1,1.073939323425293,None,,,,,,,,,,,,,,,,,,68,4,2025-02-21_09h42.05.055,comp,2024.2.4,None,2025-02-21 09h59.44.947135 -0500,
92,92,0,critical,hwd,20.0,3.0,upper,200.0,125.0,125.0,200.0,141.0,141.0,2,2.340113639831543,None,,,,,0,0,0,0,0,92,92,105,342.4040970802307,,,,,,,,,,,,,,,,,,,,,,,,,,,,,,,,,,,,,,,,,,,,,,,,,,,,,,,,,,,,,,,,,,,,,,,,,,,,,,,,,200.0,125.0,125.0,200.0,141.0,141.0,3.0,3.1,-258,252,0,-18,266,-251,342.3900737762451,342.390154838562,342.39345598220825,342.4040970802307,342.55257964134216,342.55257964134216,342.55257964134216,342.55257964134216,342.55257964134216,342.55257964134216,342.55257964134216,344.7558991909027,2,2.340113639831543,None,,,,,,,,,,,,,,,,,,68,4,2025-02-21_09h42.05.055,comp,2024.2.4,None,2025-02-21 09h59.44.947135 -0500,
93,93,0,critical,hdw,35.0,3.0,upper,200.0,125.0,127.0,127.0,125.0,200.0,3,6.635027170181274,None,,,,,0,0,0,0,0,93,93,111,344.7733464241028,,,,,,,,,,,,,,,,,,,,,,,,,,,,,,,,,,,,,,,,,,,,,,,,,,,,,,,,,,,,,,,,,,,,,,,,,,,,,,,,,200.0,125.0,127.0,127.0,125.0,200.0,3.0,3.1,-222,278,0,-6,260,-254,344.75751543045044,344.7575945854187,344.76174211502075,344.7733464241028,344.91995096206665,344.91995096206665,344.91995096206665,344.91995096206665,344.91995096206665,344.91995096206665,344.91995096206665,351.41163063049316,3,6.635027170181274,None,,,,,,,,,,,,,,,,,,68,4,2025-02-21_09h42.05.055,comp,2024.2.4,None,2025-02-21 09h59.44.947135 -0500,
94,94,0,filler_square,None,None,None,None,None,None,None,None,None,None,2,4.532064199447632,None,,,,,0,0,0,0,0,94,94,200,351.4282875061035,,,,,,,,,,,,,,,,,,,,,,,,,,,,,,,,,,,,,,,,,,,,,,,,,,,,,,,,,,,,,,,,,,,,,,,,,,,,,,,,,110.59124162734702,122.81185355029378,135.7302972009436,135.7302972009436,62.502143506053535,129.33489622532193,3.0,3.1,-225,271,0,-2,229,-261,351.41361021995544,351.41376972198486,351.41736912727356,351.4282875061035,351.57106161117554,351.57106161117554,351.57106161117554,351.57106161117554,351.57106161117554,351.57106161117554,351.57106161117554,355.9708721637726,2,4.532064199447632,None,,,,,,,,,,,,,,,,,,68,4,2025-02-21_09h42.05.055,comp,2024.2.4,None,2025-02-21 09h59.44.947135 -0500,
95,95,0,critical,whd,20.0,3.0,upper,125.0,200.0,200.0,125.0,141.0,141.0,1,2.432451009750366,None,,,,,0,0,0,0,0,95,95,93,355.9918119907379,,,,,,,,,,,,,,,,,,,,,,,,,,,,,,,,,,,,,,,,,,,,,,,,,,,,,,,,,,,,,,,,,,,,,,,,,,,,,,,,,125.0,200.0,200.0,125.0,141.0,141.0,3.0,3.1,-258,287,0,-5,229,-288,355.9724156856537,355.97249603271484,355.97608256340027,355.9918119907379,356.1420187950134,356.1420187950134,356.1420187950134,356.1420187950134,356.1420187950134,356.1420187950134,356.1420187950134,358.43959617614746,1,2.432451009750366,None,,,,,,,,,,,,,,,,,,68,4,2025-02-21_09h42.05.055,comp,2024.2.4,None,2025-02-21 09h59.44.947135 -0500,
96,96,0,critical,dwh,35.0,1.0,lower,70.0,70.0,57.0,133.0,133.0,57.0,3,3.0480663776397705,None,,,,,0,0,0,0,0,96,96,60,358.4562201499939,,,,,,,,,,,,,,,,,,,,,,,,,,,,,,,,,,,,,,,,,,,,,,,,,,,,,,,,,,,,,,,,,,,,,,,,,,,,,,,,,70.0,70.0,57.0,133.0,133.0,57.0,1.0,1.1,-678,261,-480,254,-289,265,358.4412534236908,358.4413604736328,358.44494819641113,358.4562201499939,358.6068346500397,358.6068346500397,358.6068346500397,358.6068346500397,358.6068346500397,358.6068346500397,358.6068346500397,361.5214366912842,3,3.0480663776397705,None,,,,,,,,,,,,,,,,,,68,4,2025-02-21_09h42.05.055,comp,2024.2.4,None,2025-02-21 09h59.44.947135 -0500,
97,97,0,filler_square,None,None,None,None,None,None,None,None,None,None,3,2.2823710441589355,None,,,,,0,0,0,0,0,97,97,186,361.5422110557556,,,,,,,,,,,,,,,,,,,,,,,,,,,,,,,,,,,,,,,,,,,,,,,,,,,,,,,,,,,,,,,,,,,,,,,,,,,,,,,,,61.14633713371574,70.70618752283238,60.16203137450714,80.22076372808588,83.00523358143987,83.00523358143987,3.0,3.1,-171,251,0,-8,178,-288,361.52335000038147,361.5234274864197,361.5267894268036,361.5422110557556,361.69895243644714,361.69895243644714,361.69895243644714,361.69895243644714,361.69895243644714,361.69895243644714,361.69895243644714,363.84162425994873,3,2.2823710441589355,None,,,,,,,,,,,,,,,,,,68,4,2025-02-21_09h42.05.055,comp,2024.2.4,None,2025-02-21 09h59.44.947135 -0500,
98,98,0,critical,wdh,35.0,3.0,lower,57.0,133.0,70.0,70.0,133.0,57.0,1,2.95951247215271,None,,,,,0,0,0,0,0,98,98,74,363.8571970462799,,,,,,,,,,,,,,,,,,,,,,,,,,,,,,,,,,,,,,,,,,,,,,,,,,,,,,,,,,,,,,,,,,,,,,,,,,,,,,,,,57.0,133.0,70.0,70.0,133.0,57.0,3.0,3.2,-198,-265,0,6,160,271,363.8431222438812,363.843195438385,363.8468918800354,363.8571970462799,364.00755643844604,364.00755643844604,364.00755643844604,364.00755643844604,364.00755643844604,364.00755643844604,364.00755643844604,366.82542729377747,1,2.95951247215271,None,,,,,,,,,,,,,,,,,,68,4,2025-02-21_09h42.05.055,comp,2024.2.4,None,2025-02-21 09h59.44.947135 -0500,
99,99,0,critical,wdh,20.0,2.1,lower,57.0,133.0,78.0,78.0,133.0,57.0,1,5.388590574264526,None,,,,,0,0,0,0,0,99,99,10,366.8438169956207,,,,,,,,,,,,,,,,,,,,,,,,,,,,,,,,,,,,,,,,,,,,,,,,,,,,,,,,,,,,,,,,,,,,,,,,,,,,,,,,,57.0,133.0,78.0,78.0,133.0,57.0,2.1,2.12,-202,-262,0,-282,164,285,366.82709074020386,366.8271987438202,366.83067893981934,366.8438169956207,366.99406123161316,366.99406123161316,366.99406123161316,366.99406123161316,366.99406123161316,366.99406123161316,366.99406123161316,372.24623465538025,1,5.388590574264526,None,,,,,,,,,,,,,,,,,,68,4,2025-02-21_09h42.05.055,comp,2024.2.4,None,2025-02-21 09h59.44.947135 -0500,
100,100,0,critical,dhw,20.0,2.1,upper,141.0,141.0,200.0,125.0,125.0,200.0,3,2.9861488342285156,None,,,,,0,0,0,0,0,100,100,3,372.26213216781616,,,,,,,,,,,,,,,,,,,,,,,,,,,,,,,,,,,,,,,,,,,,,,,,,,,,,,,,,,,,,,,,,,,,,,,,,,,,,,,,,141.0,141.0,200.0,125.0,125.0,200.0,2.1,2.11,-229,274,0,264,258,-257,372.2477581501007,372.2478392124176,372.25136852264404,372.26213216781616,372.41438913345337,372.41438913345337,372.41438913345337,372.41438913345337,372.41438913345337,372.41438913345337,372.41438913345337,375.26311802864075,3,2.9861488342285156,None,,,,,,,,,,,,,,,,,,68,4,2025-02-21_09h42.05.055,comp,2024.2.4,None,2025-02-21 09h59.44.947135 -0500,
101,101,0,critical,whd,20.0,2.1,upper,125.0,200.0,200.0,125.0,141.0,141.0,1,1.4455318450927734,None,,,,,0,0,0,0,0,101,101,39,375.28305554389954,,,,,,,,,,,,,,,,,,,,,,,,,,,,,,,,,,,,,,,,,,,,,,,,,,,,,,,,,,,,,,,,,,,,,,,,,,,,,,,,,125.0,200.0,200.0,125.0,141.0,141.0,2.1,2.11,-258,290,0,288,229,-280,375.26465487480164,375.2647285461426,375.26892948150635,375.28305554389954,375.42976570129395,375.42976570129395,375.42976570129395,375.42976570129395,375.42976570129395,375.42976570129395,375.42976570129395,376.74523091316223,1,1.4455318450927734,None,,,,,,,,,,,,,,,,,,68,4,2025-02-21_09h42.05.055,comp,2024.2.4,None,2025-02-21 09h59.44.947135 -0500,
102,102,0,critical,whd,35.0,2.1,upper,125.0,200.0,200.0,125.0,127.0,127.0,1,1.8155548572540283,None,,,,,0,0,0,0,0,102,102,13,376.761447429657,,,,,,,,,,,,,,,,,,,,,,,,,,,,,,,,,,,,,,,,,,,,,,,,,,,,,,,,,,,,,,,,,,,,,,,,,,,,,,,,,125.0,200.0,200.0,125.0,127.0,127.0,2.1,2.12,-258,-283,0,-289,222,258,376.74677443504333,376.7468583583832,376.7503833770752,376.761447429657,376.9184591770172,376.9184591770172,376.9184591770172,376.9184591770172,376.9184591770172,376.9184591770172,376.9184591770172,378.5802228450775,1,1.8155548572540283,None,,,,,,,,,,,,,,,,,,68,4,2025-02-21_09h42.05.055,comp,2024.2.4,None,2025-02-21 09h59.44.947135 -0500,
103,103,0,filler_square,None,None,None,None,None,None,None,None,None,None,3,1.3314971923828125,None,,,,,0,0,0,0,0,103,103,189,378.59665608406067,,,,,,,,,,,,,,,,,,,,,,,,,,,,,,,,,,,,,,,,,,,,,,,,,,,,,,,,,,,,,,,,,,,,,,,,,,,,,,,,,99.88204386278152,117.91042654395774,135.08947030434473,100.99472193358662,142.40881099043716,142.40881099043716,4.0,4.1,-205,-280,0,-6,218,-273,378.5821177959442,378.58219718933105,378.5859112739563,378.59665608406067,378.7469892501831,378.7469892501831,378.7469892501831,378.7469892501831,378.7469892501831,378.7469892501831,378.7469892501831,379.9461715221405,3,1.3314971923828125,None,,,,,,,,,,,,,,,,,,68,4,2025-02-21_09h42.05.055,comp,2024.2.4,None,2025-02-21 09h59.44.947135 -0500,
104,104,0,filler_square,None,None,None,None,None,None,None,None,None,None,3,1.0380914211273193,None,,,,,0,0,0,0,0,104,104,187,379.96237087249756,,,,,,,,,,,,,,,,,,,,,,,,,,,,,,,,,,,,,,,,,,,,,,,,,,,,,,,,,,,,,,,,,,,,,,,,,,,,,,,,,107.53054558047813,63.355727074413174,68.49707862104937,84.25165873568639,141.73023288068407,141.73023288068407,4.0,4.1,-170,-259,0,-2,209,-273,379.948126077652,379.9482252597809,379.9518504142761,379.96237087249756,380.1016790866852,380.1016790866852,380.1016790866852,380.1016790866852,380.1016790866852,380.1016790866852,380.1016790866852,381.0051236152649,3,1.0380914211273193,None,,,,,,,,,,,,,,,,,,68,4,2025-02-21_09h42.05.055,comp,2024.2.4,None,2025-02-21 09h59.44.947135 -0500,
105,105,0,filler_random,None,None,None,None,None,None,None,None,None,None,2,2.249074935913086,None,,,,,0,0,0,0,0,105,105,163,381.02325677871704,,,,,,,,,,,,,,,,,,,,,,,,,,,,,,,,,,,,,,,,,,,,,,,,,,,,,,,,,,,,,,,,,,,,,,,,,,,,,,,,,102.28798620082524,162.92924593991552,198.6834094967389,101.95212584744498,115.4180995688643,80.94762535407952,2.2,2.22,-228,276,0,-264,187,-267,381.00678300857544,381.0068609714508,381.0101110935211,381.02325677871704,381.1651692390442,381.1651692390442,381.1651692390442,381.1651692390442,381.1651692390442,381.1651692390442,381.1651692390442,383.29113936424255,2,2.249074935913086,None,,,,,,,,,,,,,,,,,,68,4,2025-02-21_09h42.05.055,comp,2024.2.4,None,2025-02-21 09h59.44.947135 -0500,
106,106,0,critical,whd,35.0,4.0,lower,57.0,133.0,133.0,57.0,70.0,70.0,1,3.2616193294525146,None,,,,,0,0,0,0,0,106,106,88,383.30663895606995,,,,,,,,,,,,,,,,,,,,,,,,,,,,,,,,,,,,,,,,,,,,,,,,,,,,,,,,,,,,,,,,,,,,,,,,,,,,,,,,,57.0,133.0,133.0,57.0,70.0,70.0,4.0,4.1,-191,-253,0,-12,160,-277,383.292635679245,383.292711019516,383.2960374355316,383.30663895606995,383.44828963279724,383.44828963279724,383.44828963279724,383.44828963279724,383.44828963279724,383.44828963279724,383.44828963279724,386.582062959671,1,3.2616193294525146,None,,,,,,,,,,,,,,,,,,68,4,2025-02-21_09h42.05.055,comp,2024.2.4,None,2025-02-21 09h59.44.947135 -0500,
107,107,0,filler_square,None,None,None,None,None,None,None,None,None,None,2,1.1288514137268066,None,,,,,0,0,0,0,0,107,107,188,386.59996032714844,,,,,,,,,,,,,,,,,,,,,,,,,,,,,,,,,,,,,,,,,,,,,,,,,,,,,,,,,,,,,,,,,,,,,,,,,,,,,,,,,158.74475395753018,138.20891863511534,181.49010509617062,181.49010509617062,76.88158489600364,126.3202585625532,2.2,2.22,-256,267,0,-256,250,-273,386.58388924598694,386.58396339416504,386.5873284339905,386.59996032714844,386.75114250183105,386.75114250183105,386.75114250183105,386.75114250183105,386.75114250183105,386.75114250183105,386.75114250183105,387.7319176197052,2,1.1288514137268066,None,,,,,,,,,,,,,,,,,,68,4,2025-02-21_09h42.05.055,comp,2024.2.4,None,2025-02-21 09h59.44.947135 -0500,
108,108,0,filler_square,None,None,None,None,None,None,None,None,None,None,3,1.0401740074157715,None,,,,,0,0,0,0,0,108,108,174,387.7527697086334,,,,,,,,,,,,,,,,,,,,,,,,,,,,,,,,,,,,,,,,,,,,,,,,,,,,,,,,,,,,,,,,,,,,,,,,,,,,,,,,,81.41613637663367,108.58570033689895,63.130094876242374,102.42057059477223,123.16005510413711,123.16005510413711,4.0,4.2,-202,19,0,-251,209,-13,387.7337942123413,387.7339322566986,387.737509727478,387.7527697086334,387.8998341560364,387.8998341560364,387.8998341560364,387.8998341560364,387.8998341560364,387.8998341560364,387.8998341560364,388.8021514415741,3,1.0401740074157715,None,,,,,,,,,,,,,,,,,,68,4,2025-02-21_09h42.05.055,comp,2024.2.4,None,2025-02-21 09h59.44.947135 -0500,
109,109,0,critical,hdw,35.0,1.0,lower,133.0,57.0,70.0,70.0,57.0,133.0,3,1.9104907512664795,None,,,,,0,0,0,0,0,109,109,108,388.81865549087524,,,,,,,,,,,,,,,,,,,,,,,,,,,,,,,,,,,,,,,,,,,,,,,,,,,,,,,,,,,,,,,,,,,,,,,,,,,,,,,,,133.0,57.0,70.0,70.0,57.0,133.0,1.0,1.2,-160,-12,0,1,198,-8,388.8036720752716,388.8037898540497,388.80733036994934,388.81865549087524,388.9690318107605,388.9690318107605,388.9690318107605,388.9690318107605,388.9690318107605,388.9690318107605,388.9690318107605,390.73218154907227,3,1.9104907512664795,None,,,,,,,,,,,,,,,,,,68,4,2025-02-21_09h42.05.055,comp,2024.2.4,None,2025-02-21 09h59.44.947135 -0500,
110,110,0,critical,dwh,35.0,2.1,upper,127.0,127.0,125.0,200.0,200.0,125.0,2,1.8757617473602295,None,,,,,0,0,0,0,0,110,110,29,390.74886322021484,,,,,,,,,,,,,,,,,,,,,,,,,,,,,,,,,,,,,,,,,,,,,,,,,,,,,,,,,,,,,,,,,,,,,,,,,,,,,,,,,127.0,127.0,125.0,200.0,200.0,125.0,2.1,2.12,-260,-282,0,-262,258,251,390.73371386528015,390.73381543159485,390.73727202415466,390.74886322021484,390.9000401496887,390.9000401496887,390.9000401496887,390.9000401496887,390.9000401496887,390.9000401496887,390.9000401496887,392.6334538459778,2,1.8757617473602295,None,,,,,,,,,,,,,,,,,,68,4,2025-02-21_09h42.05.055,comp,2024.2.4,None,2025-02-21 09h59.44.947135 -0500,
111,111,0,filler_random,None,None,None,None,None,None,None,None,None,None,1,1.5989184379577637,None,,,,,0,0,0,0,0,111,111,132,392.6499433517456,,,,,,,,,,,,,,,,,,,,,,,,,,,,,,,,,,,,,,,,,,,,,,,,,,,,,,,,,,,,,,,,,,,,,,,,,,,,,,,,,149.14827705926825,69.12330985911797,116.01078651441729,65.731061524017,57.774939710704906,155.0858391716647,2.2,2.22,-163,268,0,-288,206,-260,392.63520216941833,392.635290145874,392.63889718055725,392.6499433517456,392.8031733036041,392.8031733036041,392.8031733036041,392.8031733036041,392.8031733036041,392.8031733036041,392.8031733036041,394.25137662887573,1,1.5989184379577637,None,,,,,,,,,,,,,,,,,,68,4,2025-02-21_09h42.05.055,comp,2024.2.4,None,2025-02-21 09h59.44.947135 -0500,
112,112,0,filler_square,None,None,None,None,None,None,None,None,None,None,3,0.9711349010467529,None,,,,,0,0,0,0,0,112,112,173,394.26907539367676,,,,,,,,,,,,,,,,,,,,,,,,,,,,,,,,,,,,,,,,,,,,,,,,,,,,,,,,,,,,,,,,,,,,,,,,,,,,,,,,,142.80849691281355,95.09295167200958,71.39466024430699,161.9259812151747,193.57713749526903,193.57713749526903,4.0,4.2,-225,-13,0,-260,274,9,394.25336718559265,394.25346755981445,394.2574064731598,394.26907539367676,394.41521739959717,394.41521739959717,394.41521739959717,394.41521739959717,394.41521739959717,394.41521739959717,394.41521739959717,395.25071358680725,3,0.9711349010467529,None,,,,,,,,,,,,,,,,,,68,4,2025-02-21_09h42.05.055,comp,2024.2.4,None,2025-02-21 09h59.44.947135 -0500,
113,113,0,filler_square,None,None,None,None,None,None,None,None,None,None,3,1.3487403392791748,None,,,,,0,0,0,0,0,113,113,209,395.2681658267975,,,,,,,,,,,,,,,,,,,,,,,,,,,,,,,,,,,,,,,,,,,,,,,,,,,,,,,,,,,,,,,,,,,,,,,,,,,,,,,,,75.99823244630859,72.38239409709179,89.55323905916921,104.41767925829939,114.73014183824785,114.73014183824785,4.0,4.1,-184,-288,0,15,206,-285,395.25276160240173,395.25284242630005,395.2565155029297,395.2681658267975,395.4194369316101,395.4194369316101,395.4194369316101,395.4194369316101,395.4194369316101,395.4194369316101,395.4194369316101,396.62225437164307,3,1.3487403392791748,None,,,,,,,,,,,,,,,,,,68,4,2025-02-21_09h42.05.055,comp,2024.2.4,None,2025-02-21 09h59.44.947135 -0500,
114,114,0,critical,wdh,20.0,2.1,lower,57.0,133.0,78.0,78.0,133.0,57.0,3,2.753690481185913,None,,,,,0,0,0,0,0,114,114,34,396.63903164863586,,,,,,,,,,,,,,,,,,,,,,,,,,,,,,,,,,,,,,,,,,,,,,,,,,,,,,,,,,,,,,,,,,,,,,,,,,,,,,,,,57.0,133.0,78.0,78.0,133.0,57.0,2.1,2.11,-202,279,0,266,164,-263,396.6239354610443,396.62404203414917,396.6279847621918,396.63903164863586,396.78694701194763,396.78694701194763,396.78694701194763,396.78694701194763,396.78694701194763,396.78694701194763,396.78694701194763,399.40964674949646,3,2.753690481185913,None,,,,,,,,,,,,,,,,,,68,4,2025-02-21_09h42.05.055,comp,2024.2.4,None,2025-02-21 09h59.44.947135 -0500,
115,115,0,critical,dhw,20.0,3.0,lower,78.0,78.0,133.0,57.0,57.0,133.0,3,2.0385899543762207,None,,,,,0,0,0,0,0,115,115,56,399.4263000488281,,,,,,,,,,,,,,,,,,,,,,,,,,,,,,,,,,,,,,,,,,,,,,,,,,,,,,,,,,,,,,,,,,,,,,,,,,,,,,,,,78.0,78.0,133.0,57.0,57.0,133.0,3.0,3.2,-164,-279,0,-2,191,253,399.4112620353699,399.4113395214081,399.41502499580383,399.4263000488281,399.5703806877136,399.5703806877136,399.5703806877136,399.5703806877136,399.5703806877136,399.5703806877136,399.5703806877136,401.47029733657837,3,2.0385899543762207,None,,,,,,,,,,,,,,,,,,68,4,2025-02-21_09h42.05.055,comp,2024.2.4,None,2025-02-21 09h59.44.947135 -0500,
116,116,0,critical,whd,35.0,2.1,lower,57.0,133.0,133.0,57.0,70.0,70.0,2,1.7230205535888672,None,,,,,0,0,0,0,0,116,116,12,401.4852077960968,,,,,,,,,,,,,,,,,,,,,,,,,,,,,,,,,,,,,,,,,,,,,,,,,,,,,,,,,,,,,,,,,,,,,,,,,,,,,,,,,57.0,133.0,133.0,57.0,70.0,70.0,2.1,2.12,-191,-277,0,-283,160,276,401.4718441963196,401.47195267677307,401.4755001068115,401.4852077960968,401.63632917404175,401.63632917404175,401.63632917404175,401.63632917404175,401.63632917404175,401.63632917404175,401.63632917404175,403.22161078453064,2,1.7230205535888672,None,,,,,,,,,,,,,,,,,,68,4,2025-02-21_09h42.05.055,comp,2024.2.4,None,2025-02-21 09h59.44.947135 -0500,
117,117,0,filler_square,None,None,None,None,None,None,None,None,None,None,2,1.1858820915222168,None,,,,,0,0,0,0,0,117,117,177,403.2383451461792,,,,,,,,,,,,,,,,,,,,,,,,,,,,,,,,,,,,,,,,,,,,,,,,,,,,,,,,,,,,,,,,,,,,,,,,,,,,,,,,,66.51763077828599,93.0725474294683,105.93297583713613,105.93297583713613,98.85682407588259,67.21508322334344,4.0,4.1,-196,-287,0,4,183,-255,403.2234585285187,403.22353625297546,403.22803831100464,403.2383451461792,403.39507842063904,403.39507842063904,403.39507842063904,403.39507842063904,403.39507842063904,403.39507842063904,403.39507842063904,404.44113540649414,2,1.1858820915222168,None,,,,,,,,,,,,,,,,,,68,4,2025-02-21_09h42.05.055,comp,2024.2.4,None,2025-02-21 09h59.44.947135 -0500,
118,118,0,critical,dwh,20.0,2.1,lower,78.0,78.0,57.0,133.0,133.0,57.0,3,1.0906004905700684,None,,,,,0,0,0,0,0,118,118,30,404.46181416511536,,,,,,,,,,,,,,,,,,,,,,,,,,,,,,,,,,,,,,,,,,,,,,,,,,,,,,,,,,,,,,,,,,,,,,,,,,,,,,,,,78.0,78.0,57.0,133.0,133.0,57.0,2.1,2.11,-202,269,0,252,191,-269,404.4431965351105,404.4432752132416,404.44659304618835,404.46181416511536,404.60534954071045,404.60534954071045,404.60534954071045,404.60534954071045,404.60534954071045,404.60534954071045,404.60534954071045,405.5585069656372,3,1.0906004905700684,None,,,,,,,,,,,,,,,,,,68,4,2025-02-21_09h42.05.055,comp,2024.2.4,None,2025-02-21 09h59.44.947135 -0500,
119,119,0,critical,wdh,35.0,1.0,upper,125.0,200.0,127.0,127.0,200.0,125.0,1,2.7411458492279053,None,,,,,0,0,0,0,0,119,119,73,405.57984828948975,,,,,,,,,,,,,,,,,,,,,,,,,,,,,,,,,,,,,,,,,,,,,,,,,,,,,,,,,,,,,,,,,,,,,,,,,,,,,,,,,125.0,200.0,127.0,127.0,200.0,125.0,1.0,1.1,-740,265,-480,264,-258,282,405.5604212284088,405.56055903434753,405.56409215927124,405.57984828948975,405.7223343849182,405.7223343849182,405.7223343849182,405.7223343849182,405.7223343849182,405.7223343849182,405.7223343849182,408.3246991634369,1,2.7411458492279053,None,,,,,,,,,,,,,,,,,,68,4,2025-02-21_09h42.05.055,comp,2024.2.4,None,2025-02-21 09h59.44.947135 -0500,
120,120,0,filler_random,None,None,None,None,None,None,None,None,None,None,3,1.275789499282837,None,,,,,0,0,0,0,0,120,120,157,408.341144323349,,,,,,,,,,,,,,,,,,,,,,,,,,,,,,,,,,,,,,,,,,,,,,,,,,,,,,,,,,,,,,,,,,,,,,,,,,,,,,,,,152.27537140264792,120.85829255204362,81.22120337204129,90.60073229651366,172.03299050344165,118.52367905163759,2.1,2.11,-202,270,0,282,201,-277,408.32660031318665,408.3266804218292,408.33034658432007,408.341144323349,408.495557308197,408.495557308197,408.495557308197,408.495557308197,408.495557308197,408.495557308197,408.495557308197,409.6219801902771,3,1.275789499282837,None,,,,,,,,,,,,,,,,,,68,4,2025-02-21_09h42.05.055,comp,2024.2.4,None,2025-02-21 09h59.44.947135 -0500,
121,121,0,filler_square,None,None,None,None,None,None,None,None,None,None,2,0.8975663185119629,None,,,,,0,0,0,0,0,121,121,178,409.63946866989136,,,,,,,,,,,,,,,,,,,,,,,,,,,,,,,,,,,,,,,,,,,,,,,,,,,,,,,,,,,,,,,,,,,,,,,,,,,,,,,,,141.87651547168656,101.1814574010537,173.71893033586008,173.71893033586008,117.67622660758072,148.9165946906519,2.1,2.11,-233,268,0,253,257,-278,409.62400913238525,409.62408351898193,409.62789940834045,409.63946866989136,409.79027366638184,409.79027366638184,409.79027366638184,409.79027366638184,409.79027366638184,409.79027366638184,409.79027366638184,410.5398225784302,2,0.8975663185119629,None,,,,,,,,,,,,,,,,,,68,4,2025-02-21_09h42.05.055,comp,2024.2.4,None,2025-02-21 09h59.44.947135 -0500,
122,122,0,filler_random,None,None,None,None,None,None,None,None,None,None,1,0.7324161529541016,None,,,,,0,0,0,0,0,122,122,141,410.55653977394104,,,,,,,,,,,,,,,,,,,,,,,,,,,,,,,,,,,,,,,,,,,,,,,,,,,,,,,,,,,,,,,,,,,,,,,,,,,,,,,,,153.83175294640225,166.25375198397973,166.47411596536074,64.23121527727727,156.66090499396108,79.26289892821018,2.2,2.22,-211,258,0,-270,168,-285,410.5416100025177,410.54168939590454,410.5457065105438,410.55653977394104,410.7090322971344,410.7090322971344,410.7090322971344,410.7090322971344,410.7090322971344,410.7090322971344,410.7090322971344,411.297385931015,1,0.7324161529541016,None,,,,,,,,,,,,,,,,,,68,4,2025-02-21_09h42.05.055,comp,2024.2.4,None,2025-02-21 09h59.44.947135 -0500,
123,123,0,filler_random,None,None,None,None,None,None,None,None,None,None,3,1.172102689743042,None,,,,,0,0,0,0,0,123,123,161,411.31630396842957,,,,,,,,,,,,,,,,,,,,,,,,,,,,,,,,,,,,,,,,,,,,,,,,,,,,,,,,,,,,,,,,,,,,,,,,,,,,,,,,,170.0786198243623,173.88475882973256,106.38586843383916,78.78799502546414,90.37599760199754,97.35862259847545,3.0,3.2,-222,-278,0,-7,184,278,411.29951214790344,411.2995946407318,411.3033826351166,411.31630396842957,411.4566297531128,411.4566297531128,411.4566297531128,411.4566297531128,411.4566297531128,411.4566297531128,411.4566297531128,412.4986221790314,3,1.172102689743042,None,,,,,,,,,,,,,,,,,,68,4,2025-02-21_09h42.05.055,comp,2024.2.4,None,2025-02-21 09h59.44.947135 -0500,
124,124,0,filler_square,None,None,None,None,None,None,None,None,None,None,2,1.2845616340637207,None,,,,,0,0,0,0,0,124,124,182,412.5158088207245,,,,,,,,,,,,,,,,,,,,,,,,,,,,,,,,,,,,,,,,,,,,,,,,,,,,,,,,,,,,,,,,,,,,,,,,,,,,,,,,,76.7173983670673,98.60286517639346,161.53976368833563,161.53976368833563,125.28680872172716,78.93010630308025,4.0,4.2,-226,-2,0,-286,216,14,412.5005180835724,412.50059723854065,412.504029750824,412.5158088207245,412.6562867164612,412.6562867164612,412.6562867164612,412.6562867164612,412.6562867164612,412.6562867164612,412.6562867164612,413.8129138946533,2,1.2845616340637207,None,,,,,,,,,,,,,,,,,,68,4,2025-02-21_09h42.05.055,comp,2024.2.4,None,2025-02-21 09h59.44.947135 -0500,
125,125,0,critical,hwd,35.0,4.0,lower,133.0,57.0,57.0,133.0,70.0,70.0,1,1.1793420314788818,None,,,,,0,0,0,0,0,125,125,100,413.8289189338684,,,,,,,,,,,,,,,,,,,,,,,,,,,,,,,,,,,,,,,,,,,,,,,,,,,,,,,,,,,,,,,,,,,,,,,,,,,,,,,,,133.0,57.0,57.0,133.0,70.0,70.0,4.0,4.2,-191,19,0,-251,198,5,413.8144586086273,413.81453251838684,413.81779170036316,413.8289189338684,413.9753484725952,413.9753484725952,413.9753484725952,413.9753484725952,413.9753484725952,413.9753484725952,413.9753484725952,415.0239543914795,1,1.1793420314788818,None,,,,,,,,,,,,,,,,,,68,4,2025-02-21_09h42.05.055,comp,2024.2.4,None,2025-02-21 09h59.44.947135 -0500,
126,126,0,catch,None,None,None,None,None,None,None,None,None,None,3,0.8881080150604248,None,,,,,0,0,0,0,0,126,126,125,415.04868388175964,,,,,,,,,,,,,,,,,,,,,,,,,,,,,,,,,,,,,,,,,,,,,,,,,,,,,,,,,,,,,,,,,,,,,,,,,,,,,,,,,127,63,82,108,147,178,2.2,2.22,-182,258,0,-269,239,-261,415.02614092826843,415.0262145996094,415.0300714969635,415.04868388175964,415.19179010391235,415.19179010391235,415.19179010391235,415.19179010391235,415.19179010391235,415.19179010391235,415.19179010391235,415.94224286079407,3,0.8881080150604248,None,,,,,,,,,,,,,,,,,,68,4,2025-02-21_09h42.05.055,comp,2024.2.4,None,2025-02-21 09h59.44.947135 -0500,
127,127,0,catch,None,None,None,None,None,None,None,None,None,None,2,1.3607230186462402,None,,,,,0,0,0,0,0,127,127,121,415.96002864837646,,,,,,,,,,,,,,,,,,,,,,,,,,,,,,,,,,,,,,,,,,,,,,,,,,,,,,,,,,,,,,,,,,,,,,,,,,,,,,,,,109,81,156,169,59,131,2.1,2.11,-221,288,0,256,246,-251,415.9442307949066,415.9443097114563,415.9484910964966,415.96002864837646,416.11050033569336,416.11050033569336,416.11050033569336,416.11050033569336,416.11050033569336,416.11050033569336,416.11050033569336,417.3293595314026,2,1.3607230186462402,None,,,,,,,,,,,,,,,,,,68,4,2025-02-21_09h42.05.055,comp,2024.2.4,None,2025-02-21 09h59.44.947135 -0500,
128,128,0,critical,hdw,35.0,2.1,upper,200.0,125.0,127.0,127.0,125.0,200.0,1,1.8303723335266113,None,,,,,0,0,0,0,0,128,128,21,417.3458766937256,,,,,,,,,,,,,,,,,,,,,,,,,,,,,,,,,,,,,,,,,,,,,,,,,,,,,,,,,,,,,,,,,,,,,,,,,,,,,,,,,200.0,125.0,127.0,127.0,125.0,200.0,2.1,2.12,-222,-288,0,-282,260,252,417.3309166431427,417.3309919834137,417.3344073295593,417.3458766937256,417.4943616390228,417.4943616390228,417.4943616390228,417.4943616390228,417.4943616390228,417.4943616390228,417.4943616390228,419.1798801422119,1,1.8303723335266113,None,,,,,,,,,,,,,,,,,,68,4,2025-02-21_09h42.05.055,comp,2024.2.4,None,2025-02-21 09h59.44.947135 -0500,
129,129,0,filler_random,None,None,None,None,None,None,None,None,None,None,1,1.0673606395721436,None,,,,,0,0,0,0,0,129,129,133,419.19690680503845,,,,,,,,,,,,,,,,,,,,,,,,,,,,,,,,,,,,,,,,,,,,,,,,,,,,,,,,,,,,,,,,,,,,,,,,,,,,,,,,,116.20143037548618,155.20351545941844,76.65218697013981,84.6377392735312,65.68849081603635,113.30049217258122,4.0,4.1,-216,-268,0,9,195,-264,419.18203473091125,419.18211555480957,419.18609619140625,419.19690680503845,419.3393340110779,419.3393340110779,419.3393340110779,419.3393340110779,419.3393340110779,419.3393340110779,419.3393340110779,420.2806797027588,1,1.0673606395721436,None,,,,,,,,,,,,,,,,,,68,4,2025-02-21_09h42.05.055,comp,2024.2.4,None,2025-02-21 09h59.44.947135 -0500,
130,130,0,critical,hdw,20.0,1.0,lower,133.0,57.0,78.0,78.0,57.0,133.0,1,1.6645073890686035,None,,,,,0,0,0,0,0,130,130,114,420.29628705978394,,,,,,,,,,,,,,,,,,,,,,,,,,,,,,,,,,,,,,,,,,,,,,,,,,,,,,,,,,,,,,,,,,,,,,,,,,,,,,,,,133.0,57.0,78.0,78.0,57.0,133.0,1.0,1.3,316,-279,480,-262,682,-285,420.2823498249054,420.2824251651764,420.285986661911,420.29628705978394,420.44738578796387,420.44738578796387,420.44738578796387,420.44738578796387,420.44738578796387,420.44738578796387,420.44738578796387,421.977819442749,1,1.6645073890686035,None,,,,,,,,,,,,,,,,,,68,4,2025-02-21_09h42.05.055,comp,2024.2.4,None,2025-02-21 09h59.44.947135 -0500,
131,131,0,filler_square,None,None,None,None,None,None,None,None,None,None,3,1.4697585105895996,None,,,,,0,0,0,0,0,131,131,179,421.99451541900635,,,,,,,,,,,,,,,,,,,,,,,,,,,,,,,,,,,,,,,,,,,,,,,,,,,,,,,,,,,,,,,,,,,,,,,,,,,,,,,,,151.73598534011376,64.11970299187804,90.95948851830357,150.50761298276694,155.57767425057608,155.57767425057608,2.1,2.12,-203,-281,0,-269,249,268,421.9800155162811,421.980140209198,421.9841368198395,421.99451541900635,422.14297819137573,422.14297819137573,422.14297819137573,422.14297819137573,422.14297819137573,422.14297819137573,422.14297819137573,423.4772164821625,3,1.4697585105895996,None,,,,,,,,,,,,,,,,,,68,4,2025-02-21_09h42.05.055,comp,2024.2.4,None,2025-02-21 09h59.44.947135 -0500,
132,132,0,filler_square,None,None,None,None,None,None,None,None,None,None,3,1.0545482635498047,None,,,,,0,0,0,0,0,132,132,183,423.4976785182953,,,,,,,,,,,,,,,,,,,,,,,,,,,,,,,,,,,,,,,,,,,,,,,,,,,,,,,,,,,,,,,,,,,,,,,,,,,,,,,,,109.69155395609886,99.73352859449392,115.83564147780143,68.51459159605486,138.76021679897372,138.76021679897372,3.0,3.1,-180,250,0,1,200,-259,423.4789538383484,423.47902846336365,423.4825689792633,423.4976785182953,423.64493322372437,423.64493322372437,423.64493322372437,423.64493322372437,423.64493322372437,423.64493322372437,423.64493322372437,424.55688667297363,3,1.0545482635498047,None,,,,,,,,,,,,,,,,,,68,4,2025-02-21_09h42.05.055,comp,2024.2.4,None,2025-02-21 09h59.44.947135 -0500,
133,133,0,critical,hwd,20.0,1.0,upper,200.0,125.0,125.0,200.0,141.0,141.0,2,2.0736443996429443,None,,,,,0,0,0,0,0,133,133,103,424.5748426914215,,,,,,,,,,,,,,,,,,,,,,,,,,,,,,,,,,,,,,,,,,,,,,,,,,,,,,,,,,,,,,,,,,,,,,,,,,,,,,,,,200.0,125.0,125.0,200.0,141.0,141.0,1.0,1.2,-258,3,0,5,266,9,424.5583713054657,424.5584499835968,424.5617218017578,424.5748426914215,424.71632719039917,424.71632719039917,424.71632719039917,424.71632719039917,424.71632719039917,424.71632719039917,424.71632719039917,426.6615581512451,2,2.0736443996429443,None,,,,,,,,,,,,,,,,,,68,4,2025-02-21_09h42.05.055,comp,2024.2.4,None,2025-02-21 09h59.44.947135 -0500,
134,134,0,critical,hwd,35.0,1.0,upper,200.0,125.0,125.0,200.0,127.0,127.0,1,1.5564451217651367,None,,,,,0,0,0,0,0,134,134,97,426.67581248283386,,,,,,,,,,,,,,,,,,,,,,,,,,,,,,,,,,,,,,,,,,,,,,,,,,,,,,,,,,,,,,,,,,,,,,,,,,,,,,,,,200.0,125.0,125.0,200.0,127.0,127.0,1.0,1.1,-738,280,-480,267,-220,281,426.6631727218628,426.6632516384125,426.6667904853821,426.67581248283386,426.82966804504395,426.82966804504395,426.82966804504395,426.82966804504395,426.82966804504395,426.82966804504395,426.82966804504395,428.2462170124054,1,1.5564451217651367,None,,,,,,,,,,,,,,,,,,68,4,2025-02-21_09h42.05.055,comp,2024.2.4,None,2025-02-21 09h59.44.947135 -0500,
135,135,0,critical,whd,20.0,4.0,upper,125.0,200.0,200.0,125.0,141.0,141.0,1,1.6733272075653076,None,,,,,0,0,0,0,0,135,135,95,428.2624855041504,,,,,,,,,,,,,,,,,,,,,,,,,,,,,,,,,,,,,,,,,,,,,,,,,,,,,,,,,,,,,,,,,,,,,,,,,,,,,,,,,125.0,200.0,200.0,125.0,141.0,141.0,4.0,4.2,-258,-1,0,-283,229,-10,428.2477035522461,428.24780321121216,428.2521605491638,428.2624855041504,428.4125804901123,428.4125804901123,428.4125804901123,428.4125804901123,428.4125804901123,428.4125804901123,428.4125804901123,429.9369020462036,1,1.6733272075653076,None,,,,,,,,,,,,,,,,,,68,4,2025-02-21_09h42.05.055,comp,2024.2.4,None,2025-02-21 09h59.44.947135 -0500,
136,136,0,critical,dhw,35.0,2.1,upper,127.0,127.0,200.0,125.0,125.0,200.0,2,2.289533853530884,None,,,,,0,0,0,0,0,136,136,1,429.95176434516907,,,,,,,,,,,,,,,,,,,,,,,,,,,,,,,,,,,,,,,,,,,,,,,,,,,,,,,,,,,,,,,,,,,,,,,,,,,,,,,,,127.0,127.0,200.0,125.0,125.0,200.0,2.1,2.11,-222,282,0,258,258,-259,429.93731904029846,429.9373378753662,429.93816781044006,429.95176434516907,430.0975215435028,430.0975215435028,430.0975215435028,430.0975215435028,430.0975215435028,430.0975215435028,430.0975215435028,432.2481918334961,2,2.289533853530884,None,,,,,,,,,,,,,,,,,,68,4,2025-02-21_09h42.05.055,comp,2024.2.4,None,2025-02-21 09h59.44.947135 -0500,
137,137,0,critical,hwd,20.0,1.0,lower,133.0,57.0,57.0,133.0,78.0,78.0,2,3.119121551513672,None,,,,,0,0,0,0,0,137,137,102,432.2653658390045,,,,,,,,,,,,,,,,,,,,,,,,,,,,,,,,,,,,,,,,,,,,,,,,,,,,,,,,,,,,,,,,,,,,,,,,,,,,,,,,,133.0,57.0,57.0,133.0,78.0,78.0,1.0,1.2,-191,-4,0,-3,202,11,432.2497818470001,432.2498993873596,432.25371837615967,432.2653658390045,432.4011924266815,432.4011924266815,432.4011924266815,432.4011924266815,432.4011924266815,432.4011924266815,432.4011924266815,435.401695728302,2,3.119121551513672,None,,,,,,,,,,,,,,,,,,68,4,2025-02-21_09h42.05.055,comp,2024.2.4,None,2025-02-21 09h59.44.947135 -0500,
138,138,0,filler_random,None,None,None,None,None,None,None,None,None,None,2,0.932218074798584,None,,,,,0,0,0,0,0,138,138,165,435.4201362133026,,,,,,,,,,,,,,,,,,,,,,,,,,,,,,,,,,,,,,,,,,,,,,,,,,,,,,,,,,,,,,,,,,,,,,,,,,,,,,,,,166.34300157248606,76.61237177644973,139.39129783790844,160.66751955641945,66.98090092432669,158.52470616564943,4.0,4.1,-215,-255,0,13,256,-265,435.4035725593567,435.40370774269104,435.4073586463928,435.4201362133026,435.5645651817322,435.5645651817322,435.5645651817322,435.5645651817322,435.5645651817322,435.5645651817322,435.5645651817322,436.3654201030731,2,0.932218074798584,None,,,,,,,,,,,,,,,,,,68,4,2025-02-21_09h42.05.055,comp,2024.2.4,None,2025-02-21 09h59.44.947135 -0500,
139,139,0,critical,dhw,35.0,2.1,lower,70.0,70.0,133.0,57.0,57.0,133.0,3,2.483438491821289,None,,,,,0,0,0,0,0,139,139,24,436.3808958530426,,,,,,,,,,,,,,,,,,,,,,,,,,,,,,,,,,,,,,,,,,,,,,,,,,,,,,,,,,,,,,,,,,,,,,,,,,,,,,,,,70.0,70.0,133.0,57.0,57.0,133.0,2.1,2.11,-160,269,0,261,191,-255,436.36700463294983,436.36708521842957,436.37060475349426,436.3808958530426,436.5343041419983,436.5343041419983,436.5343041419983,436.5343041419983,436.5343041419983,436.5343041419983,436.5343041419983,438.8813636302948,3,2.483438491821289,None,,,,,,,,,,,,,,,,,,68,4,2025-02-21_09h42.05.055,comp,2024.2.4,None,2025-02-21 09h59.44.947135 -0500,
140,140,0,catch,None,None,None,None,None,None,None,None,None,None,2,9.453999519348145,None,,,,,0,0,0,0,0,140,140,120,438.8982186317444,,,,,,,,,,,,,,,,,,,,,,,,,,,,,,,,,,,,,,,,,,,,,,,,,,,,,,,,,,,,,,,,,,,,,,,,,,,,,,,,,103,87,134,191,96,94,3.0,3.2,-235,-281,0,-10,238,277,438.8833649158478,438.8834431171417,438.8869161605835,438.8982186317444,439.04860281944275,439.04860281944275,439.04860281944275,439.04860281944275,439.04860281944275,439.04860281944275,439.04860281944275,448.36914324760437,2,9.453999519348145,None,,,,,,,,,,,,,,,,,,68,4,2025-02-21_09h42.05.055,comp,2024.2.4,None,2025-02-21 09h59.44.947135 -0500,
141,141,0,filler_random,None,None,None,None,None,None,None,None,None,None,1,1.7852973937988281,None,,,,,0,0,0,0,0,141,141,159,448.3838269710541,,,,,,,,,,,,,,,,,,,,,,,,,,,,,,,,,,,,,,,,,,,,,,,,,,,,,,,,,,,,,,,,,,,,,,,,,,,,,,,,,158.52191331406675,163.658705017442,190.23580864793973,75.5968018048188,177.6600222197834,84.94335243899465,4.0,4.2,-216,5,0,-257,176,-11,448.3709166049957,448.3709931373596,448.37438440322876,448.3838269710541,448.5379550457001,448.5379550457001,448.5379550457001,448.5379550457001,448.5379550457001,448.5379550457001,448.5379550457001,450.1758248806,1,1.7852973937988281,None,,,,,,,,,,,,,,,,,,68,4,2025-02-21_09h42.05.055,comp,2024.2.4,None,2025-02-21 09h59.44.947135 -0500,
142,142,0,critical,hdw,20.0,4.0,lower,133.0,57.0,78.0,78.0,57.0,133.0,3,2.310466766357422,None,,,,,0,0,0,0,0,142,142,118,450.19381737709045,,,,,,,,,,,,,,,,,,,,,,,,,,,,,,,,,,,,,,,,,,,,,,,,,,,,,,,,,,,,,,,,,,,,,,,,,,,,,,,,,133.0,57.0,78.0,78.0,57.0,133.0,4.0,4.2,-164,-10,0,-251,202,10,450.1773087978363,450.17738604545593,450.1806483268738,450.19381737709045,450.33499002456665,450.33499002456665,450.33499002456665,450.33499002456665,450.33499002456665,450.33499002456665,450.33499002456665,452.50718998908997,3,2.310466766357422,None,,,,,,,,,,,,,,,,,,68,4,2025-02-21_09h42.05.055,comp,2024.2.4,None,2025-02-21 09h59.44.947135 -0500,
