thisN,thisTrialN,thisRepN,effect,order,distance,config,diag,h_1,w_1,h_2,w_2,h_3,w_3,rect_choice.keys,rect_choice.rt,rect_choice.duration,instructions_loop.thisRepN,instructions_loop.thisTrialN,instructions_loop.thisN,instructions_loop.thisIndex,blocks.thisRepN,blocks.thisTrialN,blocks.thisN,blocks.thisIndex,trials.thisRepN,trials.thisTrialN,trials.thisN,trials.thisIndex,thisRow.t,notes,consent.started,agree_button.started,decline_button.started,consent_img.started,mouse.started,consent.stopped,agree_button.numClicks,agree_button.timesOn,agree_button.timesOff,decline_button.numClicks,decline_button.timesOn,decline_button.timesOff,mouse.x,mouse.y,mouse.leftButton,mouse.midButton,mouse.rightButton,mouse.time,mouse.clicked_name,exp_params.started,exp_params.stopped,welcome.started,welcome_text.started,welcome.stopped,instructions_1.started,instructions_1_text_1.started,instructions_1_text_2.started,key_resp.started,instructions_1.stopped,instructions_loop.key_resp.keys,instructions_loop.key_resp.rt,instructions_loop.key_resp.duration,instructions_2.started,instructions_2_text_1.started,instructions_2_text_2.started,key_resp_2.started,instructions_2.stopped,instructions_loop.key_resp_2.keys,instructions_loop.key_resp_2.rt,instructions_loop.key_resp_2.duration,instructions_3.started,instructions_3_text_1.started,r1_instr3.started,r2_instr3.started,r3_instr3.started,r1_instr3_label.started,r2_instr3_label.started,r3_instr3_label.started,instructions_3_text_3.started,instructions_3_text_4.started,key_resp_3.started,instructions_3.stopped,instructions_loop.key_resp_3.keys,instructions_loop.key_resp_3.rt,instructions_loop.key_resp_3.duration,instructions_4.started,instructions_4_text_1.started,instructions_4_text_3.started,instructions_4_text_2.started,key_resp_4.started,instructions_4.stopped,instructions_loop.key_resp_4.keys,instructions_loop.key_resp_4.rt,instructions_loop.key_resp_4.duration,instructions_5.started,instructions_5_text_1.started,instructions_5_text_2.started,key_resp_5.started,instructions_5.stopped,instructions_loop.key_resp_5.keys,instructions_loop.key_resp_5.rt,instructions_loop.key_resp_5.duration,start_exp.started,start_exp_text.started,key_resp_6.started,start_exp.stopped,key_resp_6.keys,key_resp_6.rt,key_resp_6.duration,h_1_tmp,w_1_tmp,h_2_tmp,w_2_tmp,h_3_tmp,w_3_tmp,config_tmp,config_tmp_1,r_1_x,r_1_y,r_2_x,r_2_y,r_3_x,r_3_y,pre_trial.started,pre_trial.stopped,choice_trial.started,rect_choice.started,r_1.started,r_2.started,r_3.started,r_1_label.started,r_2_label.started,r_3_label.started,prompt.started,choice_trial.stopped,trials.rect_choice.keys,trials.rect_choice.rt,trials.rect_choice.duration,end_block.started,end_block_text.started,end_block.stopped,end.started,end_text.started,key_resp_7.started,end.stopped,key_resp_7.keys,key_resp_7.rt,key_resp_7.duration,debriefing.started,debrief_form.started,end_debrief.started,debriefing.stopped,end_debrief.keys,end_debrief.rt,end_debrief.duration,participant,computer,date,expName,psychopyVersion,frameRate,expStart,
,,,,,,,,,,,,,,,,,,,,,,,,,,,,,,,0.015388965606689453,0.04201483726501465,0.04201483726501465,0.04201483726501465,0.015123367309570312,5.170299053192139,1,[5.127054452896118],[5.127064943313599],0,,,[-63.0],[-530.0],[1],[0],[0],[5.154205560684204],['agree_button'],,,,,,,,,,,,,,,,,,,,,,,,,,,,,,,,,,,,,,,,,,,,,,,,,,,,,,,,,,,,,,,,,,,,,,,,,,,,,,,,,,,,,,,,,,,,,,,,,,,,,,,,,,,69,5,2025-02-21_09h42.05.612,comp,2024.2.4,60.08256815023851,2025-02-21 10h02.16.801828 -0500,
,,,,,,,,,,,,,,,,,,,,,,,,,,,,,,,,,,,,,,,,,,,,,,,,,,5.170555591583252,5.170590400695801,,,,,,,,,,,,,,,,,,,,,,,,,,,,,,,,,,,,,,,,,,,,,,,,,,,,,,,,,,,,,,,,,,,,,,,,,,,,,,,,,,,,,,,,,,,,,,,,,,,,,,,,,69,5,2025-02-21_09h42.05.612,comp,2024.2.4,60.08256815023851,2025-02-21 10h02.16.801828 -0500,
,,,,,,,,,,,,,,,,,,,,,,,,,,,,,,,,,,,,,,,,,,,,,,,,,,,,5.1707892417907715,5.18467378616333,7.177409648895264,,,,,,,,,,,,,,,,,,,,,,,,,,,,,,,,,,,,,,,,,,,,,,,,,,,,,,,,,,,,,,,,,,,,,,,,,,,,,,,,,,,,,,,,,,,,,,,,,,,,,,69,5,2025-02-21_09h42.05.612,comp,2024.2.4,60.08256815023851,2025-02-21 10h02.16.801828 -0500,
0,0,0,,,,,,,,,,,,,,,0,0,0,0,,,,,,,,,7.194308519363403,,,,,,,,,,,,,,,,,,,,,,,,,,7.1779420375823975,7.194308519363403,7.194308519363403,8.677404165267944,12.462156534194946,space,3.766906499862671,None,12.462259531021118,12.477571249008179,12.477571249008179,13.977431058883667,18.579333543777466,space,4.592692613601685,None,18.57942223548889,18.602269411087036,18.602269411087036,18.602269411087036,18.602269411087036,18.602269411087036,18.602269411087036,18.602269411087036,18.602269411087036,18.602269411087036,20.094408750534058,26.345730781555176,space,6.243930101394653,None,26.34582018852234,26.361308813095093,26.361308813095093,26.361308813095093,27.860812664031982,37.41173839569092,space,9.533503532409668,None,37.411821365356445,37.427374839782715,37.427374839782715,38.927199602127075,40.67818355560303,space,1.7381422519683838,None,40.67832088470459,40.693846702575684,40.693846702575684,42.128150939941406,space,1.4281635284423828,None,,,,,,,,,,,,,,,,,,,,,,,,,,,,,,,,,,,,,,,,,,,,,,,69,5,2025-02-21_09h42.05.612,comp,2024.2.4,60.08256815023851,2025-02-21 10h02.16.801828 -0500,
0,0,0,filler_random,None,None,None,None,None,None,None,None,None,None,1,1.9352755546569824,None,,,,,0,0,0,0,0,0,0,139,42.18699049949646,,,,,,,,,,,,,,,,,,,,,,,,,,,,,,,,,,,,,,,,,,,,,,,,,,,,,,,,,,,,,,,,,,,,,,,,,,,,,,,,,181.44308187800902,184.29804056972992,58.029120041278716,100.62442883281953,116.7935314041691,115.58328263160743,1.0,1.2,-238,3,0,-13,204,-14,42.17316484451294,42.173224687576294,42.17519521713257,42.18699049949646,42.33382844924927,42.33382844924927,42.33382844924927,42.33382844924927,42.33382844924927,42.33382844924927,42.33382844924927,44.12857222557068,1,1.9352755546569824,None,,,,,,,,,,,,,,,,,,69,5,2025-02-21_09h42.05.612,comp,2024.2.4,60.08256815023851,2025-02-21 10h02.16.801828 -0500,
1,1,0,critical,dhw,20.0,2.1,upper,141.0,141.0,200.0,125.0,125.0,200.0,3,5.826023101806641,None,,,,,0,0,0,0,0,1,1,27,44.1440966129303,,,,,,,,,,,,,,,,,,,,,,,,,,,,,,,,,,,,,,,,,,,,,,,,,,,,,,,,,,,,,,,,,,,,,,,,,,,,,,,,,141.0,141.0,200.0,125.0,125.0,200.0,2.1,2.11,-229,270,0,265,258,-271,44.12941908836365,44.12945866584778,44.13151574134827,44.1440966129303,44.294312477111816,44.294312477111816,44.294312477111816,44.294312477111816,44.294312477111816,44.294312477111816,44.294312477111816,49.97864627838135,3,5.826023101806641,None,,,,,,,,,,,,,,,,,,69,5,2025-02-21_09h42.05.612,comp,2024.2.4,60.08256815023851,2025-02-21 10h02.16.801828 -0500,
2,2,0,filler_random,None,None,None,None,None,None,None,None,None,None,2,2.0493671894073486,None,,,,,0,0,0,0,0,2,2,166,49.99433445930481,,,,,,,,,,,,,,,,,,,,,,,,,,,,,,,,,,,,,,,,,,,,,,,,,,,,,,,,,,,,,,,,,,,,,,,,,,,,,,,,,187.60825837446785,123.665407332887,169.78766264441617,197.71981293210686,131.7174075386701,173.75261106301383,4.0,4.1,-257,-265,0,-1,282,-288,49.979612588882446,49.97965359687805,49.982085943222046,49.99433445930481,50.144158601760864,50.144158601760864,50.144158601760864,50.144158601760864,50.144158601760864,50.144158601760864,50.144158601760864,52.061875343322754,2,2.0493671894073486,None,,,,,,,,,,,,,,,,,,69,5,2025-02-21_09h42.05.612,comp,2024.2.4,60.08256815023851,2025-02-21 10h02.16.801828 -0500,
3,3,0,filler_square,None,None,None,None,None,None,None,None,None,None,1,1.782235860824585,None,,,,,0,0,0,0,0,3,3,207,52.077226638793945,,,,,,,,,,,,,,,,,,,,,,,,,,,,,,,,,,,,,,,,,,,,,,,,,,,,,,,,,,,,,,,,,,,,,,,,,,,,,,,,,138.68279285209735,138.68279285209735,84.33448644937602,96.49100112587959,75.57231597778902,126.61240101019968,2.1,2.11,-214,263,0,265,208,-285,52.06289005279541,52.06292963027954,52.06542205810547,52.077226638793945,52.227330923080444,52.227330923080444,52.227330923080444,52.227330923080444,52.227330923080444,52.227330923080444,52.227330923080444,53.86183452606201,1,1.782235860824585,None,,,,,,,,,,,,,,,,,,69,5,2025-02-21_09h42.05.612,comp,2024.2.4,60.08256815023851,2025-02-21 10h02.16.801828 -0500,
4,4,0,critical,dhw,35.0,2.1,upper,127.0,127.0,200.0,125.0,125.0,200.0,3,2.5670390129089355,None,,,,,0,0,0,0,0,4,4,1,53.87729048728943,,,,,,,,,,,,,,,,,,,,,,,,,,,,,,,,,,,,,,,,,,,,,,,,,,,,,,,,,,,,,,,,,,,,,,,,,,,,,,,,,127.0,127.0,200.0,125.0,125.0,200.0,2.1,2.12,-222,-278,0,-261,258,264,53.86261773109436,53.86265754699707,53.864699363708496,53.87729048728943,54.027573347091675,54.027573347091675,54.027573347091675,54.027573347091675,54.027573347091675,54.027573347091675,54.027573347091675,56.46186447143555,3,2.5670390129089355,None,,,,,,,,,,,,,,,,,,69,5,2025-02-21_09h42.05.612,comp,2024.2.4,60.08256815023851,2025-02-21 10h02.16.801828 -0500,
5,5,0,critical,hdw,20.0,4.0,lower,133.0,57.0,78.0,78.0,57.0,133.0,2,4.19862699508667,None,,,,,0,0,0,0,0,5,5,118,56.477224588394165,,,,,,,,,,,,,,,,,,,,,,,,,,,,,,,,,,,,,,,,,,,,,,,,,,,,,,,,,,,,,,,,,,,,,,,,,,,,,,,,,133.0,57.0,78.0,78.0,57.0,133.0,4.0,4.2,-164,2,0,-269,202,5,56.46267247200012,56.46271276473999,56.46534705162048,56.477224588394165,56.62727069854736,56.62727069854736,56.62727069854736,56.62727069854736,56.62727069854736,56.62727069854736,56.62727069854736,60.678351640701294,2,4.19862699508667,None,,,,,,,,,,,,,,,,,,69,5,2025-02-21_09h42.05.612,comp,2024.2.4,60.08256815023851,2025-02-21 10h02.16.801828 -0500,
6,6,0,critical,whd,20.0,3.0,upper,125.0,200.0,200.0,125.0,141.0,141.0,1,2.4354312419891357,None,,,,,0,0,0,0,0,6,6,93,60.69386410713196,,,,,,,,,,,,,,,,,,,,,,,,,,,,,,,,,,,,,,,,,,,,,,,,,,,,,,,,,,,,,,,,,,,,,,,,,,,,,,,,,125.0,200.0,200.0,125.0,141.0,141.0,3.0,3.1,-258,260,0,-17,229,-262,60.67914342880249,60.67918372154236,60.68240404129028,60.69386410713196,60.84423542022705,60.84423542022705,60.84423542022705,60.84423542022705,60.84423542022705,60.84423542022705,60.84423542022705,63.14504909515381,1,2.4354312419891357,None,,,,,,,,,,,,,,,,,,69,5,2025-02-21_09h42.05.612,comp,2024.2.4,60.08256815023851,2025-02-21 10h02.16.801828 -0500,
7,7,0,filler_random,None,None,None,None,None,None,None,None,None,None,3,2.4672279357910156,None,,,,,0,0,0,0,0,7,7,162,63.160367250442505,,,,,,,,,,,,,,,,,,,,,,,,,,,,,,,,,,,,,,,,,,,,,,,,,,,,,,,,,,,,,,,,,,,,,,,,,,,,,,,,,124.853696646695,182.7603572438918,68.44272410247032,106.28865704843092,136.33655074747907,190.57610724692398,2.1,2.11,-241,274,0,288,244,-260,63.14595079421997,63.145989656448364,63.14794039726257,63.160367250442505,63.31063747406006,63.31063747406006,63.31063747406006,63.31063747406006,63.31063747406006,63.31063747406006,63.31063747406006,65.62937545776367,3,2.4672279357910156,None,,,,,,,,,,,,,,,,,,69,5,2025-02-21_09h42.05.612,comp,2024.2.4,60.08256815023851,2025-02-21 10h02.16.801828 -0500,
8,8,0,catch,None,None,None,None,None,None,None,None,None,None,3,1.6378092765808105,None,,,,,0,0,0,0,0,8,8,122,65.644047498703,,,,,,,,,,,,,,,,,,,,,,,,,,,,,,,,,,,,,,,,,,,,,,,,,,,,,,,,,,,,,,,,,,,,,,,,,,,,,,,,,76,114,118,72,163,162,1.0,1.2,-189,4,0,-18,213,-4,65.63037753105164,65.63041973114014,65.63230323791504,65.644047498703,65.79392790794373,65.79392790794373,65.79392790794373,65.79392790794373,65.79392790794373,65.79392790794373,65.79392790794373,67.29502296447754,3,1.6378092765808105,None,,,,,,,,,,,,,,,,,,69,5,2025-02-21_09h42.05.612,comp,2024.2.4,60.08256815023851,2025-02-21 10h02.16.801828 -0500,
9,9,0,critical,hwd,35.0,2.1,upper,200.0,125.0,125.0,200.0,127.0,127.0,2,2.2755229473114014,None,,,,,0,0,0,0,0,9,9,41,67.31030011177063,,,,,,,,,,,,,,,,,,,,,,,,,,,,,,,,,,,,,,,,,,,,,,,,,,,,,,,,,,,,,,,,,,,,,,,,,,,,,,,,,200.0,125.0,125.0,200.0,127.0,127.0,2.1,2.11,-258,286,0,261,260,-276,67.29584431648254,67.29588413238525,67.29804277420044,67.31030011177063,67.4606671333313,67.4606671333313,67.4606671333313,67.4606671333313,67.4606671333313,67.4606671333313,67.4606671333313,69.59511160850525,2,2.2755229473114014,None,,,,,,,,,,,,,,,,,,69,5,2025-02-21_09h42.05.612,comp,2024.2.4,60.08256815023851,2025-02-21 10h02.16.801828 -0500,
10,10,0,filler_square,None,None,None,None,None,None,None,None,None,None,2,3.4329590797424316,None,,,,,0,0,0,0,0,10,10,209,69.61053943634033,,,,,,,,,,,,,,,,,,,,,,,,,,,,,,,,,,,,,,,,,,,,,,,,,,,,,,,,,,,,,,,,,,,,,,,,,,,,,,,,,72.08359182876815,69.32762540634046,75.36504836157629,75.36504836157629,59.3857685890245,60.53826901555425,2.2,2.21,-168,-290,0,289,164,263,69.5960853099823,69.59612774848938,69.59854030609131,69.61053943634033,69.76033329963684,69.76033329963684,69.76033329963684,69.76033329963684,69.76033329963684,69.76033329963684,69.76033329963684,73.04507350921631,2,3.4329590797424316,None,,,,,,,,,,,,,,,,,,69,5,2025-02-21_09h42.05.612,comp,2024.2.4,60.08256815023851,2025-02-21 10h02.16.801828 -0500,
11,11,0,critical,dhw,20.0,1.0,upper,141.0,141.0,200.0,125.0,125.0,200.0,3,3.045206069946289,None,,,,,0,0,0,0,0,11,11,55,73.06053805351257,,,,,,,,,,,,,,,,,,,,,,,,,,,,,,,,,,,,,,,,,,,,,,,,,,,,,,,,,,,,,,,,,,,,,,,,,,,,,,,,,141.0,141.0,200.0,125.0,125.0,200.0,1.0,1.1,-709,255,-480,281,-222,276,73.04589986801147,73.04594111442566,73.04850912094116,73.06053805351257,73.21067452430725,73.21067452430725,73.21067452430725,73.21067452430725,73.21067452430725,73.21067452430725,73.21067452430725,76.11181116104126,3,3.045206069946289,None,,,,,,,,,,,,,,,,,,69,5,2025-02-21_09h42.05.612,comp,2024.2.4,60.08256815023851,2025-02-21 10h02.16.801828 -0500,
12,12,0,catch,None,None,None,None,None,None,None,None,None,None,2,1.826547622680664,None,,,,,0,0,0,0,0,12,12,125,76.12723469734192,,,,,,,,,,,,,,,,,,,,,,,,,,,,,,,,,,,,,,,,,,,,,,,,,,,,,,,,,,,,,,,,,,,,,,,,,,,,,,,,,87,103,154,171,92,98,2.1,2.11,-233,270,0,256,230,-261,76.11283326148987,76.11287474632263,76.11531400680542,76.12723469734192,76.27716946601868,76.27716946601868,76.27716946601868,76.27716946601868,76.27716946601868,76.27716946601868,76.27716946601868,77.96156692504883,2,1.826547622680664,None,,,,,,,,,,,,,,,,,,69,5,2025-02-21_09h42.05.612,comp,2024.2.4,60.08256815023851,2025-02-21 10h02.16.801828 -0500,
13,13,0,filler_square,None,None,None,None,None,None,None,None,None,None,3,3.60024356842041,None,,,,,0,0,0,0,0,13,13,182,77.97718667984009,,,,,,,,,,,,,,,,,,,,,,,,,,,,,,,,,,,,,,,,,,,,,,,,,,,,,,,,,,,,,,,,,,,,,,,,,,,,,,,,,84.69641901855867,115.81687502477396,135.25266021192354,113.71281743595196,141.43910891782957,141.43910891782957,1.0,1.3,269,-262,480,-257,704,-265,77.96253299713135,77.96257519721985,77.96493291854858,77.97718667984009,78.12707567214966,78.12707567214966,78.12707567214966,78.12707567214966,78.12707567214966,78.12707567214966,78.12707567214966,81.59486269950867,3,3.60024356842041,None,,,,,,,,,,,,,,,,,,69,5,2025-02-21_09h42.05.612,comp,2024.2.4,60.08256815023851,2025-02-21 10h02.16.801828 -0500,
14,14,0,critical,whd,35.0,2.1,upper,125.0,200.0,200.0,125.0,127.0,127.0,1,2.4873054027557373,None,,,,,0,0,0,0,0,14,14,37,81.61016917228699,,,,,,,,,,,,,,,,,,,,,,,,,,,,,,,,,,,,,,,,,,,,,,,,,,,,,,,,,,,,,,,,,,,,,,,,,,,,,,,,,125.0,200.0,200.0,125.0,127.0,127.0,2.1,2.11,-258,251,0,273,222,-281,81.59568190574646,81.59572243690491,81.59817910194397,81.61016917228699,81.76050305366516,81.76050305366516,81.76050305366516,81.76050305366516,81.76050305366516,81.76050305366516,81.76050305366516,84.11170721054077,1,2.4873054027557373,None,,,,,,,,,,,,,,,,,,69,5,2025-02-21_09h42.05.612,comp,2024.2.4,60.08256815023851,2025-02-21 10h02.16.801828 -0500,
15,15,0,filler_random,None,None,None,None,None,None,None,None,None,None,2,1.867110252380371,None,,,,,0,0,0,0,0,15,15,161,84.12693881988525,,,,,,,,,,,,,,,,,,,,,,,,,,,,,,,,,,,,,,,,,,,,,,,,,,,,,,,,,,,,,,,,,,,,,,,,,,,,,,,,,121.1674344117587,89.58383519734025,129.1111537972359,138.87102415930607,132.3418033978154,90.60452714733276,3.0,3.1,-210,282,0,-3,211,-282,84.11265897750854,84.11270070075989,84.1151237487793,84.12693881988525,84.27710747718811,84.27710747718811,84.27710747718811,84.27710747718811,84.27710747718811,84.27710747718811,84.27710747718811,86.01152539253235,2,1.867110252380371,None,,,,,,,,,,,,,,,,,,69,5,2025-02-21_09h42.05.612,comp,2024.2.4,60.08256815023851,2025-02-21 10h02.16.801828 -0500,
16,16,0,critical,hwd,35.0,3.0,upper,200.0,125.0,125.0,200.0,127.0,127.0,2,2.3587913513183594,None,,,,,0,0,0,0,0,16,16,99,86.02687525749207,,,,,,,,,,,,,,,,,,,,,,,,,,,,,,,,,,,,,,,,,,,,,,,,,,,,,,,,,,,,,,,,,,,,,,,,,,,,,,,,,200.0,125.0,125.0,200.0,127.0,127.0,3.0,3.2,-258,-261,0,-1,260,288,86.01232933998108,86.01236987113953,86.01475977897644,86.02687525749207,86.1772391796112,86.1772391796112,86.1772391796112,86.1772391796112,86.1772391796112,86.1772391796112,86.1772391796112,88.39498043060303,2,2.3587913513183594,None,,,,,,,,,,,,,,,,,,69,5,2025-02-21_09h42.05.612,comp,2024.2.4,60.08256815023851,2025-02-21 10h02.16.801828 -0500,
17,17,0,critical,hdw,20.0,1.0,lower,133.0,57.0,78.0,78.0,57.0,133.0,3,3.1273038387298584,None,,,,,0,0,0,0,0,17,17,114,88.41038179397583,,,,,,,,,,,,,,,,,,,,,,,,,,,,,,,,,,,,,,,,,,,,,,,,,,,,,,,,,,,,,,,,,,,,,,,,,,,,,,,,,133.0,57.0,78.0,78.0,57.0,133.0,1.0,1.1,-644,270,-480,251,-278,261,88.39579796791077,88.39583826065063,88.39842343330383,88.41038179397583,88.56023049354553,88.56023049354553,88.56023049354553,88.56023049354553,88.56023049354553,88.56023049354553,88.56023049354553,91.5447347164154,3,3.1273038387298584,None,,,,,,,,,,,,,,,,,,69,5,2025-02-21_09h42.05.612,comp,2024.2.4,60.08256815023851,2025-02-21 10h02.16.801828 -0500,
18,18,0,critical,dwh,20.0,2.1,lower,78.0,78.0,57.0,133.0,133.0,57.0,2,5.904453992843628,None,,,,,0,0,0,0,0,18,18,6,91.56042122840881,,,,,,,,,,,,,,,,,,,,,,,,,,,,,,,,,,,,,,,,,,,,,,,,,,,,,,,,,,,,,,,,,,,,,,,,,,,,,,,,,78.0,78.0,57.0,133.0,133.0,57.0,2.1,2.12,-202,-274,0,-252,191,263,91.54555177688599,91.54559350013733,91.54770565032959,91.56042122840881,91.71024465560913,91.71024465560913,91.71024465560913,91.71024465560913,91.71024465560913,91.71024465560913,91.71024465560913,97.47819590568542,2,5.904453992843628,None,,,,,,,,,,,,,,,,,,69,5,2025-02-21_09h42.05.612,comp,2024.2.4,60.08256815023851,2025-02-21 10h02.16.801828 -0500,
19,19,0,filler_square,None,None,None,None,None,None,None,None,None,None,3,2.7080016136169434,None,,,,,0,0,0,0,0,19,19,200,97.49355936050415,,,,,,,,,,,,,,,,,,,,,,,,,,,,,,,,,,,,,,,,,,,,,,,,,,,,,,,,,,,,,,,,,,,,,,,,,,,,,,,,,88.99355979590213,86.10250736375971,57.84325328383981,77.32382002523124,113.30112454819272,113.30112454819272,2.1,2.11,-178,261,0,255,191,-262,97.47916865348816,97.47922110557556,97.48248195648193,97.49355936050415,97.64370250701904,97.64370250701904,97.64370250701904,97.64370250701904,97.64370250701904,97.64370250701904,97.64370250701904,100.21142482757568,3,2.7080016136169434,None,,,,,,,,,,,,,,,,,,69,5,2025-02-21_09h42.05.612,comp,2024.2.4,60.08256815023851,2025-02-21 10h02.16.801828 -0500,
20,20,0,critical,hdw,20.0,1.0,upper,200.0,125.0,141.0,141.0,125.0,200.0,3,3.070314407348633,None,,,,,0,0,0,0,0,20,20,115,100.22732186317444,,,,,,,,,,,,,,,,,,,,,,,,,,,,,,,,,,,,,,,,,,,,,,,,,,,,,,,,,,,,,,,,,,,,,,,,,,,,,,,,,200.0,125.0,141.0,141.0,125.0,200.0,1.0,1.1,-709,283,-480,278,-214,256,100.2122642993927,100.21230506896973,100.21439552307129,100.22732186317444,100.37710380554199,100.37710380554199,100.37710380554199,100.37710380554199,100.37710380554199,100.37710380554199,100.37710380554199,103.31157279014587,3,3.070314407348633,None,,,,,,,,,,,,,,,,,,69,5,2025-02-21_09h42.05.612,comp,2024.2.4,60.08256815023851,2025-02-21 10h02.16.801828 -0500,
21,21,0,critical,hdw,20.0,2.1,lower,133.0,57.0,78.0,78.0,57.0,133.0,3,3.532383918762207,None,,,,,0,0,0,0,0,21,21,46,103.32676553726196,,,,,,,,,,,,,,,,,,,,,,,,,,,,,,,,,,,,,,,,,,,,,,,,,,,,,,,,,,,,,,,,,,,,,,,,,,,,,,,,,133.0,57.0,78.0,78.0,57.0,133.0,2.1,2.12,-164,-269,0,-259,202,283,103.31237888336182,103.31241917610168,103.3147759437561,103.32676553726196,103.47690749168396,103.47690749168396,103.47690749168396,103.47690749168396,103.47690749168396,103.47690749168396,103.47690749168396,106.86145305633545,3,3.532383918762207,None,,,,,,,,,,,,,,,,,,69,5,2025-02-21_09h42.05.612,comp,2024.2.4,60.08256815023851,2025-02-21 10h02.16.801828 -0500,
22,22,0,critical,wdh,35.0,4.0,lower,57.0,133.0,70.0,70.0,133.0,57.0,1,2.7822625637054443,None,,,,,0,0,0,0,0,22,22,76,106.87695670127869,,,,,,,,,,,,,,,,,,,,,,,,,,,,,,,,,,,,,,,,,,,,,,,,,,,,,,,,,,,,,,,,,,,,,,,,,,,,,,,,,57.0,133.0,70.0,70.0,133.0,57.0,4.0,4.2,-198,0,0,-259,160,14,106.86225032806396,106.86229252815247,106.864413022995,106.87695670127869,107.02700138092041,107.02700138092041,107.02700138092041,107.02700138092041,107.02700138092041,107.02700138092041,107.02700138092041,109.66154479980469,1,2.7822625637054443,None,,,,,,,,,,,,,,,,,,69,5,2025-02-21_09h42.05.612,comp,2024.2.4,60.08256815023851,2025-02-21 10h02.16.801828 -0500,
23,23,0,critical,dwh,20.0,4.0,upper,141.0,141.0,125.0,200.0,200.0,125.0,2,5.90847373008728,None,,,,,0,0,0,0,0,23,23,71,109.67707848548889,,,,,,,,,,,,,,,,,,,,,,,,,,,,,,,,,,,,,,,,,,,,,,,,,,,,,,,,,,,,,,,,,,,,,,,,,,,,,,,,,141.0,141.0,125.0,200.0,200.0,125.0,4.0,4.1,-266,-254,0,2,258,-262,109.66238021850586,109.66242480278015,109.664621591568,109.67707848548889,109.82714200019836,109.82714200019836,109.82714200019836,109.82714200019836,109.82714200019836,109.82714200019836,109.82714200019836,115.59485125541687,2,5.90847373008728,None,,,,,,,,,,,,,,,,,,69,5,2025-02-21_09h42.05.612,comp,2024.2.4,60.08256815023851,2025-02-21 10h02.16.801828 -0500,
24,24,0,critical,whd,35.0,2.1,lower,57.0,133.0,133.0,57.0,70.0,70.0,1,4.422165870666504,None,,,,,0,0,0,0,0,24,24,36,115.61040019989014,,,,,,,,,,,,,,,,,,,,,,,,,,,,,,,,,,,,,,,,,,,,,,,,,,,,,,,,,,,,,,,,,,,,,,,,,,,,,,,,,57.0,133.0,133.0,57.0,70.0,70.0,2.1,2.12,-191,-254,0,-283,160,253,115.59566593170166,115.59570670127869,115.59784626960754,115.61040019989014,115.76011323928833,115.76011323928833,115.76011323928833,115.76011323928833,115.76011323928833,115.76011323928833,115.76011323928833,120.04486584663391,1,4.422165870666504,None,,,,,,,,,,,,,,,,,,69,5,2025-02-21_09h42.05.612,comp,2024.2.4,60.08256815023851,2025-02-21 10h02.16.801828 -0500,
25,25,0,critical,wdh,20.0,4.0,lower,57.0,133.0,78.0,78.0,133.0,57.0,1,3.5254218578338623,None,,,,,0,0,0,0,0,25,25,82,120.06003952026367,,,,,,,,,,,,,,,,,,,,,,,,,,,,,,,,,,,,,,,,,,,,,,,,,,,,,,,,,,,,,,,,,,,,,,,,,,,,,,,,,57.0,133.0,78.0,78.0,133.0,57.0,4.0,4.2,-202,-19,0,-284,164,16,120.04562950134277,120.04567003250122,120.0476176738739,120.06003952026367,120.21025037765503,120.21025037765503,120.21025037765503,120.21025037765503,120.21025037765503,120.21025037765503,120.21025037765503,123.59444856643677,1,3.5254218578338623,None,,,,,,,,,,,,,,,,,,69,5,2025-02-21_09h42.05.612,comp,2024.2.4,60.08256815023851,2025-02-21 10h02.16.801828 -0500,
26,26,0,filler_random,None,None,None,None,None,None,None,None,None,None,2,4.59135365486145,None,,,,,0,0,0,0,0,26,26,135,123.61025762557983,,,,,,,,,,,,,,,,,,,,,,,,,,,,,,,,,,,,,,,,,,,,,,,,,,,,,,,,,,,,,,,,,,,,,,,,,,,,,,,,,78.20803152205204,198.8776803813529,121.46443635392413,182.8589976793511,134.11152745069498,172.62524751708878,3.0,3.2,-287,-288,0,-11,274,255,123.59532141685486,123.5953598022461,123.59739637374878,123.61025762557983,123.76031255722046,123.76031255722046,123.76031255722046,123.76031255722046,123.76031255722046,123.76031255722046,123.76031255722046,128.2114064693451,2,4.59135365486145,None,,,,,,,,,,,,,,,,,,69,5,2025-02-21_09h42.05.612,comp,2024.2.4,60.08256815023851,2025-02-21 10h02.16.801828 -0500,
27,27,0,catch,None,None,None,None,None,None,None,None,None,None,2,1.7586796283721924,None,,,,,0,0,0,0,0,27,27,120,128.22696328163147,,,,,,,,,,,,,,,,,,,,,,,,,,,,,,,,,,,,,,,,,,,,,,,,,,,,,,,,,,,,,,,,,,,,,,,,,,,,,,,,,83,107,146,179,76,114,3.0,3.1,-239,285,0,-8,242,-286,128.21246147155762,128.21250438690186,128.2146031856537,128.22696328163147,128.37678265571594,128.37678265571594,128.37678265571594,128.37678265571594,128.37678265571594,128.37678265571594,128.37678265571594,129.9944920539856,2,1.7586796283721924,None,,,,,,,,,,,,,,,,,,69,5,2025-02-21_09h42.05.612,comp,2024.2.4,60.08256815023851,2025-02-21 10h02.16.801828 -0500,
28,28,0,critical,hdw,20.0,2.1,upper,200.0,125.0,141.0,141.0,125.0,200.0,3,3.5274269580841064,None,,,,,0,0,0,0,0,28,28,47,130.01007676124573,,,,,,,,,,,,,,,,,,,,,,,,,,,,,,,,,,,,,,,,,,,,,,,,,,,,,,,,,,,,,,,,,,,,,,,,,,,,,,,,,200.0,125.0,141.0,141.0,125.0,200.0,2.1,2.12,-229,-283,0,-254,266,273,129.99528741836548,129.99532628059387,129.99762153625488,130.01007676124573,130.1602485179901,130.1602485179901,130.1602485179901,130.1602485179901,130.1602485179901,130.1602485179901,130.1602485179901,133.54470133781433,3,3.5274269580841064,None,,,,,,,,,,,,,,,,,,69,5,2025-02-21_09h42.05.612,comp,2024.2.4,60.08256815023851,2025-02-21 10h02.16.801828 -0500,
29,29,0,filler_random,None,None,None,None,None,None,None,None,None,None,2,3.057807683944702,None,,,,,0,0,0,0,0,29,29,157,133.5601987838745,,,,,,,,,,,,,,,,,,,,,,,,,,,,,,,,,,,,,,,,,,,,,,,,,,,,,,,,,,,,,,,,,,,,,,,,,,,,,,,,,135.07535771246648,82.9160687047031,117.43203078614823,143.32146634778212,89.19163241333644,185.67252198157732,1.0,1.1,-689,258,-480,283,-220,282,133.54568099975586,133.5457215309143,133.54784774780273,133.5601987838745,133.7100441455841,133.7100441455841,133.7100441455841,133.7100441455841,133.7100441455841,133.7100441455841,133.7100441455841,136.62805604934692,2,3.057807683944702,None,,,,,,,,,,,,,,,,,,69,5,2025-02-21_09h42.05.612,comp,2024.2.4,60.08256815023851,2025-02-21 10h02.16.801828 -0500,
30,30,0,filler_random,None,None,None,None,None,None,None,None,None,None,3,1.3501639366149902,None,,,,,0,0,0,0,0,30,30,160,136.64355444908142,,,,,,,,,,,,,,,,,,,,,,,,,,,,,,,,,,,,,,,,,,,,,,,,,,,,,,,,,,,,,,,,,,,,,,,,,,,,,,,,,94.51260933681066,62.54138123685835,96.70328241429468,189.77555729196695,183.35112388449795,154.87553618644844,4.0,4.2,-222,-9,0,-274,268,18,136.6290009021759,136.62904405593872,136.63151955604553,136.64355444908142,136.79332756996155,136.79332756996155,136.79332756996155,136.79332756996155,136.79332756996155,136.79332756996155,136.79332756996155,138.01139950752258,3,1.3501639366149902,None,,,,,,,,,,,,,,,,,,69,5,2025-02-21_09h42.05.612,comp,2024.2.4,60.08256815023851,2025-02-21 10h02.16.801828 -0500,
31,31,0,filler_random,None,None,None,None,None,None,None,None,None,None,2,1.5342984199523926,None,,,,,0,0,0,0,0,31,31,155,138.02653408050537,,,,,,,,,,,,,,,,,,,,,,,,,,,,,,,,,,,,,,,,,,,,,,,,,,,,,,,,,,,,,,,,,,,,,,,,,,,,,,,,,145.00752493453854,84.38659436432292,199.0408753709597,140.00832076117854,87.44201743844837,165.4364199201366,2.1,2.12,-208,-269,0,-271,249,271,138.0122675895691,138.0123062133789,138.01456713676453,138.02653408050537,138.1767590045929,138.1767590045929,138.1767590045929,138.1767590045929,138.1767590045929,138.1767590045929,138.1767590045929,139.57807660102844,2,1.5342984199523926,None,,,,,,,,,,,,,,,,,,69,5,2025-02-21_09h42.05.612,comp,2024.2.4,60.08256815023851,2025-02-21 10h02.16.801828 -0500,
32,32,0,critical,whd,35.0,1.0,lower,57.0,133.0,133.0,57.0,70.0,70.0,1,4.6170172691345215,None,,,,,0,0,0,0,0,32,32,84,139.59318685531616,,,,,,,,,,,,,,,,,,,,,,,,,,,,,,,,,,,,,,,,,,,,,,,,,,,,,,,,,,,,,,,,,,,,,,,,,,,,,,,,,57.0,133.0,133.0,57.0,70.0,70.0,1.0,1.3,289,-258,480,-279,640,-265,139.57890248298645,139.57894253730774,139.58114671707153,139.59318685531616,139.7433090209961,139.7433090209961,139.7433090209961,139.7433090209961,139.7433090209961,139.7433090209961,139.7433090209961,144.227698802948,1,4.6170172691345215,None,,,,,,,,,,,,,,,,,,69,5,2025-02-21_09h42.05.612,comp,2024.2.4,60.08256815023851,2025-02-21 10h02.16.801828 -0500,
33,33,0,filler_random,None,None,None,None,None,None,None,None,None,None,3,1.7893197536468506,None,,,,,0,0,0,0,0,33,33,132,144.2430853843689,,,,,,,,,,,,,,,,,,,,,,,,,,,,,,,,,,,,,,,,,,,,,,,,,,,,,,,,,,,,,,,,,,,,,,,,,,,,,,,,,83.47430881232336,89.07803964424181,65.4275086283295,86.76890141028424,149.83003142286367,157.43852862740954,4.0,4.2,-184,7,0,-272,218,-10,144.22861766815186,144.22865867614746,144.23109698295593,144.2430853843689,144.3934042453766,144.3934042453766,144.3934042453766,144.3934042453766,144.3934042453766,144.3934042453766,144.3934042453766,146.0445201396942,3,1.7893197536468506,None,,,,,,,,,,,,,,,,,,69,5,2025-02-21_09h42.05.612,comp,2024.2.4,60.08256815023851,2025-02-21 10h02.16.801828 -0500,
34,34,0,critical,hdw,35.0,1.0,upper,200.0,125.0,127.0,127.0,125.0,200.0,3,2.709737777709961,None,,,,,0,0,0,0,0,34,34,109,146.05970764160156,,,,,,,,,,,,,,,,,,,,,,,,,,,,,,,,,,,,,,,,,,,,,,,,,,,,,,,,,,,,,,,,,,,,,,,,,,,,,,,,,200.0,125.0,127.0,127.0,125.0,200.0,1.0,1.3,258,-279,480,-268,740,-281,146.04532718658447,146.0453679561615,146.0477602481842,146.05970764160156,146.21013832092285,146.21013832092285,146.21013832092285,146.21013832092285,146.21013832092285,146.21013832092285,146.21013832092285,148.77813291549683,3,2.709737777709961,None,,,,,,,,,,,,,,,,,,69,5,2025-02-21_09h42.05.612,comp,2024.2.4,60.08256815023851,2025-02-21 10h02.16.801828 -0500,
35,35,0,critical,hwd,20.0,3.0,upper,200.0,125.0,125.0,200.0,141.0,141.0,2,2.303072929382324,None,,,,,0,0,0,0,0,35,35,105,148.79348707199097,,,,,,,,,,,,,,,,,,,,,,,,,,,,,,,,,,,,,,,,,,,,,,,,,,,,,,,,,,,,,,,,,,,,,,,,,,,,,,,,,200.0,125.0,125.0,200.0,141.0,141.0,3.0,3.1,-258,280,0,-5,266,-270,148.77895164489746,148.77899265289307,148.7814438343048,148.79348707199097,148.94387197494507,148.94387197494507,148.94387197494507,148.94387197494507,148.94387197494507,148.94387197494507,148.94387197494507,151.11130023002625,2,2.303072929382324,None,,,,,,,,,,,,,,,,,,69,5,2025-02-21_09h42.05.612,comp,2024.2.4,60.08256815023851,2025-02-21 10h02.16.801828 -0500,
36,36,0,critical,dwh,20.0,1.0,lower,78.0,78.0,57.0,133.0,133.0,57.0,2,3.964003801345825,None,,,,,0,0,0,0,0,36,36,66,151.1264157295227,,,,,,,,,,,,,,,,,,,,,,,,,,,,,,,,,,,,,,,,,,,,,,,,,,,,,,,,,,,,,,,,,,,,,,,,,,,,,,,,,78.0,78.0,57.0,133.0,133.0,57.0,1.0,1.2,-202,-12,0,10,191,-14,151.11207723617554,151.1121175289154,151.11441612243652,151.1264157295227,151.27656936645508,151.27656936645508,151.27656936645508,151.27656936645508,151.27656936645508,151.27656936645508,151.27656936645508,155.09448385238647,2,3.964003801345825,None,,,,,,,,,,,,,,,,,,69,5,2025-02-21_09h42.05.612,comp,2024.2.4,60.08256815023851,2025-02-21 10h02.16.801828 -0500,
37,37,0,filler_square,None,None,None,None,None,None,None,None,None,None,3,1.4592862129211426,None,,,,,0,0,0,0,0,37,37,205,155.11002039909363,,,,,,,,,,,,,,,,,,,,,,,,,,,,,,,,,,,,,,,,,,,,,,,,,,,,,,,,,,,,,,,,,,,,,,,,,,,,,,,,,57.44472127379487,99.03183437533133,68.85986320276062,72.6872361436521,99.61626503260564,99.61626503260564,2.2,2.22,-182,272,0,-273,182,-265,155.09543895721436,155.09547972679138,155.0976231098175,155.11002039909363,155.25977778434753,155.25977778434753,155.25977778434753,155.25977778434753,155.25977778434753,155.25977778434753,155.25977778434753,156.5775806903839,3,1.4592862129211426,None,,,,,,,,,,,,,,,,,,69,5,2025-02-21_09h42.05.612,comp,2024.2.4,60.08256815023851,2025-02-21 10h02.16.801828 -0500,
38,38,0,filler_square,None,None,None,None,None,None,None,None,None,None,1,2.233431816101074,None,,,,,0,0,0,0,0,38,38,206,156.59327673912048,,,,,,,,,,,,,,,,,,,,,,,,,,,,,,,,,,,,,,,,,,,,,,,,,,,,,,,,,,,,,,,,,,,,,,,,,,,,,,,,,137.80371103046065,137.80371103046065,122.44731674573688,96.1442706214226,90.72887414502752,70.49890057590824,1.0,1.2,-213,10,0,-11,179,8,156.5784957408905,156.5785355567932,156.580956697464,156.59327673912048,156.74320483207703,156.74320483207703,156.74320483207703,156.74320483207703,156.74320483207703,156.74320483207703,156.74320483207703,158.82788634300232,1,2.233431816101074,None,,,,,,,,,,,,,,,,,,69,5,2025-02-21_09h42.05.612,comp,2024.2.4,60.08256815023851,2025-02-21 10h02.16.801828 -0500,
39,39,0,critical,wdh,35.0,3.0,upper,125.0,200.0,127.0,127.0,200.0,125.0,1,2.166959524154663,None,,,,,0,0,0,0,0,39,39,75,158.84334993362427,,,,,,,,,,,,,,,,,,,,,,,,,,,,,,,,,,,,,,,,,,,,,,,,,,,,,,,,,,,,,,,,,,,,,,,,,,,,,,,,,125.0,200.0,127.0,127.0,200.0,125.0,3.0,3.1,-260,289,0,-17,222,-251,158.8286530971527,158.82869267463684,158.83118605613708,158.84334993362427,158.99357843399048,158.99357843399048,158.99357843399048,158.99357843399048,158.99357843399048,158.99357843399048,158.99357843399048,161.0280933380127,1,2.166959524154663,None,,,,,,,,,,,,,,,,,,69,5,2025-02-21_09h42.05.612,comp,2024.2.4,60.08256815023851,2025-02-21 10h02.16.801828 -0500,
40,40,0,critical,hdw,35.0,1.0,lower,133.0,57.0,70.0,70.0,57.0,133.0,3,2.4942362308502197,None,,,,,0,0,0,0,0,40,40,108,161.0430245399475,,,,,,,,,,,,,,,,,,,,,,,,,,,,,,,,,,,,,,,,,,,,,,,,,,,,,,,,,,,,,,,,,,,,,,,,,,,,,,,,,133.0,57.0,70.0,70.0,57.0,133.0,1.0,1.1,-640,260,-480,280,-282,254,161.02890634536743,161.02894639968872,161.03142428398132,161.0430245399475,161.19326734542847,161.19326734542847,161.19326734542847,161.19326734542847,161.19326734542847,161.19326734542847,161.19326734542847,163.5443241596222,3,2.4942362308502197,None,,,,,,,,,,,,,,,,,,69,5,2025-02-21_09h42.05.612,comp,2024.2.4,60.08256815023851,2025-02-21 10h02.16.801828 -0500,
41,41,0,filler_square,None,None,None,None,None,None,None,None,None,None,2,1.7145516872406006,None,,,,,0,0,0,0,0,41,41,175,163.5600790977478,,,,,,,,,,,,,,,,,,,,,,,,,,,,,,,,,,,,,,,,,,,,,,,,,,,,,,,,,,,,,,,,,,,,,,,,,,,,,,,,,99.59514751153101,116.36634301344478,119.71128271446142,119.71128271446142,58.73882656942553,82.34155900451006,2.2,2.21,-214,-281,0,275,197,268,163.54528760910034,163.5453290939331,163.5474247932434,163.5600790977478,163.70993041992188,163.70993041992188,163.70993041992188,163.70993041992188,163.70993041992188,163.70993041992188,163.70993041992188,165.27773690223694,2,1.7145516872406006,None,,,,,,,,,,,,,,,,,,69,5,2025-02-21_09h42.05.612,comp,2024.2.4,60.08256815023851,2025-02-21 10h02.16.801828 -0500,
42,42,0,critical,dwh,35.0,4.0,upper,127.0,127.0,125.0,200.0,200.0,125.0,2,2.549499273300171,None,,,,,0,0,0,0,0,42,42,65,165.29328989982605,,,,,,,,,,,,,,,,,,,,,,,,,,,,,,,,,,,,,,,,,,,,,,,,,,,,,,,,,,,,,,,,,,,,,,,,,,,,,,,,,127.0,127.0,125.0,200.0,200.0,125.0,4.0,4.2,-260,-15,0,-280,258,-12,165.2785472869873,165.27858805656433,165.28099989891052,165.29328989982605,165.42786502838135,165.42786502838135,165.42786502838135,165.42786502838135,165.42786502838135,165.42786502838135,165.42786502838135,167.84456205368042,2,2.549499273300171,None,,,,,,,,,,,,,,,,,,69,5,2025-02-21_09h42.05.612,comp,2024.2.4,60.08256815023851,2025-02-21 10h02.16.801828 -0500,
43,43,0,critical,hwd,20.0,2.1,upper,200.0,125.0,125.0,200.0,141.0,141.0,2,2.1336898803710938,None,,,,,0,0,0,0,0,43,43,19,167.85988402366638,,,,,,,,,,,,,,,,,,,,,,,,,,,,,,,,,,,,,,,,,,,,,,,,,,,,,,,,,,,,,,,,,,,,,,,,,,,,,,,,,200.0,125.0,125.0,200.0,141.0,141.0,2.1,2.11,-258,268,0,257,266,-261,167.84536457061768,167.84540557861328,167.84744787216187,167.85988402366638,168.01003551483154,168.01003551483154,168.01003551483154,168.01003551483154,168.01003551483154,168.01003551483154,168.01003551483154,170.0111207962036,2,2.1336898803710938,None,,,,,,,,,,,,,,,,,,69,5,2025-02-21_09h42.05.612,comp,2024.2.4,60.08256815023851,2025-02-21 10h02.16.801828 -0500,
44,44,0,critical,whd,20.0,2.1,upper,125.0,200.0,200.0,125.0,141.0,141.0,2,2.8701326847076416,None,,,,,0,0,0,0,0,44,44,15,170.02631545066833,,,,,,,,,,,,,,,,,,,,,,,,,,,,,,,,,,,,,,,,,,,,,,,,,,,,,,,,,,,,,,,,,,,,,,,,,,,,,,,,,125.0,200.0,200.0,125.0,141.0,141.0,2.1,2.12,-258,-283,0,-258,229,282,170.01193165779114,170.011971950531,170.01423382759094,170.02631545066833,170.176602602005,170.176602602005,170.176602602005,170.176602602005,170.176602602005,170.176602602005,170.176602602005,172.9112458229065,2,2.8701326847076416,None,,,,,,,,,,,,,,,,,,69,5,2025-02-21_09h42.05.612,comp,2024.2.4,60.08256815023851,2025-02-21 10h02.16.801828 -0500,
45,45,0,filler_random,None,None,None,None,None,None,None,None,None,None,2,1.6672463417053223,None,,,,,0,0,0,0,0,45,45,150,172.9262731075287,,,,,,,,,,,,,,,,,,,,,,,,,,,,,,,,,,,,,,,,,,,,,,,,,,,,,,,,,,,,,,,,,,,,,,,,,,,,,,,,,175.07055638138735,67.78152465050462,147.6798304299591,199.91678020616195,78.14325519947987,115.52447851001646,3.0,3.2,-230,-276,0,17,254,274,172.91218185424805,172.91223621368408,172.91453504562378,172.9262731075287,173.0764708518982,173.0764708518982,173.0764708518982,173.0764708518982,173.0764708518982,173.0764708518982,173.0764708518982,174.61108684539795,2,1.6672463417053223,None,,,,,,,,,,,,,,,,,,69,5,2025-02-21_09h42.05.612,comp,2024.2.4,60.08256815023851,2025-02-21 10h02.16.801828 -0500,
46,46,0,filler_square,None,None,None,None,None,None,None,None,None,None,1,1.654707431793213,None,,,,,0,0,0,0,0,46,46,185,174.6263267993927,,,,,,,,,,,,,,,,,,,,,,,,,,,,,,,,,,,,,,,,,,,,,,,,,,,,,,,,,,,,,,,,,,,,,,,,,,,,,,,,,114.31283925848473,114.31283925848473,98.28465020609886,65.20033454384978,107.88769955313869,91.14643846760782,4.0,4.2,-186,-10,0,-287,174,5,174.61204361915588,174.61208391189575,174.61437892913818,174.6263267993927,174.7764608860016,174.7764608860016,174.7764608860016,174.7764608860016,174.7764608860016,174.7764608860016,174.7764608860016,176.2941792011261,1,1.654707431793213,None,,,,,,,,,,,,,,,,,,69,5,2025-02-21_09h42.05.612,comp,2024.2.4,60.08256815023851,2025-02-21 10h02.16.801828 -0500,
47,47,0,filler_random,None,None,None,None,None,None,None,None,None,None,3,2.1867949962615967,None,,,,,0,0,0,0,0,47,47,144,176.30963397026062,,,,,,,,,,,,,,,,,,,,,,,,,,,,,,,,,,,,,,,,,,,,,,,,,,,,,,,,,,,,,,,,,,,,,,,,,,,,,,,,,64.80589706549738,104.66811673455948,97.67899840652774,155.2852213681127,166.66465805306694,165.5462888470413,4.0,4.1,-226,-252,0,17,256,-253,176.2950940132141,176.29513597488403,176.29838705062866,176.30963397026062,176.459881067276,176.459881067276,176.459881067276,176.459881067276,176.459881067276,176.459881067276,176.459881067276,178.5108687877655,3,2.1867949962615967,None,,,,,,,,,,,,,,,,,,69,5,2025-02-21_09h42.05.612,comp,2024.2.4,60.08256815023851,2025-02-21 10h02.16.801828 -0500,
48,48,0,filler_random,None,None,None,None,None,None,None,None,None,None,2,5.578760385513306,None,,,,,0,0,0,0,0,48,48,138,178.52627611160278,,,,,,,,,,,,,,,,,,,,,,,,,,,,,,,,,,,,,,,,,,,,,,,,,,,,,,,,,,,,,,,,,,,,,,,,,,,,,,,,,94.70961332456932,136.49329333742327,119.47587010088627,135.56318357615407,87.44411817343142,173.72354473470483,2.1,2.12,-232,-267,0,-276,251,273,178.51178550720215,178.51182746887207,178.5139422416687,178.52627611160278,178.67654275894165,178.67654275894165,178.67654275894165,178.67654275894165,178.67654275894165,178.67654275894165,178.67654275894165,184.110906124115,2,5.578760385513306,None,,,,,,,,,,,,,,,,,,69,5,2025-02-21_09h42.05.612,comp,2024.2.4,60.08256815023851,2025-02-21 10h02.16.801828 -0500,
49,49,0,filler_square,None,None,None,None,None,None,None,None,None,None,2,1.4748530387878418,None,,,,,0,0,0,0,0,49,49,202,184.12658405303955,,,,,,,,,,,,,,,,,,,,,,,,,,,,,,,,,,,,,,,,,,,,,,,,,,,,,,,,,,,,,,,,,,,,,,,,,,,,,,,,,130.07283884297942,140.01971624117095,157.29411185327194,157.29411185327194,151.82505824959497,121.07384742524674,3.0,3.2,-245,-270,0,11,235,266,184.11188554763794,184.11192750930786,184.11450219154358,184.12658405303955,184.2764961719513,184.2764961719513,184.2764961719513,184.2764961719513,184.2764961719513,184.2764961719513,184.2764961719513,185.6110816001892,2,1.4748530387878418,None,,,,,,,,,,,,,,,,,,69,5,2025-02-21_09h42.05.612,comp,2024.2.4,60.08256815023851,2025-02-21 10h02.16.801828 -0500,
50,50,0,critical,wdh,35.0,2.1,lower,57.0,133.0,70.0,70.0,133.0,57.0,1,3.2217018604278564,None,,,,,0,0,0,0,0,50,50,32,185.62642526626587,,,,,,,,,,,,,,,,,,,,,,,,,,,,,,,,,,,,,,,,,,,,,,,,,,,,,,,,,,,,,,,,,,,,,,,,,,,,,,,,,57.0,133.0,70.0,70.0,133.0,57.0,2.1,2.12,-198,-289,0,-265,160,280,185.61190700531006,185.61194920539856,185.61406350135803,185.62642526626587,185.77630186080933,185.77630186080933,185.77630186080933,185.77630186080933,185.77630186080933,185.77630186080933,185.77630186080933,188.86074948310852,1,3.2217018604278564,None,,,,,,,,,,,,,,,,,,69,5,2025-02-21_09h42.05.612,comp,2024.2.4,60.08256815023851,2025-02-21 10h02.16.801828 -0500,
51,51,0,filler_random,None,None,None,None,None,None,None,None,None,None,2,2.4931819438934326,None,,,,,0,0,0,0,0,51,51,167,188.87614846229553,,,,,,,,,,,,,,,,,,,,,,,,,,,,,,,,,,,,,,,,,,,,,,,,,,,,,,,,,,,,,,,,,,,,,,,,,,,,,,,,,94.3167077109217,144.6817449279017,155.87609340374473,104.39748286224042,79.17209334485669,158.60699428252477,2.2,2.21,-221,-254,0,254,228,285,188.86165761947632,188.86169958114624,188.8642816543579,188.87614846229553,189.02643179893494,189.02643179893494,189.02643179893494,189.02643179893494,189.02643179893494,189.02643179893494,189.02643179893494,191.3775532245636,2,2.4931819438934326,None,,,,,,,,,,,,,,,,,,69,5,2025-02-21_09h42.05.612,comp,2024.2.4,60.08256815023851,2025-02-21 10h02.16.801828 -0500,
52,52,0,filler_random,None,None,None,None,None,None,None,None,None,None,2,1.6654222011566162,None,,,,,0,0,0,0,0,52,52,143,191.39316153526306,,,,,,,,,,,,,,,,,,,,,,,,,,,,,,,,,,,,,,,,,,,,,,,,,,,,,,,,,,,,,,,,,,,,,,,,,,,,,,,,,156.22892906269115,116.21645879667221,145.2987187101019,166.51716244823402,157.75746738047874,114.91724771986861,2.1,2.12,-237,-273,0,-256,237,258,191.3784704208374,191.37851309776306,191.38094067573547,191.39316153526306,191.54323887825012,191.54323887825012,191.54323887825012,191.54323887825012,191.54323887825012,191.54323887825012,191.54323887825012,193.06113815307617,2,1.6654222011566162,None,,,,,,,,,,,,,,,,,,69,5,2025-02-21_09h42.05.612,comp,2024.2.4,60.08256815023851,2025-02-21 10h02.16.801828 -0500,
53,53,0,filler_square,None,None,None,None,None,None,None,None,None,None,2,1.8927793502807617,None,,,,,0,0,0,0,0,53,53,177,193.07645893096924,,,,,,,,,,,,,,,,,,,,,,,,,,,,,,,,,,,,,,,,,,,,,,,,,,,,,,,,,,,,,,,,,,,,,,,,,,,,,,,,,166.59662842691512,125.57141541922549,185.85748439601306,185.85748439601306,161.50977410857482,170.51560928062818,1.0,1.3,228,-256,480,-267,754,-283,193.06218886375427,193.06224536895752,193.06469678878784,193.07645893096924,193.2265133857727,193.2265133857727,193.2265133857727,193.2265133857727,193.2265133857727,193.2265133857727,193.2265133857727,194.9777910709381,2,1.8927793502807617,None,,,,,,,,,,,,,,,,,,69,5,2025-02-21_09h42.05.612,comp,2024.2.4,60.08256815023851,2025-02-21 10h02.16.801828 -0500,
54,54,0,critical,whd,35.0,3.0,upper,125.0,200.0,200.0,125.0,127.0,127.0,1,4.66576075553894,None,,,,,0,0,0,0,0,54,54,87,194.9931139945984,,,,,,,,,,,,,,,,,,,,,,,,,,,,,,,,,,,,,,,,,,,,,,,,,,,,,,,,,,,,,,,,,,,,,,,,,,,,,,,,,125.0,200.0,200.0,125.0,127.0,127.0,3.0,3.1,-258,275,0,-20,222,-279,194.9785897731781,194.97863125801086,194.98109126091003,194.9931139945984,195.1430947780609,195.1430947780609,195.1430947780609,195.1430947780609,195.1430947780609,195.1430947780609,195.1430947780609,199.66106581687927,1,4.66576075553894,None,,,,,,,,,,,,,,,,,,69,5,2025-02-21_09h42.05.612,comp,2024.2.4,60.08256815023851,2025-02-21 10h02.16.801828 -0500,
55,55,0,filler_random,None,None,None,None,None,None,None,None,None,None,2,3.4197587966918945,None,,,,,0,0,0,0,0,55,55,153,199.67648196220398,,,,,,,,,,,,,,,,,,,,,,,,,,,,,,,,,,,,,,,,,,,,,,,,,,,,,,,,,,,,,,,,,,,,,,,,,,,,,,,,,73.56782074522081,175.7993143704615,88.2318579519732,114.1457089521528,183.34711907795156,57.426168885978,4.0,4.1,-241,-265,0,-18,182,-275,199.66194939613342,199.6619894504547,199.66407465934753,199.67648196220398,199.82635593414307,199.82635593414307,199.82635593414307,199.82635593414307,199.82635593414307,199.82635593414307,199.82635593414307,203.11076951026917,2,3.4197587966918945,None,,,,,,,,,,,,,,,,,,69,5,2025-02-21_09h42.05.612,comp,2024.2.4,60.08256815023851,2025-02-21 10h02.16.801828 -0500,
56,56,0,critical,whd,20.0,2.1,lower,57.0,133.0,133.0,57.0,78.0,78.0,2,5.764078378677368,None,,,,,0,0,0,0,0,56,56,38,203.1261591911316,,,,,,,,,,,,,,,,,,,,,,,,,,,,,,,,,,,,,,,,,,,,,,,,,,,,,,,,,,,,,,,,,,,,,,,,,,,,,,,,,57.0,133.0,133.0,57.0,78.0,78.0,2.1,2.11,-191,274,0,283,164,-279,203.11155319213867,203.11159324645996,203.11366176605225,203.1261591911316,203.27630734443665,203.27630734443665,203.27630734443665,203.27630734443665,203.27630734443665,203.27630734443665,203.27630734443665,208.8941547870636,2,5.764078378677368,None,,,,,,,,,,,,,,,,,,69,5,2025-02-21_09h42.05.612,comp,2024.2.4,60.08256815023851,2025-02-21 10h02.16.801828 -0500,
57,57,0,critical,dhw,20.0,4.0,upper,141.0,141.0,200.0,125.0,125.0,200.0,2,2.8345448970794678,None,,,,,0,0,0,0,0,57,57,59,208.90965867042542,,,,,,,,,,,,,,,,,,,,,,,,,,,,,,,,,,,,,,,,,,,,,,,,,,,,,,,,,,,,,,,,,,,,,,,,,,,,,,,,,141.0,141.0,200.0,125.0,125.0,200.0,4.0,4.2,-229,8,0,-273,258,-4,208.8949418067932,208.8949851989746,208.89738416671753,208.90965867042542,209.0600941181183,209.0600941181183,209.0600941181183,209.0600941181183,209.0600941181183,209.0600941181183,209.0600941181183,211.76078820228577,2,2.8345448970794678,None,,,,,,,,,,,,,,,,,,69,5,2025-02-21_09h42.05.612,comp,2024.2.4,60.08256815023851,2025-02-21 10h02.16.801828 -0500,
58,58,0,filler_square,None,None,None,None,None,None,None,None,None,None,3,2.2336649894714355,None,,,,,0,0,0,0,0,58,58,194,211.7760682106018,,,,,,,,,,,,,,,,,,,,,,,,,,,,,,,,,,,,,,,,,,,,,,,,,,,,,,,,,,,,,,,,,,,,,,,,,,,,,,,,,85.94029034558764,89.71322937142574,74.18452240361826,57.15324729805678,94.92716204876257,94.92716204876257,4.0,4.1,-169,-259,0,-15,172,-288,211.76177144050598,211.76181387901306,211.76428365707397,211.7760682106018,211.92607474327087,211.92607474327087,211.92607474327087,211.92607474327087,211.92607474327087,211.92607474327087,211.92607474327087,214.02727580070496,3,2.2336649894714355,None,,,,,,,,,,,,,,,,,,69,5,2025-02-21_09h42.05.612,comp,2024.2.4,60.08256815023851,2025-02-21 10h02.16.801828 -0500,
59,59,0,critical,hdw,35.0,2.1,upper,200.0,125.0,127.0,127.0,125.0,200.0,3,3.4853551387786865,None,,,,,0,0,0,0,0,59,59,45,214.0426688194275,,,,,,,,,,,,,,,,,,,,,,,,,,,,,,,,,,,,,,,,,,,,,,,,,,,,,,,,,,,,,,,,,,,,,,,,,,,,,,,,,200.0,125.0,127.0,127.0,125.0,200.0,2.1,2.11,-222,267,0,287,260,-288,214.02808094024658,214.02812361717224,214.0304775238037,214.0426688194275,214.1930673122406,214.1930673122406,214.1930673122406,214.1930673122406,214.1930673122406,214.1930673122406,214.1930673122406,217.54405283927917,3,3.4853551387786865,None,,,,,,,,,,,,,,,,,,69,5,2025-02-21_09h42.05.612,comp,2024.2.4,60.08256815023851,2025-02-21 10h02.16.801828 -0500,
60,60,0,filler_random,None,None,None,None,None,None,None,None,None,None,2,2.161592721939087,None,,,,,0,0,0,0,0,60,60,133,217.55933022499084,,,,,,,,,,,,,,,,,,,,,,,,,,,,,,,,,,,,,,,,,,,,,,,,,,,,,,,,,,,,,,,,,,,,,,,,,,,,,,,,,106.14634924395438,61.90231600298096,166.21089897948656,99.67628848833141,89.39686830900692,132.7513540443102,2.1,2.12,-177,-288,0,-275,212,261,217.54497528076172,217.54501676559448,217.547545671463,217.55933022499084,217.70953464508057,217.70953464508057,217.70953464508057,217.70953464508057,217.70953464508057,217.70953464508057,217.70953464508057,219.7274341583252,2,2.161592721939087,None,,,,,,,,,,,,,,,,,,69,5,2025-02-21_09h42.05.612,comp,2024.2.4,60.08256815023851,2025-02-21 10h02.16.801828 -0500,
61,61,0,filler_square,None,None,None,None,None,None,None,None,None,None,2,1.5212342739105225,None,,,,,0,0,0,0,0,61,61,196,219.74298787117004,,,,,,,,,,,,,,,,,,,,,,,,,,,,,,,,,,,,,,,,,,,,,,,,,,,,,,,,,,,,,,,,,,,,,,,,,,,,,,,,,184.39426625896792,148.7564316129816,194.3705119986738,194.3705119986738,193.80922828643713,96.03348230979645,2.1,2.12,-268,-260,0,-265,241,261,219.72839879989624,219.7284414768219,219.73079800605774,219.74298787117004,219.89304041862488,219.89304041862488,219.89304041862488,219.89304041862488,219.89304041862488,219.89304041862488,219.89304041862488,221.2774486541748,2,1.5212342739105225,None,,,,,,,,,,,,,,,,,,69,5,2025-02-21_09h42.05.612,comp,2024.2.4,60.08256815023851,2025-02-21 10h02.16.801828 -0500,
62,62,0,filler_random,None,None,None,None,None,None,None,None,None,None,2,6.324395418167114,None,,,,,0,0,0,0,0,62,62,165,221.2927348613739,,,,,,,,,,,,,,,,,,,,,,,,,,,,,,,,,,,,,,,,,,,,,,,,,,,,,,,,,,,,,,,,,,,,,,,,,,,,,,,,,157.85591164310932,59.62626400034387,76.46400013890346,181.4940818778752,157.47222052944522,80.19221612123211,4.0,4.1,-217,-255,0,-19,227,-250,221.27838778495789,221.27843117713928,221.2804880142212,221.2927348613739,221.44298195838928,221.44298195838928,221.44298195838928,221.44298195838928,221.44298195838928,221.44298195838928,221.44298195838928,227.62714099884033,2,6.324395418167114,None,,,,,,,,,,,,,,,,,,69,5,2025-02-21_09h42.05.612,comp,2024.2.4,60.08256815023851,2025-02-21 10h02.16.801828 -0500,
63,63,0,critical,wdh,20.0,1.0,lower,57.0,133.0,78.0,78.0,133.0,57.0,1,4.4472336769104,None,,,,,0,0,0,0,0,63,63,78,227.64282178878784,,,,,,,,,,,,,,,,,,,,,,,,,,,,,,,,,,,,,,,,,,,,,,,,,,,,,,,,,,,,,,,,,,,,,,,,,,,,,,,,,57.0,133.0,78.0,78.0,133.0,57.0,1.0,1.3,278,-258,480,-251,644,-267,227.62795424461365,227.6279947757721,227.63018655776978,227.64282178878784,227.79274916648865,227.79274916648865,227.79274916648865,227.79274916648865,227.79274916648865,227.79274916648865,227.79274916648865,232.09386730194092,1,4.4472336769104,None,,,,,,,,,,,,,,,,,,69,5,2025-02-21_09h42.05.612,comp,2024.2.4,60.08256815023851,2025-02-21 10h02.16.801828 -0500,
64,64,0,critical,hdw,20.0,4.0,upper,200.0,125.0,141.0,141.0,125.0,200.0,3,3.1333346366882324,None,,,,,0,0,0,0,0,64,64,119,232.1094570159912,,,,,,,,,,,,,,,,,,,,,,,,,,,,,,,,,,,,,,,,,,,,,,,,,,,,,,,,,,,,,,,,,,,,,,,,,,,,,,,,,200.0,125.0,141.0,141.0,125.0,200.0,4.0,4.1,-229,-284,0,18,266,-278,232.0946705341339,232.0947117805481,232.0977439880371,232.1094570159912,232.25951051712036,232.25951051712036,232.25951051712036,232.25951051712036,232.25951051712036,232.25951051712036,232.25951051712036,235.2442066669464,3,3.1333346366882324,None,,,,,,,,,,,,,,,,,,69,5,2025-02-21_09h42.05.612,comp,2024.2.4,60.08256815023851,2025-02-21 10h02.16.801828 -0500,
65,65,0,filler_square,None,None,None,None,None,None,None,None,None,None,3,2.8451015949249268,None,,,,,0,0,0,0,0,65,65,183,235.2596070766449,,,,,,,,,,,,,,,,,,,,,,,,,,,,,,,,,,,,,,,,,,,,,,,,,,,,,,,,,,,,,,,,,,,,,,,,,,,,,,,,,66.8573374427957,90.75089054128966,169.51804069233827,169.51804069233827,158.46573398397106,160.09104650317317,2.1,2.12,-226,-262,0,-277,261,254,235.24517679214478,235.24523210525513,235.24776244163513,235.2596070766449,235.4094898700714,235.4094898700714,235.4094898700714,235.4094898700714,235.4094898700714,235.4094898700714,235.4094898700714,238.11058139801025,3,2.8451015949249268,None,,,,,,,,,,,,,,,,,,69,5,2025-02-21_09h42.05.612,comp,2024.2.4,60.08256815023851,2025-02-21 10h02.16.801828 -0500,
66,66,0,critical,whd,35.0,4.0,upper,125.0,200.0,200.0,125.0,127.0,127.0,1,2.201775550842285,None,,,,,0,0,0,0,0,66,66,89,238.12631916999817,,,,,,,,,,,,,,,,,,,,,,,,,,,,,,,,,,,,,,,,,,,,,,,,,,,,,,,,,,,,,,,,,,,,,,,,,,,,,,,,,125.0,200.0,200.0,125.0,127.0,127.0,4.0,4.1,-258,-264,0,-5,222,-277,238.11140036582947,238.1114411354065,238.11353588104248,238.12631916999817,238.27617001533508,238.27617001533508,238.27617001533508,238.27617001533508,238.27617001533508,238.27617001533508,238.27617001533508,240.34398221969604,1,2.201775550842285,None,,,,,,,,,,,,,,,,,,69,5,2025-02-21_09h42.05.612,comp,2024.2.4,60.08256815023851,2025-02-21 10h02.16.801828 -0500,
67,67,0,filler_random,None,None,None,None,None,None,None,None,None,None,2,1.1213445663452148,None,,,,,0,0,0,0,0,67,67,152,240.3593351840973,,,,,,,,,,,,,,,,,,,,,,,,,,,,,,,,,,,,,,,,,,,,,,,,,,,,,,,,,,,,,,,,,,,,,,,,,,,,,,,,,143.06699953352347,83.75223435818519,193.46606391518114,171.90393189109648,163.22111710387978,88.35359307760575,4.0,4.1,-224,-266,0,-4,226,-274,240.344895362854,240.34493684768677,240.34742712974548,240.3593351840973,240.50944685935974,240.50944685935974,240.50944685935974,240.50944685935974,240.50944685935974,240.50944685935974,240.50944685935974,241.49385356903076,2,1.1213445663452148,None,,,,,,,,,,,,,,,,,,69,5,2025-02-21_09h42.05.612,comp,2024.2.4,60.08256815023851,2025-02-21 10h02.16.801828 -0500,
68,68,0,critical,wdh,20.0,1.0,upper,125.0,200.0,141.0,141.0,200.0,125.0,1,2.084030866622925,None,,,,,0,0,0,0,0,68,68,79,241.50909233093262,,,,,,,,,,,,,,,,,,,,,,,,,,,,,,,,,,,,,,,,,,,,,,,,,,,,,,,,,,,,,,,,,,,,,,,,,,,,,,,,,125.0,200.0,141.0,141.0,200.0,125.0,1.0,1.3,214,-259,480,-281,709,-280,241.49465084075928,241.49469208717346,241.498117685318,241.50909233093262,241.65955233573914,241.65955233573914,241.65955233573914,241.65955233573914,241.65955233573914,241.65955233573914,241.65955233573914,243.6106083393097,1,2.084030866622925,None,,,,,,,,,,,,,,,,,,69,5,2025-02-21_09h42.05.612,comp,2024.2.4,60.08256815023851,2025-02-21 10h02.16.801828 -0500,
69,69,0,critical,dwh,20.0,1.0,upper,141.0,141.0,125.0,200.0,200.0,125.0,2,2.038004159927368,None,,,,,0,0,0,0,0,69,69,67,243.62580728530884,,,,,,,,,,,,,,,,,,,,,,,,,,,,,,,,,,,,,,,,,,,,,,,,,,,,,,,,,,,,,,,,,,,,,,,,,,,,,,,,,141.0,141.0,125.0,200.0,200.0,125.0,1.0,1.3,214,-270,480,-263,738,-278,243.61138224601746,243.61142206192017,243.61375999450684,243.62580728530884,243.77617073059082,243.77617073059082,243.77617073059082,243.77617073059082,243.77617073059082,243.77617073059082,243.77617073059082,245.677405834198,2,2.038004159927368,None,,,,,,,,,,,,,,,,,,69,5,2025-02-21_09h42.05.612,comp,2024.2.4,60.08256815023851,2025-02-21 10h02.16.801828 -0500,
70,70,0,critical,dwh,20.0,2.1,upper,141.0,141.0,125.0,200.0,200.0,125.0,2,2.0442349910736084,None,,,,,0,0,0,0,0,70,70,31,245.69255018234253,,,,,,,,,,,,,,,,,,,,,,,,,,,,,,,,,,,,,,,,,,,,,,,,,,,,,,,,,,,,,,,,,,,,,,,,,,,,,,,,,141.0,141.0,125.0,200.0,200.0,125.0,2.1,2.12,-266,-269,0,-272,258,254,245.67825269699097,245.6782946586609,245.68039202690125,245.69255018234253,245.84276270866394,245.84276270866394,245.84276270866394,245.84276270866394,245.84276270866394,245.84276270866394,245.84276270866394,247.744047164917,2,2.0442349910736084,None,,,,,,,,,,,,,,,,,,69,5,2025-02-21_09h42.05.612,comp,2024.2.4,60.08256815023851,2025-02-21 10h02.16.801828 -0500,
71,71,0,critical,dwh,20.0,3.0,upper,141.0,141.0,125.0,200.0,200.0,125.0,2,2.4828131198883057,None,,,,,0,0,0,0,0,71,71,69,247.75943565368652,,,,,,,,,,,,,,,,,,,,,,,,,,,,,,,,,,,,,,,,,,,,,,,,,,,,,,,,,,,,,,,,,,,,,,,,,,,,,,,,,141.0,141.0,125.0,200.0,200.0,125.0,3.0,3.1,-266,261,0,-15,258,-260,247.74484634399414,247.74488878250122,247.74731183052063,247.75943565368652,247.9095275402069,247.9095275402069,247.9095275402069,247.9095275402069,247.9095275402069,247.9095275402069,247.9095275402069,250.26060461997986,2,2.4828131198883057,None,,,,,,,,,,,,,,,,,,69,5,2025-02-21_09h42.05.612,comp,2024.2.4,60.08256815023851,2025-02-21 10h02.16.801828 -0500,
72,72,0,critical,dhw,35.0,2.1,upper,127.0,127.0,200.0,125.0,125.0,200.0,3,4.0130934715271,None,,,,,0,0,0,0,0,72,72,25,250.275794506073,,,,,,,,,,,,,,,,,,,,,,,,,,,,,,,,,,,,,,,,,,,,,,,,,,,,,,,,,,,,,,,,,,,,,,,,,,,,,,,,,127.0,127.0,200.0,125.0,125.0,200.0,2.1,2.11,-222,251,0,266,258,-255,250.26141357421875,250.26145386695862,250.26380681991577,250.275794506073,250.4260766506195,250.4260766506195,250.4260766506195,250.4260766506195,250.4260766506195,250.4260766506195,250.4260766506195,254.29390287399292,3,4.0130934715271,None,,,,,,,,,,,,,,,,,,69,5,2025-02-21_09h42.05.612,comp,2024.2.4,60.08256815023851,2025-02-21 10h02.16.801828 -0500,
73,73,0,filler_square,None,None,None,None,None,None,None,None,None,None,3,4.73270320892334,None,,,,,0,0,0,0,0,73,73,184,254.30930972099304,,,,,,,,,,,,,,,,,,,,,,,,,,,,,,,,,,,,,,,,,,,,,,,,,,,,,,,,,,,,,,,,,,,,,,,,,,,,,,,,,109.13549099178316,129.40047517874575,98.2546635447793,121.95148276651433,138.0291770472868,138.0291770472868,4.0,4.1,-222,-266,0,-12,226,-265,254.29492259025574,254.29496479034424,254.29762053489685,254.30930972099304,254.45935988426208,254.45935988426208,254.45935988426208,254.45935988426208,254.45935988426208,254.45935988426208,254.45935988426208,259.04376244544983,3,4.73270320892334,None,,,,,,,,,,,,,,,,,,69,5,2025-02-21_09h42.05.612,comp,2024.2.4,60.08256815023851,2025-02-21 10h02.16.801828 -0500,
74,74,0,critical,whd,20.0,1.0,lower,57.0,133.0,133.0,57.0,78.0,78.0,1,2.2041656970977783,None,,,,,0,0,0,0,0,74,74,90,259.0596351623535,,,,,,,,,,,,,,,,,,,,,,,,,,,,,,,,,,,,,,,,,,,,,,,,,,,,,,,,,,,,,,,,,,,,,,,,,,,,,,,,,57.0,133.0,133.0,57.0,78.0,78.0,1.0,1.3,289,-277,480,-271,644,-274,259.0447404384613,259.0447828769684,259.04684829711914,259.0596351623535,259.20925283432007,259.20925283432007,259.20925283432007,259.20925283432007,259.20925283432007,259.20925283432007,259.20925283432007,261.2768590450287,1,2.2041656970977783,None,,,,,,,,,,,,,,,,,,69,5,2025-02-21_09h42.05.612,comp,2024.2.4,60.08256815023851,2025-02-21 10h02.16.801828 -0500,
75,75,0,critical,hdw,20.0,2.1,upper,200.0,125.0,141.0,141.0,125.0,200.0,3,2.3084466457366943,None,,,,,0,0,0,0,0,75,75,23,261.29235434532166,,,,,,,,,,,,,,,,,,,,,,,,,,,,,,,,,,,,,,,,,,,,,,,,,,,,,,,,,,,,,,,,,,,,,,,,,,,,,,,,,200.0,125.0,141.0,141.0,125.0,200.0,2.1,2.11,-229,257,0,274,266,-278,261.277681350708,261.27772331237793,261.2802288532257,261.29235434532166,261.4426922798157,261.4426922798157,261.4426922798157,261.4426922798157,261.4426922798157,261.4426922798157,261.4426922798157,263.61057591438293,3,2.3084466457366943,None,,,,,,,,,,,,,,,,,,69,5,2025-02-21_09h42.05.612,comp,2024.2.4,60.08256815023851,2025-02-21 10h02.16.801828 -0500,
76,76,0,critical,hwd,35.0,2.1,upper,200.0,125.0,125.0,200.0,127.0,127.0,2,1.3585631847381592,None,,,,,0,0,0,0,0,76,76,17,263.62590646743774,,,,,,,,,,,,,,,,,,,,,,,,,,,,,,,,,,,,,,,,,,,,,,,,,,,,,,,,,,,,,,,,,,,,,,,,,,,,,,,,,200.0,125.0,125.0,200.0,127.0,127.0,2.1,2.11,-258,280,0,285,260,-262,263.6113610267639,263.6114032268524,263.6133897304535,263.62590646743774,263.77598237991333,263.77598237991333,263.77598237991333,263.77598237991333,263.77598237991333,263.77598237991333,263.77598237991333,264.99389123916626,2,1.3585631847381592,None,,,,,,,,,,,,,,,,,,69,5,2025-02-21_09h42.05.612,comp,2024.2.4,60.08256815023851,2025-02-21 10h02.16.801828 -0500,
77,77,0,filler_random,None,None,None,None,None,None,None,None,None,None,3,2.249147653579712,None,,,,,0,0,0,0,0,77,77,131,265.00923681259155,,,,,,,,,,,,,,,,,,,,,,,,,,,,,,,,,,,,,,,,,,,,,,,,,,,,,,,,,,,,,,,,,,,,,,,,,,,,,,,,,61.02263610821261,96.41927265884871,157.46261437305387,135.65814485598077,121.77510795552774,196.64734057128803,1.0,1.2,-212,4,0,-17,262,-17,264.9948019981384,264.99484491348267,264.99756813049316,265.00923681259155,265.159303188324,265.159303188324,265.159303188324,265.159303188324,265.159303188324,265.159303188324,265.159303188324,267.2769401073456,3,2.249147653579712,None,,,,,,,,,,,,,,,,,,69,5,2025-02-21_09h42.05.612,comp,2024.2.4,60.08256815023851,2025-02-21 10h02.16.801828 -0500,
78,78,0,filler_random,None,None,None,None,None,None,None,None,None,None,3,1.9880955219268799,None,,,,,0,0,0,0,0,78,78,141,267.29234194755554,,,,,,,,,,,,,,,,,,,,,,,,,,,,,,,,,,,,,,,,,,,,,,,,,,,,,,,,,,,,,,,,,,,,,,,,,,,,,,,,,99.6689476294566,59.31954161818164,148.96159826949304,77.84111168309666,95.55590891719484,188.80040994611184,2.2,2.22,-165,271,0,-286,229,-275,267.27784299850464,267.2778832912445,267.2799401283264,267.29234194755554,267.44259214401245,267.44259214401245,267.44259214401245,267.44259214401245,267.44259214401245,267.44259214401245,267.44259214401245,269.2935914993286,3,1.9880955219268799,None,,,,,,,,,,,,,,,,,,69,5,2025-02-21_09h42.05.612,comp,2024.2.4,60.08256815023851,2025-02-21 10h02.16.801828 -0500,
79,79,0,filler_square,None,None,None,None,None,None,None,None,None,None,2,1.218895673751831,None,,,,,0,0,0,0,0,79,79,186,269.3090126514435,,,,,,,,,,,,,,,,,,,,,,,,,,,,,,,,,,,,,,,,,,,,,,,,,,,,,,,,,,,,,,,,,,,,,,,,,,,,,,,,,86.67170954364818,68.74830439949848,123.29618826985318,123.29618826985318,66.80328418113986,57.730842099117126,1.0,1.3,288,-258,480,-277,667,-276,269.29457545280457,269.2946147918701,269.2970440387726,269.3090126514435,269.45916390419006,269.45916390419006,269.45916390419006,269.45916390419006,269.45916390419006,269.45916390419006,269.45916390419006,270.5434913635254,2,1.218895673751831,None,,,,,,,,,,,,,,,,,,69,5,2025-02-21_09h42.05.612,comp,2024.2.4,60.08256815023851,2025-02-21 10h02.16.801828 -0500,
80,80,0,filler_square,None,None,None,None,None,None,None,None,None,None,3,1.8173677921295166,None,,,,,0,0,0,0,0,80,80,173,270.5590183734894,,,,,,,,,,,,,,,,,,,,,,,,,,,,,,,,,,,,,,,,,,,,,,,,,,,,,,,,,,,,,,,,,,,,,,,,,,,,,,,,,63.92468112118875,66.47994718593485,66.94718804149684,63.4103909958205,67.95729333672634,67.95729333672634,1.0,1.1,-641,287,-480,264,-318,284,270.54443860054016,270.54447960853577,270.5468821525574,270.5590183734894,270.708993434906,270.708993434906,270.708993434906,270.708993434906,270.708993434906,270.708993434906,270.708993434906,272.39352321624756,3,1.8173677921295166,None,,,,,,,,,,,,,,,,,,69,5,2025-02-21_09h42.05.612,comp,2024.2.4,60.08256815023851,2025-02-21 10h02.16.801828 -0500,
81,81,0,critical,hwd,35.0,4.0,upper,200.0,125.0,125.0,200.0,127.0,127.0,1,2.911508083343506,None,,,,,0,0,0,0,0,81,81,101,272.40899085998535,,,,,,,,,,,,,,,,,,,,,,,,,,,,,,,,,,,,,,,,,,,,,,,,,,,,,,,,,,,,,,,,,,,,,,,,,,,,,,,,,200.0,125.0,125.0,200.0,127.0,127.0,4.0,4.1,-258,-253,0,10,260,-264,272.39432644844055,272.39436650276184,272.39676570892334,272.40899085998535,272.5593092441559,272.5593092441559,272.5593092441559,272.5593092441559,272.5593092441559,272.5593092441559,272.5593092441559,275.32699847221375,1,2.911508083343506,None,,,,,,,,,,,,,,,,,,69,5,2025-02-21_09h42.05.612,comp,2024.2.4,60.08256815023851,2025-02-21 10h02.16.801828 -0500,
82,82,0,filler_square,None,None,None,None,None,None,None,None,None,None,3,1.9314677715301514,None,,,,,0,0,0,0,0,82,82,197,275.3425350189209,,,,,,,,,,,,,,,,,,,,,,,,,,,,,,,,,,,,,,,,,,,,,,,,,,,,,,,,,,,,,,,,,,,,,,,,,,,,,,,,,63.63368569724366,57.88344473380231,102.41912469488577,81.97753637644934,113.47442158493186,113.47442158493186,1.0,1.2,-166,1,0,2,194,-12,275.3279502391815,275.3279912471771,275.3304843902588,275.3425350189209,275.492502450943,275.492502450943,275.492502450943,275.492502450943,275.492502450943,275.492502450943,275.492502450943,277.27693247795105,3,1.9314677715301514,None,,,,,,,,,,,,,,,,,,69,5,2025-02-21_09h42.05.612,comp,2024.2.4,60.08256815023851,2025-02-21 10h02.16.801828 -0500,
83,83,0,filler_square,None,None,None,None,None,None,None,None,None,None,1,1.3658878803253174,None,,,,,0,0,0,0,0,83,83,188,277.2925567626953,,,,,,,,,,,,,,,,,,,,,,,,,,,,,,,,,,,,,,,,,,,,,,,,,,,,,,,,,,,,,,,,,,,,,,,,,,,,,,,,,111.26711002335543,111.26711002335543,73.8833890885127,92.25734892843367,77.85120336510936,109.40592867523017,1.0,1.2,-198,-3,0,-16,197,-14,277.27787947654724,277.27792143821716,277.28036189079285,277.2925567626953,277.4424605369568,277.4424605369568,277.4424605369568,277.4424605369568,277.4424605369568,277.4424605369568,277.4424605369568,278.67693996429443,1,1.3658878803253174,None,,,,,,,,,,,,,,,,,,69,5,2025-02-21_09h42.05.612,comp,2024.2.4,60.08256815023851,2025-02-21 10h02.16.801828 -0500,
84,84,0,filler_square,None,None,None,None,None,None,None,None,None,None,3,1.3713698387145996,None,,,,,0,0,0,0,0,84,84,190,278.6923234462738,,,,,,,,,,,,,,,,,,,,,,,,,,,,,,,,,,,,,,,,,,,,,,,,,,,,,,,,,,,,,,,,,,,,,,,,,,,,,,,,,88.77478960890119,118.69632856750624,130.6729602774397,99.1385700141833,158.35350085115607,158.35350085115607,2.1,2.11,-205,252,0,287,225,-257,278.6779000759125,278.6779417991638,278.68045377731323,278.6923234462738,278.8424870967865,278.8424870967865,278.8424870967865,278.8424870967865,278.8424870967865,278.8424870967865,278.8424870967865,280.0769748687744,3,1.3713698387145996,None,,,,,,,,,,,,,,,,,,69,5,2025-02-21_09h42.05.612,comp,2024.2.4,60.08256815023851,2025-02-21 10h02.16.801828 -0500,
85,85,0,filler_random,None,None,None,None,None,None,None,None,None,None,3,1.3715612888336182,None,,,,,0,0,0,0,0,85,85,140,280.09224224090576,,,,,,,,,,,,,,,,,,,,,,,,,,,,,,,,,,,,,,,,,,,,,,,,,,,,,,,,,,,,,,,,,,,,,,,,,,,,,,,,,189.5479884372278,120.15106187216387,188.20798906909198,196.79501799660994,184.31628701238873,199.869960666165,3.0,3.1,-254,273,0,-15,294,-261,280.07788348197937,280.07792377471924,280.08042907714844,280.09224224090576,280.2427611351013,280.2427611351013,280.2427611351013,280.2427611351013,280.2427611351013,280.2427611351013,280.2427611351013,281.47726368904114,3,1.3715612888336182,None,,,,,,,,,,,,,,,,,,69,5,2025-02-21_09h42.05.612,comp,2024.2.4,60.08256815023851,2025-02-21 10h02.16.801828 -0500,
86,86,0,critical,dwh,20.0,3.0,lower,78.0,78.0,57.0,133.0,133.0,57.0,2,2.3968489170074463,None,,,,,0,0,0,0,0,86,86,68,281.4922766685486,,,,,,,,,,,,,,,,,,,,,,,,,,,,,,,,,,,,,,,,,,,,,,,,,,,,,,,,,,,,,,,,,,,,,,,,,,,,,,,,,78.0,78.0,57.0,133.0,133.0,57.0,3.0,3.1,-202,281,0,-18,191,-268,281.4780490398407,281.4780898094177,281.48025369644165,281.4922766685486,281.6423647403717,281.6423647403717,281.6423647403717,281.6423647403717,281.6423647403717,281.6423647403717,281.6423647403717,283.89358615875244,2,2.3968489170074463,None,,,,,,,,,,,,,,,,,,69,5,2025-02-21_09h42.05.612,comp,2024.2.4,60.08256815023851,2025-02-21 10h02.16.801828 -0500,
87,87,0,filler_square,None,None,None,None,None,None,None,None,None,None,3,1.3545293807983398,None,,,,,0,0,0,0,0,87,87,193,283.9091670513153,,,,,,,,,,,,,,,,,,,,,,,,,,,,,,,,,,,,,,,,,,,,,,,,,,,,,,,,,,,,,,,,,,,,,,,,,,,,,,,,,75.41094915587429,113.51363128128239,115.96829961798542,59.17893191573668,122.04077067109009,122.04077067109009,2.1,2.12,-182,-267,0,-274,187,269,283.8945574760437,283.8946006298065,283.89669847488403,283.9091670513153,284.05906796455383,284.05906796455383,284.05906796455383,284.05906796455383,284.05906796455383,284.05906796455383,284.05906796455383,285.2768383026123,3,1.3545293807983398,None,,,,,,,,,,,,,,,,,,69,5,2025-02-21_09h42.05.612,comp,2024.2.4,60.08256815023851,2025-02-21 10h02.16.801828 -0500,
88,88,0,critical,dwh,35.0,4.0,lower,70.0,70.0,57.0,133.0,133.0,57.0,2,1.8443667888641357,None,,,,,0,0,0,0,0,88,88,64,285.2921769618988,,,,,,,,,,,,,,,,,,,,,,,,,,,,,,,,,,,,,,,,,,,,,,,,,,,,,,,,,,,,,,,,,,,,,,,,,,,,,,,,,70.0,70.0,57.0,133.0,133.0,57.0,4.0,4.1,-198,-276,0,-11,191,-283,285.27768087387085,285.2777216434479,285.28033685684204,285.2921769618988,285.44224762916565,285.44224762916565,285.44224762916565,285.44224762916565,285.44224762916565,285.44224762916565,285.44224762916565,287.1434316635132,2,1.8443667888641357,None,,,,,,,,,,,,,,,,,,69,5,2025-02-21_09h42.05.612,comp,2024.2.4,60.08256815023851,2025-02-21 10h02.16.801828 -0500,
89,89,0,filler_random,None,None,None,None,None,None,None,None,None,None,2,1.2093086242675781,None,,,,,0,0,0,0,0,89,89,156,287.1591467857361,,,,,,,,,,,,,,,,,,,,,,,,,,,,,,,,,,,,,,,,,,,,,,,,,,,,,,,,,,,,,,,,,,,,,,,,,,,,,,,,,74.29183138921239,104.81939321465964,179.1210458503103,90.61075646146192,77.50670027555832,63.954640601320094,2.1,2.11,-194,273,0,252,173,-285,287.1443428993225,287.14438557624817,287.1467204093933,287.1591467857361,287.30904936790466,287.30904936790466,287.30904936790466,287.30904936790466,287.30904936790466,287.30904936790466,287.30904936790466,288.3767385482788,2,1.2093086242675781,None,,,,,,,,,,,,,,,,,,69,5,2025-02-21_09h42.05.612,comp,2024.2.4,60.08256815023851,2025-02-21 10h02.16.801828 -0500,
90,90,0,critical,hwd,20.0,1.0,upper,200.0,125.0,125.0,200.0,141.0,141.0,2,2.2335593700408936,None,,,,,0,0,0,0,0,90,90,103,288.39238452911377,,,,,,,,,,,,,,,,,,,,,,,,,,,,,,,,,,,,,,,,,,,,,,,,,,,,,,,,,,,,,,,,,,,,,,,,,,,,,,,,,200.0,125.0,125.0,200.0,141.0,141.0,1.0,1.2,-258,3,0,7,266,6,288.37750482559204,288.37754678726196,288.3799726963043,288.39238452911377,288.5424208641052,288.5424208641052,288.5424208641052,288.5424208641052,288.5424208641052,288.5424208641052,288.5424208641052,290.62725615501404,2,2.2335593700408936,None,,,,,,,,,,,,,,,,,,69,5,2025-02-21_09h42.05.612,comp,2024.2.4,60.08256815023851,2025-02-21 10h02.16.801828 -0500,
91,91,0,filler_square,None,None,None,None,None,None,None,None,None,None,3,1.3666083812713623,None,,,,,0,0,0,0,0,91,91,201,290.6425018310547,,,,,,,,,,,,,,,,,,,,,,,,,,,,,,,,,,,,,,,,,,,,,,,,,,,,,,,,,,,,,,,,,,,,,,,,,,,,,,,,,58.399556126744365,62.34865159845206,59.20868546540325,59.76594628240959,71.04036808809931,71.04036808809931,2.1,2.12,-157,-260,0,-284,161,279,290.6282207965851,290.62826657295227,290.6307611465454,290.6425018310547,290.7923090457916,290.7923090457916,290.7923090457916,290.7923090457916,290.7923090457916,290.7923090457916,290.7923090457916,292.02663397789,3,1.3666083812713623,None,,,,,,,,,,,,,,,,,,69,5,2025-02-21_09h42.05.612,comp,2024.2.4,60.08256815023851,2025-02-21 10h02.16.801828 -0500,
92,92,0,critical,whd,35.0,2.1,upper,125.0,200.0,200.0,125.0,127.0,127.0,1,2.8053362369537354,None,,,,,0,0,0,0,0,92,92,13,292.0421152114868,,,,,,,,,,,,,,,,,,,,,,,,,,,,,,,,,,,,,,,,,,,,,,,,,,,,,,,,,,,,,,,,,,,,,,,,,,,,,,,,,125.0,200.0,200.0,125.0,127.0,127.0,2.1,2.11,-258,270,0,265,222,-289,292.0274519920349,292.02749395370483,292.0299451351166,292.0421152114868,292.1924247741699,292.1924247741699,292.1924247741699,292.1924247741699,292.1924247741699,292.1924247741699,292.1924247741699,294.8602874279022,1,2.8053362369537354,None,,,,,,,,,,,,,,,,,,69,5,2025-02-21_09h42.05.612,comp,2024.2.4,60.08256815023851,2025-02-21 10h02.16.801828 -0500,
93,93,0,filler_random,None,None,None,None,None,None,None,None,None,None,3,1.6521732807159424,None,,,,,0,0,0,0,0,93,93,148,294.8753983974457,,,,,,,,,,,,,,,,,,,,,,,,,,,,,,,,,,,,,,,,,,,,,,,,,,,,,,,,,,,,,,,,,,,,,,,,,,,,,,,,,63.49350951625981,82.75894790956474,116.2923142363376,76.28000727391459,117.84106151461452,90.96090797134796,2.1,2.12,-176,-274,0,-278,180,282,294.8611989021301,294.8612530231476,294.86356496810913,294.8753983974457,295.02567982673645,295.02567982673645,295.02567982673645,295.02567982673645,295.02567982673645,295.02567982673645,295.02567982673645,296.5432939529419,3,1.6521732807159424,None,,,,,,,,,,,,,,,,,,69,5,2025-02-21_09h42.05.612,comp,2024.2.4,60.08256815023851,2025-02-21 10h02.16.801828 -0500,
94,94,0,catch,None,None,None,None,None,None,None,None,None,None,1,1.0576426982879639,None,,,,,0,0,0,0,0,94,94,126,296.5588698387146,,,,,,,,,,,,,,,,,,,,,,,,,,,,,,,,,,,,,,,,,,,,,,,,,,,,,,,,,,,,,,,,,,,,,,,,,,,,,,,,,146,179,78,112,64,126,1.0,1.2,-242,-10,0,9,215,9,296.5443162918091,296.5443572998047,296.54642033576965,296.5588698387146,296.7090039253235,296.7090039253235,296.7090039253235,296.7090039253235,296.7090039253235,296.7090039253235,296.7090039253235,297.62681698799133,1,1.0576426982879639,None,,,,,,,,,,,,,,,,,,69,5,2025-02-21_09h42.05.612,comp,2024.2.4,60.08256815023851,2025-02-21 10h02.16.801828 -0500,
95,95,0,critical,whd,20.0,1.0,upper,125.0,200.0,200.0,125.0,141.0,141.0,1,2.65310001373291,None,,,,,0,0,0,0,0,95,95,91,297.6424517631531,,,,,,,,,,,,,,,,,,,,,,,,,,,,,,,,,,,,,,,,,,,,,,,,,,,,,,,,,,,,,,,,,,,,,,,,,,,,,,,,,125.0,200.0,200.0,125.0,141.0,141.0,1.0,1.2,-258,14,0,-4,229,-3,297.6276090145111,297.6276514530182,297.63009810447693,297.6424517631531,297.7924973964691,297.7924973964691,297.7924973964691,297.7924973964691,297.7924973964691,297.7924973964691,297.7924973964691,300.31025552749634,1,2.65310001373291,None,,,,,,,,,,,,,,,,,,69,5,2025-02-21_09h42.05.612,comp,2024.2.4,60.08256815023851,2025-02-21 10h02.16.801828 -0500,
96,96,0,filler_square,None,None,None,None,None,None,None,None,None,None,2,1.1002559661865234,None,,,,,0,0,0,0,0,96,96,191,300.3254895210266,,,,,,,,,,,,,,,,,,,,,,,,,,,,,,,,,,,,,,,,,,,,,,,,,,,,,,,,,,,,,,,,,,,,,,,,,,,,,,,,,94.21937805915343,82.52614528061278,116.48829061105356,116.48829061105356,109.28958033280368,75.0996605169928,4.0,4.2,-196,-1,0,-267,192,10,300.3112213611603,300.3112647533417,300.31335163116455,300.3254895210266,300.47564673423767,300.47564673423767,300.47564673423767,300.47564673423767,300.47564673423767,300.47564673423767,300.47564673423767,301.44341826438904,2,1.1002559661865234,None,,,,,,,,,,,,,,,,,,69,5,2025-02-21_09h42.05.612,comp,2024.2.4,60.08256815023851,2025-02-21 10h02.16.801828 -0500,
97,97,0,filler_random,None,None,None,None,None,None,None,None,None,None,1,1.5992751121520996,None,,,,,0,0,0,0,0,97,97,163,301.45876359939575,,,,,,,,,,,,,,,,,,,,,,,,,,,,,,,,,,,,,,,,,,,,,,,,,,,,,,,,,,,,,,,,,,,,,,,,,,,,,,,,,138.65294506815968,124.18119462752277,104.48287131733213,84.62025720722536,94.3574725451432,118.90303598809498,2.2,2.22,-200,257,0,-281,198,-271,301.444313287735,301.44435477256775,301.4467124938965,301.45876359939575,301.60898303985596,301.60898303985596,301.60898303985596,301.60898303985596,301.60898303985596,301.60898303985596,301.60898303985596,303.0601313114166,1,1.5992751121520996,None,,,,,,,,,,,,,,,,,,69,5,2025-02-21_09h42.05.612,comp,2024.2.4,60.08256815023851,2025-02-21 10h02.16.801828 -0500,
98,98,0,critical,dwh,20.0,2.1,lower,78.0,78.0,57.0,133.0,133.0,57.0,3,3.4202749729156494,None,,,,,0,0,0,0,0,98,98,30,303.0756244659424,,,,,,,,,,,,,,,,,,,,,,,,,,,,,,,,,,,,,,,,,,,,,,,,,,,,,,,,,,,,,,,,,,,,,,,,,,,,,,,,,78.0,78.0,57.0,133.0,133.0,57.0,2.1,2.11,-202,285,0,274,191,-256,303.06093287467957,303.0609748363495,303.06308817863464,303.0756244659424,303.2255697250366,303.2255697250366,303.2255697250366,303.2255697250366,303.2255697250366,303.2255697250366,303.2255697250366,306.50998711586,3,3.4202749729156494,None,,,,,,,,,,,,,,,,,,69,5,2025-02-21_09h42.05.612,comp,2024.2.4,60.08256815023851,2025-02-21 10h02.16.801828 -0500,
99,99,0,catch,None,None,None,None,None,None,None,None,None,None,3,3.1861259937286377,None,,,,,0,0,0,0,0,99,99,123,306.52544355392456,,,,,,,,,,,,,,,,,,,,,,,,,,,,,,,,,,,,,,,,,,,,,,,,,,,,,,,,,,,,,,,,,,,,,,,,,,,,,,,,,88,102,119,71,147,178,2.2,2.22,-182,255,0,-261,220,-266,306.5110032558441,306.51104497909546,306.513135433197,306.52544355392456,306.6756753921509,306.6756753921509,306.6756753921509,306.6756753921509,306.6756753921509,306.6756753921509,306.6756753921509,309.7269630432129,3,3.1861259937286377,None,,,,,,,,,,,,,,,,,,69,5,2025-02-21_09h42.05.612,comp,2024.2.4,60.08256815023851,2025-02-21 10h02.16.801828 -0500,
100,100,0,filler_square,None,None,None,None,None,None,None,None,None,None,2,1.4504709243774414,None,,,,,0,0,0,0,0,100,100,172,309.7422196865082,,,,,,,,,,,,,,,,,,,,,,,,,,,,,,,,,,,,,,,,,,,,,,,,,,,,,,,,,,,,,,,,,,,,,,,,,,,,,,,,,60.944542115046474,113.17362395198757,178.99399536068984,178.99399536068984,123.90121158892538,160.35135318214435,2.1,2.12,-242,-287,0,-258,266,267,309.7280263900757,309.72807216644287,309.73005533218384,309.7422196865082,309.89230465888977,309.89230465888977,309.89230465888977,309.89230465888977,309.89230465888977,309.89230465888977,309.89230465888977,311.2100200653076,2,1.4504709243774414,None,,,,,,,,,,,,,,,,,,69,5,2025-02-21_09h42.05.612,comp,2024.2.4,60.08256815023851,2025-02-21 10h02.16.801828 -0500,
101,101,0,filler_square,None,None,None,None,None,None,None,None,None,None,2,1.2947981357574463,None,,,,,0,0,0,0,0,101,101,187,311.2254014015198,,,,,,,,,,,,,,,,,,,,,,,,,,,,,,,,,,,,,,,,,,,,,,,,,,,,,,,,,,,,,,,,,,,,,,,,,,,,,,,,,63.16622352179567,101.85695720600793,151.03436201714987,151.03436201714987,128.05134172909862,132.64597095323126,3.0,3.1,-222,279,0,-2,238,-251,311.21097898483276,311.2110197544098,311.2136516571045,311.2254014015198,311.3756368160248,311.3756368160248,311.3756368160248,311.3756368160248,311.3756368160248,311.3756368160248,311.3756368160248,312.5268943309784,2,1.2947981357574463,None,,,,,,,,,,,,,,,,,,69,5,2025-02-21_09h42.05.612,comp,2024.2.4,60.08256815023851,2025-02-21 10h02.16.801828 -0500,
102,102,0,critical,dwh,35.0,2.1,lower,70.0,70.0,57.0,133.0,133.0,57.0,2,2.8260838985443115,None,,,,,0,0,0,0,0,102,102,28,312.5421802997589,,,,,,,,,,,,,,,,,,,,,,,,,,,,,,,,,,,,,,,,,,,,,,,,,,,,,,,,,,,,,,,,,,,,,,,,,,,,,,,,,70.0,70.0,57.0,133.0,133.0,57.0,2.1,2.12,-198,-275,0,-287,191,276,312.5276663303375,312.527706861496,312.53029680252075,312.5421802997589,312.6922047138214,312.6922047138214,312.6922047138214,312.6922047138214,312.6922047138214,312.6922047138214,312.6922047138214,315.3764958381653,2,2.8260838985443115,None,,,,,,,,,,,,,,,,,,69,5,2025-02-21_09h42.05.612,comp,2024.2.4,60.08256815023851,2025-02-21 10h02.16.801828 -0500,
103,103,0,critical,dwh,35.0,3.0,upper,127.0,127.0,125.0,200.0,200.0,125.0,2,2.7438714504241943,None,,,,,0,0,0,0,0,103,103,63,315.39227271080017,,,,,,,,,,,,,,,,,,,,,,,,,,,,,,,,,,,,,,,,,,,,,,,,,,,,,,,,,,,,,,,,,,,,,,,,,,,,,,,,,127.0,127.0,125.0,200.0,200.0,125.0,3.0,3.2,-260,-276,0,1,258,253,315.37728571891785,315.37732672691345,315.37971568107605,315.39227271080017,315.54240894317627,315.54240894317627,315.54240894317627,315.54240894317627,315.54240894317627,315.54240894317627,315.54240894317627,318.1433570384979,2,2.7438714504241943,None,,,,,,,,,,,,,,,,,,69,5,2025-02-21_09h42.05.612,comp,2024.2.4,60.08256815023851,2025-02-21 10h02.16.801828 -0500,
104,104,0,critical,whd,35.0,2.1,lower,57.0,133.0,133.0,57.0,70.0,70.0,1,5.752652406692505,None,,,,,0,0,0,0,0,104,104,12,318.1588580608368,,,,,,,,,,,,,,,,,,,,,,,,,,,,,,,,,,,,,,,,,,,,,,,,,,,,,,,,,,,,,,,,,,,,,,,,,,,,,,,,,57.0,133.0,133.0,57.0,70.0,70.0,2.1,2.11,-191,287,0,254,160,-269,318.144140958786,318.1441807746887,318.146418094635,318.1588580608368,318.30883026123047,318.30883026123047,318.30883026123047,318.30883026123047,318.30883026123047,318.30883026123047,318.30883026123047,323.9265048503876,1,5.752652406692505,None,,,,,,,,,,,,,,,,,,69,5,2025-02-21_09h42.05.612,comp,2024.2.4,60.08256815023851,2025-02-21 10h02.16.801828 -0500,
105,105,0,filler_random,None,None,None,None,None,None,None,None,None,None,2,1.0174579620361328,None,,,,,0,0,0,0,0,105,105,142,323.9419219493866,,,,,,,,,,,,,,,,,,,,,,,,,,,,,,,,,,,,,,,,,,,,,,,,,,,,,,,,,,,,,,,,,,,,,,,,,,,,,,,,,82.9925843170301,87.03585565092521,160.2658360913351,145.24845724769946,131.89848088276761,61.296780141183525,2.1,2.12,-212,-273,0,-257,199,264,323.92742371559143,323.92746353149414,323.9298541545868,323.9419219493866,324.09205174446106,324.09205174446106,324.09205174446106,324.09205174446106,324.09205174446106,324.09205174446106,324.09205174446106,324.9764754772186,2,1.0174579620361328,None,,,,,,,,,,,,,,,,,,69,5,2025-02-21_09h42.05.612,comp,2024.2.4,60.08256815023851,2025-02-21 10h02.16.801828 -0500,
106,106,0,critical,hdw,35.0,2.1,lower,133.0,57.0,70.0,70.0,57.0,133.0,3,3.3356051445007324,None,,,,,0,0,0,0,0,106,106,20,324.99186277389526,,,,,,,,,,,,,,,,,,,,,,,,,,,,,,,,,,,,,,,,,,,,,,,,,,,,,,,,,,,,,,,,,,,,,,,,,,,,,,,,,133.0,57.0,70.0,70.0,57.0,133.0,2.1,2.11,-160,266,0,274,198,-252,324.9772675037384,324.97730803489685,324.97968912124634,324.99186277389526,325.14210867881775,325.14210867881775,325.14210867881775,325.14210867881775,325.14210867881775,325.14210867881775,325.14210867881775,328.3430607318878,3,3.3356051445007324,None,,,,,,,,,,,,,,,,,,69,5,2025-02-21_09h42.05.612,comp,2024.2.4,60.08256815023851,2025-02-21 10h02.16.801828 -0500,
107,107,0,critical,hwd,35.0,2.1,lower,133.0,57.0,57.0,133.0,70.0,70.0,2,2.24151349067688,None,,,,,0,0,0,0,0,107,107,40,328.3585512638092,,,,,,,,,,,,,,,,,,,,,,,,,,,,,,,,,,,,,,,,,,,,,,,,,,,,,,,,,,,,,,,,,,,,,,,,,,,,,,,,,133.0,57.0,57.0,133.0,70.0,70.0,2.1,2.12,-191,-258,0,-259,198,265,328.3438653945923,328.34390664100647,328.3464848995209,328.3585512638092,328.5087914466858,328.5087914466858,328.5087914466858,328.5087914466858,328.5087914466858,328.5087914466858,328.5087914466858,330.60981464385986,2,2.24151349067688,None,,,,,,,,,,,,,,,,,,69,5,2025-02-21_09h42.05.612,comp,2024.2.4,60.08256815023851,2025-02-21 10h02.16.801828 -0500,
108,108,0,critical,hwd,20.0,2.1,lower,133.0,57.0,57.0,133.0,78.0,78.0,2,2.3018579483032227,None,,,,,0,0,0,0,0,108,108,18,330.62555623054504,,,,,,,,,,,,,,,,,,,,,,,,,,,,,,,,,,,,,,,,,,,,,,,,,,,,,,,,,,,,,,,,,,,,,,,,,,,,,,,,,133.0,57.0,57.0,133.0,78.0,78.0,2.1,2.12,-191,-254,0,-269,202,278,330.6106176376343,330.61066007614136,330.6132869720459,330.62555623054504,330.77535605430603,330.77535605430603,330.77535605430603,330.77535605430603,330.77535605430603,330.77535605430603,330.77535605430603,332.9431004524231,2,2.3018579483032227,None,,,,,,,,,,,,,,,,,,69,5,2025-02-21_09h42.05.612,comp,2024.2.4,60.08256815023851,2025-02-21 10h02.16.801828 -0500,
109,109,0,critical,whd,35.0,4.0,lower,57.0,133.0,133.0,57.0,70.0,70.0,3,4.56143856048584,None,,,,,0,0,0,0,0,109,109,88,332.9585876464844,,,,,,,,,,,,,,,,,,,,,,,,,,,,,,,,,,,,,,,,,,,,,,,,,,,,,,,,,,,,,,,,,,,,,,,,,,,,,,,,,57.0,133.0,133.0,57.0,70.0,70.0,4.0,4.2,-191,5,0,-277,160,-2,332.94391989707947,332.94396018981934,332.94608545303345,332.9585876464844,333.1086597442627,333.1086597442627,333.1086597442627,333.1086597442627,333.1086597442627,333.1086597442627,333.1086597442627,337.526394367218,3,4.56143856048584,None,,,,,,,,,,,,,,,,,,69,5,2025-02-21_09h42.05.612,comp,2024.2.4,60.08256815023851,2025-02-21 10h02.16.801828 -0500,
110,110,0,critical,dwh,20.0,4.0,lower,78.0,78.0,57.0,133.0,133.0,57.0,2,4.674102067947388,None,,,,,0,0,0,0,0,110,110,70,337.54227471351624,,,,,,,,,,,,,,,,,,,,,,,,,,,,,,,,,,,,,,,,,,,,,,,,,,,,,,,,,,,,,,,,,,,,,,,,,,,,,,,,,78.0,78.0,57.0,133.0,133.0,57.0,4.0,4.1,-202,-287,0,-16,191,-254,337.52715373039246,337.5271940231323,337.52946639060974,337.54227471351624,337.6920783519745,337.6920783519745,337.6920783519745,337.6920783519745,337.6920783519745,337.6920783519745,337.6920783519745,342.22651743888855,2,4.674102067947388,None,,,,,,,,,,,,,,,,,,69,5,2025-02-21_09h42.05.612,comp,2024.2.4,60.08256815023851,2025-02-21 10h02.16.801828 -0500,
111,111,0,critical,whd,20.0,4.0,lower,57.0,133.0,133.0,57.0,78.0,78.0,1,2.637871742248535,None,,,,,0,0,0,0,0,111,111,94,342.24209427833557,,,,,,,,,,,,,,,,,,,,,,,,,,,,,,,,,,,,,,,,,,,,,,,,,,,,,,,,,,,,,,,,,,,,,,,,,,,,,,,,,57.0,133.0,133.0,57.0,78.0,78.0,4.0,4.2,-191,5,0,-278,164,-13,342.2273008823395,342.2273416519165,342.22978711128235,342.24209427833557,342.39186215400696,342.39186215400696,342.39186215400696,342.39186215400696,342.39186215400696,342.39186215400696,342.39186215400696,344.89295506477356,1,2.637871742248535,None,,,,,,,,,,,,,,,,,,69,5,2025-02-21_09h42.05.612,comp,2024.2.4,60.08256815023851,2025-02-21 10h02.16.801828 -0500,
112,112,0,critical,hwd,35.0,3.0,lower,133.0,57.0,57.0,133.0,70.0,70.0,2,2.7004270553588867,None,,,,,0,0,0,0,0,112,112,98,344.90837931632996,,,,,,,,,,,,,,,,,,,,,,,,,,,,,,,,,,,,,,,,,,,,,,,,,,,,,,,,,,,,,,,,,,,,,,,,,,,,,,,,,133.0,57.0,57.0,133.0,70.0,70.0,3.0,3.1,-191,270,0,11,198,-289,344.8937511444092,344.89379143714905,344.8963565826416,344.90837931632996,345.05851435661316,345.05851435661316,345.05851435661316,345.05851435661316,345.05851435661316,345.05851435661316,345.05851435661316,347.62635016441345,2,2.7004270553588867,None,,,,,,,,,,,,,,,,,,69,5,2025-02-21_09h42.05.612,comp,2024.2.4,60.08256815023851,2025-02-21 10h02.16.801828 -0500,
113,113,0,critical,wdh,35.0,3.0,lower,57.0,133.0,70.0,70.0,133.0,57.0,1,2.799734354019165,None,,,,,0,0,0,0,0,113,113,74,347.6418113708496,,,,,,,,,,,,,,,,,,,,,,,,,,,,,,,,,,,,,,,,,,,,,,,,,,,,,,,,,,,,,,,,,,,,,,,,,,,,,,,,,57.0,133.0,70.0,70.0,133.0,57.0,3.0,3.2,-198,-259,0,19,160,276,347.627156496048,347.62719798088074,347.6295495033264,347.6418113708496,347.7918734550476,347.7918734550476,347.7918734550476,347.7918734550476,347.7918734550476,347.7918734550476,347.7918734550476,350.4431302547455,1,2.799734354019165,None,,,,,,,,,,,,,,,,,,69,5,2025-02-21_09h42.05.612,comp,2024.2.4,60.08256815023851,2025-02-21 10h02.16.801828 -0500,
114,114,0,critical,dhw,20.0,2.1,upper,141.0,141.0,200.0,125.0,125.0,200.0,2,3.829737901687622,None,,,,,0,0,0,0,0,114,114,3,350.4585931301117,,,,,,,,,,,,,,,,,,,,,,,,,,,,,,,,,,,,,,,,,,,,,,,,,,,,,,,,,,,,,,,,,,,,,,,,,,,,,,,,,141.0,141.0,200.0,125.0,125.0,200.0,2.1,2.12,-229,-287,0,-268,258,266,350.44389963150024,350.4439399242401,350.4462344646454,350.4585931301117,350.60872292518616,350.60872292518616,350.60872292518616,350.60872292518616,350.60872292518616,350.60872292518616,350.60872292518616,354.29330706596375,2,3.829737901687622,None,,,,,,,,,,,,,,,,,,69,5,2025-02-21_09h42.05.612,comp,2024.2.4,60.08256815023851,2025-02-21 10h02.16.801828 -0500,
115,115,0,critical,whd,35.0,1.0,upper,125.0,200.0,200.0,125.0,127.0,127.0,1,2.9546172618865967,None,,,,,0,0,0,0,0,115,115,85,354.30867314338684,,,,,,,,,,,,,,,,,,,,,,,,,,,,,,,,,,,,,,,,,,,,,,,,,,,,,,,,,,,,,,,,,,,,,,,,,,,,,,,,,125.0,200.0,200.0,125.0,127.0,127.0,1.0,1.3,222,-263,480,-258,702,-261,354.2940866947174,354.29412937164307,354.29624223709106,354.30867314338684,354.4587314128876,354.4587314128876,354.4587314128876,354.4587314128876,354.4587314128876,354.4587314128876,354.4587314128876,357.27660489082336,1,2.9546172618865967,None,,,,,,,,,,,,,,,,,,69,5,2025-02-21_09h42.05.612,comp,2024.2.4,60.08256815023851,2025-02-21 10h02.16.801828 -0500,
116,116,0,critical,whd,20.0,2.1,lower,57.0,133.0,133.0,57.0,78.0,78.0,1,2.8034801483154297,None,,,,,0,0,0,0,0,116,116,14,357.2917604446411,,,,,,,,,,,,,,,,,,,,,,,,,,,,,,,,,,,,,,,,,,,,,,,,,,,,,,,,,,,,,,,,,,,,,,,,,,,,,,,,,57.0,133.0,133.0,57.0,78.0,78.0,2.1,2.11,-191,256,0,252,164,-281,357.2774007320404,357.27744221687317,357.279803276062,357.2917604446411,357.44180965423584,357.44180965423584,357.44180965423584,357.44180965423584,357.44180965423584,357.44180965423584,357.44180965423584,360.10952520370483,1,2.8034801483154297,None,,,,,,,,,,,,,,,,,,69,5,2025-02-21_09h42.05.612,comp,2024.2.4,60.08256815023851,2025-02-21 10h02.16.801828 -0500,
117,117,0,critical,wdh,20.0,2.1,upper,125.0,200.0,141.0,141.0,200.0,125.0,1,2.532428026199341,None,,,,,0,0,0,0,0,117,117,35,360.1250059604645,,,,,,,,,,,,,,,,,,,,,,,,,,,,,,,,,,,,,,,,,,,,,,,,,,,,,,,,,,,,,,,,,,,,,,,,,,,,,,,,,125.0,200.0,141.0,141.0,200.0,125.0,2.1,2.11,-266,275,0,278,229,-278,360.1103365421295,360.1103763580322,360.1128101348877,360.1250059604645,360.27536129951477,360.27536129951477,360.27536129951477,360.27536129951477,360.27536129951477,360.27536129951477,360.27536129951477,362.6599397659302,1,2.532428026199341,None,,,,,,,,,,,,,,,,,,69,5,2025-02-21_09h42.05.612,comp,2024.2.4,60.08256815023851,2025-02-21 10h02.16.801828 -0500,
118,118,0,critical,hwd,20.0,4.0,lower,133.0,57.0,57.0,133.0,78.0,78.0,2,1.8138079643249512,None,,,,,0,0,0,0,0,118,118,106,362.6755862236023,,,,,,,,,,,,,,,,,,,,,,,,,,,,,,,,,,,,,,,,,,,,,,,,,,,,,,,,,,,,,,,,,,,,,,,,,,,,,,,,,133.0,57.0,57.0,133.0,78.0,78.0,4.0,4.1,-191,-272,0,0,202,-285,362.6607403755188,362.660781621933,362.66298508644104,362.6755862236023,362.8252329826355,362.8252329826355,362.8252329826355,362.8252329826355,362.8252329826355,362.8252329826355,362.8252329826355,364.49302196502686,2,1.8138079643249512,None,,,,,,,,,,,,,,,,,,69,5,2025-02-21_09h42.05.612,comp,2024.2.4,60.08256815023851,2025-02-21 10h02.16.801828 -0500,
119,119,0,catch,None,None,None,None,None,None,None,None,None,None,2,1.5223486423492432,None,,,,,0,0,0,0,0,119,119,129,364.5086350440979,,,,,,,,,,,,,,,,,,,,,,,,,,,,,,,,,,,,,,,,,,,,,,,,,,,,,,,,,,,,,,,,,,,,,,,,,,,,,,,,,106,84,154,171,69,121,2.1,2.11,-224,277,0,258,242,-264,364.49407935142517,364.49412178993225,364.49623441696167,364.5086350440979,364.6585876941681,364.6585876941681,364.6585876941681,364.6585876941681,364.6585876941681,364.6585876941681,364.6585876941681,366.0433473587036,2,1.5223486423492432,None,,,,,,,,,,,,,,,,,,69,5,2025-02-21_09h42.05.612,comp,2024.2.4,60.08256815023851,2025-02-21 10h02.16.801828 -0500,
120,120,0,critical,hwd,20.0,2.1,upper,200.0,125.0,125.0,200.0,141.0,141.0,2,3.0776350498199463,None,,,,,0,0,0,0,0,120,120,43,366.058381319046,,,,,,,,,,,,,,,,,,,,,,,,,,,,,,,,,,,,,,,,,,,,,,,,,,,,,,,,,,,,,,,,,,,,,,,,,,,,,,,,,200.0,125.0,125.0,200.0,141.0,141.0,2.1,2.11,-258,252,0,263,266,-256,366.04416155815125,366.04420280456543,366.04630613327026,366.058381319046,366.208619594574,366.208619594574,366.208619594574,366.208619594574,366.208619594574,366.208619594574,366.208619594574,369.14310240745544,2,3.0776350498199463,None,,,,,,,,,,,,,,,,,,69,5,2025-02-21_09h42.05.612,comp,2024.2.4,60.08256815023851,2025-02-21 10h02.16.801828 -0500,
121,121,0,critical,dhw,35.0,3.0,lower,70.0,70.0,133.0,57.0,57.0,133.0,3,4.050094366073608,None,,,,,0,0,0,0,0,121,121,50,369.15860962867737,,,,,,,,,,,,,,,,,,,,,,,,,,,,,,,,,,,,,,,,,,,,,,,,,,,,,,,,,,,,,,,,,,,,,,,,,,,,,,,,,70.0,70.0,133.0,57.0,57.0,133.0,3.0,3.2,-160,-276,0,17,191,258,369.1438958644867,369.14393639564514,369.14610624313354,369.15860962867737,369.30852246284485,369.30852246284485,369.30852246284485,369.30852246284485,369.30852246284485,369.30852246284485,369.30852246284485,373.22609877586365,3,4.050094366073608,None,,,,,,,,,,,,,,,,,,69,5,2025-02-21_09h42.05.612,comp,2024.2.4,60.08256815023851,2025-02-21 10h02.16.801828 -0500,
122,122,0,critical,dhw,20.0,4.0,lower,78.0,78.0,133.0,57.0,57.0,133.0,3,2.0320889949798584,None,,,,,0,0,0,0,0,122,122,58,373.2415578365326,,,,,,,,,,,,,,,,,,,,,,,,,,,,,,,,,,,,,,,,,,,,,,,,,,,,,,,,,,,,,,,,,,,,,,,,,,,,,,,,,78.0,78.0,133.0,57.0,57.0,133.0,4.0,4.2,-164,3,0,-275,191,3,373.2268855571747,373.22692489624023,373.2289273738861,373.2415578365326,373.39179706573486,373.39179706573486,373.39179706573486,373.39179706573486,373.39179706573486,373.39179706573486,373.39179706573486,375.2763361930847,3,2.0320889949798584,None,,,,,,,,,,,,,,,,,,69,5,2025-02-21_09h42.05.612,comp,2024.2.4,60.08256815023851,2025-02-21 10h02.16.801828 -0500,
123,123,0,filler_random,None,None,None,None,None,None,None,None,None,None,2,2.7711687088012695,None,,,,,0,0,0,0,0,123,123,134,375.2918291091919,,,,,,,,,,,,,,,,,,,,,,,,,,,,,,,,,,,,,,,,,,,,,,,,,,,,,,,,,,,,,,,,,,,,,,,,,,,,,,,,,152.70892778429516,124.24754001430372,108.06469082561026,179.60507501157804,145.02093532958298,77.75118343955586,4.0,4.1,-248,-262,0,13,225,-263,375.2772362232208,375.27727937698364,375.2795422077179,375.2918291091919,375.442289352417,375.442289352417,375.442289352417,375.442289352417,375.442289352417,375.442289352417,375.442289352417,378.07653546333313,2,2.7711687088012695,None,,,,,,,,,,,,,,,,,,69,5,2025-02-21_09h42.05.612,comp,2024.2.4,60.08256815023851,2025-02-21 10h02.16.801828 -0500,
124,124,0,critical,dhw,35.0,3.0,upper,127.0,127.0,200.0,125.0,125.0,200.0,2,2.003540277481079,None,,,,,0,0,0,0,0,124,124,51,378.0915958881378,,,,,,,,,,,,,,,,,,,,,,,,,,,,,,,,,,,,,,,,,,,,,,,,,,,,,,,,,,,,,,,,,,,,,,,,,,,,,,,,,127.0,127.0,200.0,125.0,125.0,200.0,3.0,3.1,-222,254,0,-6,258,-250,378.07732343673706,378.0773642063141,378.0794429779053,378.0915958881378,378.24188899993896,378.24188899993896,378.24188899993896,378.24188899993896,378.24188899993896,378.24188899993896,378.24188899993896,380.1097779273987,2,2.003540277481079,None,,,,,,,,,,,,,,,,,,69,5,2025-02-21_09h42.05.612,comp,2024.2.4,60.08256815023851,2025-02-21 10h02.16.801828 -0500,
125,125,0,critical,dhw,35.0,4.0,lower,70.0,70.0,133.0,57.0,57.0,133.0,2,2.763540029525757,None,,,,,0,0,0,0,0,125,125,52,380.12492275238037,,,,,,,,,,,,,,,,,,,,,,,,,,,,,,,,,,,,,,,,,,,,,,,,,,,,,,,,,,,,,,,,,,,,,,,,,,,,,,,,,70.0,70.0,133.0,57.0,57.0,133.0,4.0,4.2,-160,-8,0,-275,191,-10,380.11057233810425,380.1106131076813,380.11280584335327,380.12492275238037,380.2750144004822,380.2750144004822,380.2750144004822,380.2750144004822,380.2750144004822,380.2750144004822,380.2750144004822,382.8930153846741,2,2.763540029525757,None,,,,,,,,,,,,,,,,,,69,5,2025-02-21_09h42.05.612,comp,2024.2.4,60.08256815023851,2025-02-21 10h02.16.801828 -0500,
126,126,0,critical,wdh,20.0,3.0,upper,125.0,200.0,141.0,141.0,200.0,125.0,3,1.754453420639038,None,,,,,0,0,0,0,0,126,126,81,382.908563375473,,,,,,,,,,,,,,,,,,,,,,,,,,,,,,,,,,,,,,,,,,,,,,,,,,,,,,,,,,,,,,,,,,,,,,,,,,,,,,,,,125.0,200.0,141.0,141.0,200.0,125.0,3.0,3.1,-266,259,0,12,229,-268,382.8938207626343,382.89386200904846,382.8959696292877,382.908563375473,383.0585951805115,383.0585951805115,383.0585951805115,383.0585951805115,383.0585951805115,383.0585951805115,383.0585951805115,384.67634749412537,3,1.754453420639038,None,,,,,,,,,,,,,,,,,,69,5,2025-02-21_09h42.05.612,comp,2024.2.4,60.08256815023851,2025-02-21 10h02.16.801828 -0500,
127,127,0,filler_square,None,None,None,None,None,None,None,None,None,None,3,1.2352044582366943,None,,,,,0,0,0,0,0,127,127,171,384.6917655467987,,,,,,,,,,,,,,,,,,,,,,,,,,,,,,,,,,,,,,,,,,,,,,,,,,,,,,,,,,,,,,,,,,,,,,,,,,,,,,,,,131.94020591585934,103.73520244541828,77.20121195127521,104.31532845530285,192.8548210920058,192.8548210920058,3.0,3.2,-200,-261,0,-17,245,290,384.677303314209,384.6773464679718,384.68062806129456,384.6917655467987,384.8417868614197,384.8417868614197,384.8417868614197,384.8417868614197,384.8417868614197,384.8417868614197,384.8417868614197,385.9427604675293,3,1.2352044582366943,None,,,,,,,,,,,,,,,,,,69,5,2025-02-21_09h42.05.612,comp,2024.2.4,60.08256815023851,2025-02-21 10h02.16.801828 -0500,
128,128,0,critical,hdw,20.0,2.1,lower,133.0,57.0,78.0,78.0,57.0,133.0,3,1.945502519607544,None,,,,,0,0,0,0,0,128,128,22,385.95816230773926,,,,,,,,,,,,,,,,,,,,,,,,,,,,,,,,,,,,,,,,,,,,,,,,,,,,,,,,,,,,,,,,,,,,,,,,,,,,,,,,,133.0,57.0,78.0,78.0,57.0,133.0,2.1,2.11,-164,253,0,270,202,-287,385.9435579776764,385.9435987472534,385.9460711479187,385.95816230773926,386.10825991630554,386.10825991630554,386.10825991630554,386.10825991630554,386.10825991630554,386.10825991630554,386.10825991630554,387.909548997879,3,1.945502519607544,None,,,,,,,,,,,,,,,,,,69,5,2025-02-21_09h42.05.612,comp,2024.2.4,60.08256815023851,2025-02-21 10h02.16.801828 -0500,
129,129,0,critical,dhw,20.0,2.1,lower,78.0,78.0,133.0,57.0,57.0,133.0,3,1.6588857173919678,None,,,,,0,0,0,0,0,129,129,2,387.9250602722168,,,,,,,,,,,,,,,,,,,,,,,,,,,,,,,,,,,,,,,,,,,,,,,,,,,,,,,,,,,,,,,,,,,,,,,,,,,,,,,,,78.0,78.0,133.0,57.0,57.0,133.0,2.1,2.12,-164,-277,0,-282,191,278,387.9103510379791,387.91039276123047,387.9125123023987,387.9250602722168,388.0750262737274,388.0750262737274,388.0750262737274,388.0750262737274,388.0750262737274,388.0750262737274,388.0750262737274,389.59277963638306,3,1.6588857173919678,None,,,,,,,,,,,,,,,,,,69,5,2025-02-21_09h42.05.612,comp,2024.2.4,60.08256815023851,2025-02-21 10h02.16.801828 -0500,
130,130,0,filler_random,None,None,None,None,None,None,None,None,None,None,3,1.622382402420044,None,,,,,0,0,0,0,0,130,130,137,389.60842728614807,,,,,,,,,,,,,,,,,,,,,,,,,,,,,,,,,,,,,,,,,,,,,,,,,,,,,,,,,,,,,,,,,,,,,,,,,,,,,,,,,174.41553518410356,162.3240749306959,100.23635365638415,71.38546424894074,178.78518039947704,185.69814976611602,4.0,4.1,-213,-277,0,4,225,-277,389.59373688697815,389.59377908706665,389.5963590145111,389.60842728614807,389.7587625980377,389.7587625980377,389.7587625980377,389.7587625980377,389.7587625980377,389.7587625980377,389.7587625980377,391.24326395988464,3,1.622382402420044,None,,,,,,,,,,,,,,,,,,69,5,2025-02-21_09h42.05.612,comp,2024.2.4,60.08256815023851,2025-02-21 10h02.16.801828 -0500,
131,131,0,filler_random,None,None,None,None,None,None,None,None,None,None,1,1.093515157699585,None,,,,,0,0,0,0,0,131,131,168,391.25816917419434,,,,,,,,,,,,,,,,,,,,,,,,,,,,,,,,,,,,,,,,,,,,,,,,,,,,,,,,,,,,,,,,,,,,,,,,,,,,,,,,,181.9849113582349,174.6688442200213,70.19536154382493,148.55982849370187,63.992771499813934,152.87195784809316,4.0,4.2,-258,-10,0,-257,247,16,391.2441830635071,391.2442407608032,391.24636793136597,391.25816917419434,391.40853905677795,391.40853905677795,391.40853905677795,391.40853905677795,391.40853905677795,391.40853905677795,391.40853905677795,392.35949659347534,1,1.093515157699585,None,,,,,,,,,,,,,,,,,,69,5,2025-02-21_09h42.05.612,comp,2024.2.4,60.08256815023851,2025-02-21 10h02.16.801828 -0500,
132,132,0,critical,hwd,35.0,4.0,lower,133.0,57.0,57.0,133.0,70.0,70.0,1,1.866112232208252,None,,,,,0,0,0,0,0,132,132,100,392.37503838539124,,,,,,,,,,,,,,,,,,,,,,,,,,,,,,,,,,,,,,,,,,,,,,,,,,,,,,,,,,,,,,,,,,,,,,,,,,,,,,,,,133.0,57.0,57.0,133.0,70.0,70.0,4.0,4.1,-191,-252,0,17,198,-283,392.3603205680847,392.3603615760803,392.36243653297424,392.37503838539124,392.52490997314453,392.52490997314453,392.52490997314453,392.52490997314453,392.52490997314453,392.52490997314453,392.52490997314453,394.24288153648376,1,1.866112232208252,None,,,,,,,,,,,,,,,,,,69,5,2025-02-21_09h42.05.612,comp,2024.2.4,60.08256815023851,2025-02-21 10h02.16.801828 -0500,
133,133,0,critical,wdh,35.0,2.1,lower,57.0,133.0,70.0,70.0,133.0,57.0,3,1.4524714946746826,None,,,,,0,0,0,0,0,133,133,8,394.2584476470947,,,,,,,,,,,,,,,,,,,,,,,,,,,,,,,,,,,,,,,,,,,,,,,,,,,,,,,,,,,,,,,,,,,,,,,,,,,,,,,,,57.0,133.0,70.0,70.0,133.0,57.0,2.1,2.12,-198,-263,0,-265,160,262,394.24369263648987,394.2437336444855,394.2462787628174,394.2584476470947,394.40831995010376,394.40831995010376,394.40831995010376,394.40831995010376,394.40831995010376,394.40831995010376,394.40831995010376,395.7261447906494,3,1.4524714946746826,None,,,,,,,,,,,,,,,,,,69,5,2025-02-21_09h42.05.612,comp,2024.2.4,60.08256815023851,2025-02-21 10h02.16.801828 -0500,
134,134,0,filler_square,None,None,None,None,None,None,None,None,None,None,1,1.6742949485778809,None,,,,,0,0,0,0,0,134,134,198,395.74146461486816,,,,,,,,,,,,,,,,,,,,,,,,,,,,,,,,,,,,,,,,,,,,,,,,,,,,,,,,,,,,,,,,,,,,,,,,,,,,,,,,,131.74486965632482,131.74486965632482,119.31605792048403,100.3142917261587,112.14134132205062,98.79893622537895,1.0,1.1,-692,283,-480,280,-284,289,395.72711968421936,395.72716093063354,395.72946858406067,395.74146461486816,395.8917293548584,395.8917293548584,395.8917293548584,395.8917293548584,395.8917293548584,395.8917293548584,395.8917293548584,397.4261198043823,1,1.6742949485778809,None,,,,,,,,,,,,,,,,,,69,5,2025-02-21_09h42.05.612,comp,2024.2.4,60.08256815023851,2025-02-21 10h02.16.801828 -0500,
135,135,0,filler_random,None,None,None,None,None,None,None,None,None,None,2,0.9889264106750488,None,,,,,0,0,0,0,0,135,135,154,397.44180154800415,,,,,,,,,,,,,,,,,,,,,,,,,,,,,,,,,,,,,,,,,,,,,,,,,,,,,,,,,,,,,,,,,,,,,,,,,,,,,,,,,69.66212703452035,128.53217002294883,168.3755854278034,157.36620109607077,91.75985687078582,115.41164726144353,4.0,4.1,-239,-284,0,-2,232,-264,397.4270484447479,397.4270887374878,397.4291481971741,397.44180154800415,397.59172916412354,397.59172916412354,397.59172916412354,397.59172916412354,397.59172916412354,397.59172916412354,397.59172916412354,398.4430754184723,2,0.9889264106750488,None,,,,,,,,,,,,,,,,,,69,5,2025-02-21_09h42.05.612,comp,2024.2.4,60.08256815023851,2025-02-21 10h02.16.801828 -0500,
136,136,0,filler_random,None,None,None,None,None,None,None,None,None,None,3,2.5830085277557373,None,,,,,0,0,0,0,0,136,136,164,398.4581446647644,,,,,,,,,,,,,,,,,,,,,,,,,,,,,,,,,,,,,,,,,,,,,,,,,,,,,,,,,,,,,,,,,,,,,,,,,,,,,,,,,64.85080590165192,145.5886306786952,162.92280464424954,87.18648722180048,109.21358362816702,114.07299191891818,2.2,2.21,-212,-268,0,262,197,252,398.44399785995483,398.4440393447876,398.44659066200256,398.4581446647644,398.60834789276123,398.60834789276123,398.60834789276123,398.60834789276123,398.60834789276123,398.60834789276123,398.60834789276123,401.04303097724915,3,2.5830085277557373,None,,,,,,,,,,,,,,,,,,69,5,2025-02-21_09h42.05.612,comp,2024.2.4,60.08256815023851,2025-02-21 10h02.16.801828 -0500,
137,137,0,critical,dwh,35.0,2.1,upper,127.0,127.0,125.0,200.0,200.0,125.0,2,1.3668577671051025,None,,,,,0,0,0,0,0,137,137,5,401.05830430984497,,,,,,,,,,,,,,,,,,,,,,,,,,,,,,,,,,,,,,,,,,,,,,,,,,,,,,,,,,,,,,,,,,,,,,,,,,,,,,,,,127.0,127.0,125.0,200.0,200.0,125.0,2.1,2.12,-260,-272,0,-258,258,278,401.04384422302246,401.0438871383667,401.0465304851532,401.05830430984497,401.2086892127991,401.2086892127991,401.2086892127991,401.2086892127991,401.2086892127991,401.2086892127991,401.2086892127991,402.44279956817627,2,1.3668577671051025,None,,,,,,,,,,,,,,,,,,69,5,2025-02-21_09h42.05.612,comp,2024.2.4,60.08256815023851,2025-02-21 10h02.16.801828 -0500,
138,138,0,critical,hwd,20.0,2.1,lower,133.0,57.0,57.0,133.0,78.0,78.0,3,1.414844036102295,None,,,,,0,0,0,0,0,138,138,42,402.45822525024414,,,,,,,,,,,,,,,,,,,,,,,,,,,,,,,,,,,,,,,,,,,,,,,,,,,,,,,,,,,,,,,,,,,,,,,,,,,,,,,,,133.0,57.0,57.0,133.0,78.0,78.0,2.1,2.12,-191,-281,0,-263,202,278,402.4436056613922,402.4436466693878,402.4466006755829,402.45822525024414,402.6082773208618,402.6082773208618,402.6082773208618,402.6082773208618,402.6082773208618,402.6082773208618,402.6082773208618,403.8761887550354,3,1.414844036102295,None,,,,,,,,,,,,,,,,,,69,5,2025-02-21_09h42.05.612,comp,2024.2.4,60.08256815023851,2025-02-21 10h02.16.801828 -0500,
139,139,0,critical,hwd,35.0,1.0,upper,200.0,125.0,125.0,200.0,127.0,127.0,2,2.0840349197387695,None,,,,,0,0,0,0,0,139,139,97,403.8916525840759,,,,,,,,,,,,,,,,,,,,,,,,,,,,,,,,,,,,,,,,,,,,,,,,,,,,,,,,,,,,,,,,,,,,,,,,,,,,,,,,,200.0,125.0,125.0,200.0,127.0,127.0,1.0,1.3,222,-288,480,-286,740,-254,403.87698459625244,403.8770260810852,403.87934970855713,403.8916525840759,404.04176330566406,404.04176330566406,404.04176330566406,404.04176330566406,404.04176330566406,404.04176330566406,404.04176330566406,405.99276852607727,2,2.0840349197387695,None,,,,,,,,,,,,,,,,,,69,5,2025-02-21_09h42.05.612,comp,2024.2.4,60.08256815023851,2025-02-21 10h02.16.801828 -0500,
