thisN,thisTrialN,thisRepN,effect,order,distance,config,diag,h_1,w_1,h_2,w_2,h_3,w_3,rect_choice.keys,rect_choice.rt,rect_choice.duration,instructions_loop.thisRepN,instructions_loop.thisTrialN,instructions_loop.thisN,instructions_loop.thisIndex,blocks.thisRepN,blocks.thisTrialN,blocks.thisN,blocks.thisIndex,trials.thisRepN,trials.thisTrialN,trials.thisN,trials.thisIndex,thisRow.t,notes,consent.started,agree_button.started,decline_button.started,consent_img.started,mouse.started,consent.stopped,agree_button.numClicks,agree_button.timesOn,agree_button.timesOff,decline_button.numClicks,decline_button.timesOn,decline_button.timesOff,mouse.x,mouse.y,mouse.leftButton,mouse.midButton,mouse.rightButton,mouse.time,mouse.clicked_name,exp_params.started,exp_params.stopped,welcome.started,welcome_text.started,welcome.stopped,instructions_1.started,instructions_1_text_1.started,instructions_1_text_2.started,key_resp.started,instructions_1.stopped,instructions_loop.key_resp.keys,instructions_loop.key_resp.rt,instructions_loop.key_resp.duration,instructions_2.started,instructions_2_text_1.started,instructions_2_text_2.started,key_resp_2.started,instructions_2.stopped,instructions_loop.key_resp_2.keys,instructions_loop.key_resp_2.rt,instructions_loop.key_resp_2.duration,instructions_3.started,instructions_3_text_1.started,r1_instr3.started,r2_instr3.started,r3_instr3.started,r1_instr3_label.started,r2_instr3_label.started,r3_instr3_label.started,instructions_3_text_3.started,instructions_3_text_4.started,key_resp_3.started,instructions_3.stopped,instructions_loop.key_resp_3.keys,instructions_loop.key_resp_3.rt,instructions_loop.key_resp_3.duration,instructions_4.started,instructions_4_text_1.started,instructions_4_text_3.started,instructions_4_text_2.started,key_resp_4.started,instructions_4.stopped,instructions_loop.key_resp_4.keys,instructions_loop.key_resp_4.rt,instructions_loop.key_resp_4.duration,instructions_5.started,instructions_5_text_1.started,instructions_5_text_2.started,key_resp_5.started,instructions_5.stopped,instructions_loop.key_resp_5.keys,instructions_loop.key_resp_5.rt,instructions_loop.key_resp_5.duration,start_exp.started,start_exp_text.started,key_resp_6.started,start_exp.stopped,key_resp_6.keys,key_resp_6.rt,key_resp_6.duration,h_1_tmp,w_1_tmp,h_2_tmp,w_2_tmp,h_3_tmp,w_3_tmp,config_tmp,config_tmp_1,r_1_x,r_1_y,r_2_x,r_2_y,r_3_x,r_3_y,pre_trial.started,pre_trial.stopped,choice_trial.started,rect_choice.started,r_1.started,r_2.started,r_3.started,r_1_label.started,r_2_label.started,r_3_label.started,prompt.started,choice_trial.stopped,trials.rect_choice.keys,trials.rect_choice.rt,trials.rect_choice.duration,end_block.started,end_block_text.started,end_block.stopped,end.started,end_text.started,key_resp_7.started,end.stopped,key_resp_7.keys,key_resp_7.rt,key_resp_7.duration,debriefing.started,debrief_form.started,end_debrief.started,debriefing.stopped,end_debrief.keys,end_debrief.rt,end_debrief.duration,participant,computer,date,expName,psychopyVersion,frameRate,expStart,
,,,,,,,,,,,,,,,,,,,,,,,,,,,,,,,0.014868021011352539,0.038161516189575195,0.038161516189575195,0.038161516189575195,0.01462244987487793,20.931375741958618,1,[20.890445232391357],[20.890480279922485],0,,,[-77.0],[-499.0],[1],[0],[0],[20.916032791137695],['agree_button'],,,,,,,,,,,,,,,,,,,,,,,,,,,,,,,,,,,,,,,,,,,,,,,,,,,,,,,,,,,,,,,,,,,,,,,,,,,,,,,,,,,,,,,,,,,,,,,,,,,,,,,,,,,70,1,2025-02-21_10h56.21.855,comp,2024.2.4,None,2025-02-21 10h56.34.547222 -0500,
,,,,,,,,,,,,,,,,,,,,,,,,,,,,,,,,,,,,,,,,,,,,,,,,,,20.932025909423828,20.932092666625977,,,,,,,,,,,,,,,,,,,,,,,,,,,,,,,,,,,,,,,,,,,,,,,,,,,,,,,,,,,,,,,,,,,,,,,,,,,,,,,,,,,,,,,,,,,,,,,,,,,,,,,,,70,1,2025-02-21_10h56.21.855,comp,2024.2.4,None,2025-02-21 10h56.34.547222 -0500,
,,,,,,,,,,,,,,,,,,,,,,,,,,,,,,,,,,,,,,,,,,,,,,,,,,,,20.93213391304016,20.94645071029663,22.940605401992798,,,,,,,,,,,,,,,,,,,,,,,,,,,,,,,,,,,,,,,,,,,,,,,,,,,,,,,,,,,,,,,,,,,,,,,,,,,,,,,,,,,,,,,,,,,,,,,,,,,,,,70,1,2025-02-21_10h56.21.855,comp,2024.2.4,None,2025-02-21 10h56.34.547222 -0500,
0,0,0,,,,,,,,,,,,,,,0,0,0,0,,,,,,,,,22.96140146255493,,,,,,,,,,,,,,,,,,,,,,,,,,22.941483736038208,22.96140146255493,22.96140146255493,24.445135354995728,27.25935649871826,space,2.7985196113586426,None,27.259531259536743,27.27554941177368,27.27554941177368,28.760040521621704,32.31374526023865,space,3.5385208129882812,None,32.31403040885925,32.34809184074402,32.34809184074402,32.34809184074402,32.34809184074402,32.34809184074402,32.34809184074402,32.34809184074402,32.34809184074402,32.34809184074402,33.82748222351074,39.84896540641785,space,6.015651226043701,None,39.84912300109863,39.86735415458679,39.86735415458679,39.86735415458679,41.34747338294983,46.365947246551514,space,5.006885528564453,None,46.36609983444214,46.38296890258789,46.38296890258789,47.88115453720093,48.88444495201111,space,0.9939010143280029,None,48.88464045524597,48.89947319030762,48.89947319030762,51.26507830619812,space,2.359625816345215,None,,,,,,,,,,,,,,,,,,,,,,,,,,,,,,,,,,,,,,,,,,,,,,,70,1,2025-02-21_10h56.21.855,comp,2024.2.4,None,2025-02-21 10h56.34.547222 -0500,
0,0,0,critical,wdh,35.0,2.1,lower,57.0,133.0,70.0,70.0,133.0,57.0,1,4.3713274002075195,None,,,,,0,0,0,0,0,0,0,8,51.34356093406677,,,,,,,,,,,,,,,,,,,,,,,,,,,,,,,,,,,,,,,,,,,,,,,,,,,,,,,,,,,,,,,,,,,,,,,,,,,,,,,,,57.0,133.0,70.0,70.0,133.0,57.0,2.1,2.11,-198,257,0,257,160,-284,51.32658386230469,51.32662057876587,51.32799410820007,51.34356093406677,51.491201877593994,51.491201877593994,51.491201877593994,51.491201877593994,51.491201877593994,51.491201877593994,51.491201877593994,55.7207236289978,1,4.3713274002075195,None,,,,,,,,,,,,,,,,,,70,1,2025-02-21_10h56.21.855,comp,2024.2.4,None,2025-02-21 10h56.34.547222 -0500,
1,1,0,critical,hdw,35.0,2.1,lower,133.0,57.0,70.0,70.0,57.0,133.0,3,4.378233432769775,None,,,,,0,0,0,0,0,1,1,20,55.73660898208618,,,,,,,,,,,,,,,,,,,,,,,,,,,,,,,,,,,,,,,,,,,,,,,,,,,,,,,,,,,,,,,,,,,,,,,,,,,,,,,,,133.0,57.0,70.0,70.0,57.0,133.0,2.1,2.12,-160,-283,0,-289,198,269,55.72219491004944,55.7222638130188,55.725704193115234,55.73660898208618,55.88484454154968,55.88484454154968,55.88484454154968,55.88484454154968,55.88484454154968,55.88484454154968,55.88484454154968,60.12316584587097,3,4.378233432769775,None,,,,,,,,,,,,,,,,,,70,1,2025-02-21_10h56.21.855,comp,2024.2.4,None,2025-02-21 10h56.34.547222 -0500,
2,2,0,filler_random,None,None,None,None,None,None,None,None,None,None,1,3.7576239109039307,None,,,,,0,0,0,0,0,2,2,141,60.141438007354736,,,,,,,,,,,,,,,,,,,,,,,,,,,,,,,,,,,,,,,,,,,,,,,,,,,,,,,,,,,,,,,,,,,,,,,,,,,,,,,,,120.35617404582577,175.31235622505005,71.71402395055759,156.63770861767995,136.94300663188272,78.56883926729074,1.0,1.1,-742,289,-480,269,-266,290,60.124897480010986,60.124977827072144,60.12833881378174,60.141438007354736,60.28653359413147,60.28653359413147,60.28653359413147,60.28653359413147,60.28653359413147,60.28653359413147,60.28653359413147,63.90874648094177,1,3.7576239109039307,None,,,,,,,,,,,,,,,,,,70,1,2025-02-21_10h56.21.855,comp,2024.2.4,None,2025-02-21 10h56.34.547222 -0500,
3,3,0,filler_square,None,None,None,None,None,None,None,None,None,None,1,5.61282205581665,None,,,,,0,0,0,0,0,3,3,176,63.92568802833557,,,,,,,,,,,,,,,,,,,,,,,,,,,,,,,,,,,,,,,,,,,,,,,,,,,,,,,,,,,,,,,,,,,,,,,,,,,,,,,,,128.5811632423225,128.5811632423225,120.09705153600544,86.76204744521885,78.6442038604808,122.67414314263527,2.2,2.22,-204,282,0,-255,201,-278,63.91096115112305,63.911073446273804,63.9149124622345,63.92568802833557,64.07331967353821,64.07331967353821,64.07331967353821,64.07331967353821,64.07331967353821,64.07331967353821,64.07331967353821,69.54071807861328,1,5.61282205581665,None,,,,,,,,,,,,,,,,,,70,1,2025-02-21_10h56.21.855,comp,2024.2.4,None,2025-02-21 10h56.34.547222 -0500,
4,4,0,critical,hdw,20.0,3.0,lower,133.0,57.0,78.0,78.0,57.0,133.0,3,5.365649938583374,None,,,,,0,0,0,0,0,4,4,116,69.55711007118225,,,,,,,,,,,,,,,,,,,,,,,,,,,,,,,,,,,,,,,,,,,,,,,,,,,,,,,,,,,,,,,,,,,,,,,,,,,,,,,,,133.0,57.0,78.0,78.0,57.0,133.0,3.0,3.2,-164,-279,0,-19,202,266,69.54245257377625,69.54259634017944,69.54613304138184,69.55711007118225,69.7141740322113,69.7141740322113,69.7141740322113,69.7141740322113,69.7141740322113,69.7141740322113,69.7141740322113,74.92475485801697,3,5.365649938583374,None,,,,,,,,,,,,,,,,,,70,1,2025-02-21_10h56.21.855,comp,2024.2.4,None,2025-02-21 10h56.34.547222 -0500,
5,5,0,filler_square,None,None,None,None,None,None,None,None,None,None,3,3.1981053352355957,None,,,,,0,0,0,0,0,5,5,172,74.94139575958252,,,,,,,,,,,,,,,,,,,,,,,,,,,,,,,,,,,,,,,,,,,,,,,,,,,,,,,,,,,,,,,,,,,,,,,,,,,,,,,,,65.38014666613131,58.31530759308101,70.21321440956241,60.097065932762504,70.93928323550274,70.93928323550274,4.0,4.1,-155,-281,0,-10,162,-265,74.92645168304443,74.92652940750122,74.92961978912354,74.94139575958252,75.08972311019897,75.08972311019897,75.08972311019897,75.08972311019897,75.08972311019897,75.08972311019897,75.08972311019897,78.14399647712708,3,3.1981053352355957,None,,,,,,,,,,,,,,,,,,70,1,2025-02-21_10h56.21.855,comp,2024.2.4,None,2025-02-21 10h56.34.547222 -0500,
6,6,0,critical,hwd,20.0,3.0,upper,200.0,125.0,125.0,200.0,141.0,141.0,2,3.9305260181427,None,,,,,0,0,0,0,0,6,6,105,78.16020488739014,,,,,,,,,,,,,,,,,,,,,,,,,,,,,,,,,,,,,,,,,,,,,,,,,,,,,,,,,,,,,,,,,,,,,,,,,,,,,,,,,200.0,125.0,125.0,200.0,141.0,141.0,3.0,3.1,-258,267,0,11,266,-255,78.14551401138306,78.14559173583984,78.14929294586182,78.16020488739014,78.31119728088379,78.31119728088379,78.31119728088379,78.31119728088379,78.31119728088379,78.31119728088379,78.31119728088379,82.09496593475342,2,3.9305260181427,None,,,,,,,,,,,,,,,,,,70,1,2025-02-21_10h56.21.855,comp,2024.2.4,None,2025-02-21 10h56.34.547222 -0500,
7,7,0,filler_random,None,None,None,None,None,None,None,None,None,None,1,5.042901515960693,None,,,,,0,0,0,0,0,7,7,146,82.11172723770142,,,,,,,,,,,,,,,,,,,,,,,,,,,,,,,,,,,,,,,,,,,,,,,,,,,,,,,,,,,,,,,,,,,,,,,,,,,,,,,,,136.0744347367627,115.86466832082577,129.1975731412747,123.91161115597727,101.91550761593271,130.92135003667258,2.1,2.11,-216,256,0,271,223,-262,82.09677290916443,82.09688305854797,82.10098028182983,82.11172723770142,82.2618510723114,82.2618510723114,82.2618510723114,82.2618510723114,82.2618510723114,82.2618510723114,82.2618510723114,87.1675615310669,1,5.042901515960693,None,,,,,,,,,,,,,,,,,,70,1,2025-02-21_10h56.21.855,comp,2024.2.4,None,2025-02-21 10h56.34.547222 -0500,
8,8,0,critical,dhw,20.0,3.0,upper,141.0,141.0,200.0,125.0,125.0,200.0,3,2.0857136249542236,None,,,,,0,0,0,0,0,8,8,57,87.18149089813232,,,,,,,,,,,,,,,,,,,,,,,,,,,,,,,,,,,,,,,,,,,,,,,,,,,,,,,,,,,,,,,,,,,,,,,,,,,,,,,,,141.0,141.0,200.0,125.0,125.0,200.0,3.0,3.1,-229,283,0,6,258,-286,87.16909217834473,87.16916680335999,87.1721465587616,87.18149089813232,87.32771325111389,87.32771325111389,87.32771325111389,87.32771325111389,87.32771325111389,87.32771325111389,87.32771325111389,89.27081155776978,3,2.0857136249542236,None,,,,,,,,,,,,,,,,,,70,1,2025-02-21_10h56.21.855,comp,2024.2.4,None,2025-02-21 10h56.34.547222 -0500,
9,9,0,filler_random,None,None,None,None,None,None,None,None,None,None,1,2.669844150543213,None,,,,,0,0,0,0,0,9,9,156,89.28544306755066,,,,,,,,,,,,,,,,,,,,,,,,,,,,,,,,,,,,,,,,,,,,,,,,,,,,,,,,,,,,,,,,,,,,,,,,,,,,,,,,,124.3380217781559,181.48030629668733,159.41179528481655,101.50739992422444,196.77398103744156,117.46663157542392,3.0,3.2,-237,-281,0,12,205,280,89.27253317832947,89.27260851860046,89.2755651473999,89.28544306755066,89.42711520195007,89.42711520195007,89.42711520195007,89.42711520195007,89.42711520195007,89.42711520195007,89.42711520195007,91.96490478515625,1,2.669844150543213,None,,,,,,,,,,,,,,,,,,70,1,2025-02-21_10h56.21.855,comp,2024.2.4,None,2025-02-21 10h56.34.547222 -0500,
10,10,0,critical,hwd,35.0,4.0,upper,200.0,125.0,125.0,200.0,127.0,127.0,2,3.1486289501190186,None,,,,,0,0,0,0,0,10,10,101,91.98202180862427,,,,,,,,,,,,,,,,,,,,,,,,,,,,,,,,,,,,,,,,,,,,,,,,,,,,,,,,,,,,,,,,,,,,,,,,,,,,,,,,,200.0,125.0,125.0,200.0,127.0,127.0,4.0,4.1,-258,-254,0,13,260,-253,91.96634721755981,91.96642518043518,91.9705867767334,91.98202180862427,92.13025856018066,92.13025856018066,92.13025856018066,92.13025856018066,92.13025856018066,92.13025856018066,92.13025856018066,95.14830350875854,2,3.1486289501190186,None,,,,,,,,,,,,,,,,,,70,1,2025-02-21_10h56.21.855,comp,2024.2.4,None,2025-02-21 10h56.34.547222 -0500,
11,11,0,filler_random,None,None,None,None,None,None,None,None,None,None,1,2.169961929321289,None,,,,,0,0,0,0,0,11,11,143,95.16857576370239,,,,,,,,,,,,,,,,,,,,,,,,,,,,,,,,,,,,,,,,,,,,,,,,,,,,,,,,,,,,,,,,,,,,,,,,,,,,,,,,,112.76522825680333,188.83822742413275,98.42652880298824,151.54763673724858,57.19773830198957,78.08506125233704,1.0,1.3,214,-267,480,-282,691,-269,95.14998245239258,95.150057554245,95.15335273742676,95.16857576370239,95.31560945510864,95.31560945510864,95.31560945510864,95.31560945510864,95.31560945510864,95.31560945510864,95.31560945510864,97.35152459144592,1,2.169961929321289,None,,,,,,,,,,,,,,,,,,70,1,2025-02-21_10h56.21.855,comp,2024.2.4,None,2025-02-21 10h56.34.547222 -0500,
12,12,0,critical,wdh,20.0,2.1,lower,57.0,133.0,78.0,78.0,133.0,57.0,1,5.044384956359863,None,,,,,0,0,0,0,0,12,12,10,97.36663150787354,,,,,,,,,,,,,,,,,,,,,,,,,,,,,,,,,,,,,,,,,,,,,,,,,,,,,,,,,,,,,,,,,,,,,,,,,,,,,,,,,57.0,133.0,78.0,78.0,133.0,57.0,2.1,2.12,-202,-270,0,-268,164,258,97.35305643081665,97.35313558578491,97.35628747940063,97.36663150787354,97.52391314506531,97.52391314506531,97.52391314506531,97.52391314506531,97.52391314506531,97.52391314506531,97.52391314506531,102.41618585586548,1,5.044384956359863,None,,,,,,,,,,,,,,,,,,70,1,2025-02-21_10h56.21.855,comp,2024.2.4,None,2025-02-21 10h56.34.547222 -0500,
13,13,0,critical,hdw,35.0,2.1,upper,200.0,125.0,127.0,127.0,125.0,200.0,3,4.169981002807617,None,,,,,0,0,0,0,0,13,13,45,102.43291926383972,,,,,,,,,,,,,,,,,,,,,,,,,,,,,,,,,,,,,,,,,,,,,,,,,,,,,,,,,,,,,,,,,,,,,,,,,,,,,,,,,200.0,125.0,127.0,127.0,125.0,200.0,2.1,2.12,-222,-287,0,-280,260,252,102.41777348518372,102.41784834861755,102.42118382453918,102.43291926383972,102.57204413414001,102.57204413414001,102.57204413414001,102.57204413414001,102.57204413414001,102.57204413414001,102.57204413414001,106.60966563224792,3,4.169981002807617,None,,,,,,,,,,,,,,,,,,70,1,2025-02-21_10h56.21.855,comp,2024.2.4,None,2025-02-21 10h56.34.547222 -0500,
14,14,0,critical,whd,20.0,3.0,upper,125.0,200.0,200.0,125.0,141.0,141.0,1,3.701892852783203,None,,,,,0,0,0,0,0,14,14,93,106.62930464744568,,,,,,,,,,,,,,,,,,,,,,,,,,,,,,,,,,,,,,,,,,,,,,,,,,,,,,,,,,,,,,,,,,,,,,,,,,,,,,,,,125.0,200.0,200.0,125.0,141.0,141.0,3.0,3.2,-258,-264,0,20,229,262,106.61126494407654,106.6113429069519,106.61469268798828,106.62930464744568,106.76875472068787,106.76875472068787,106.76875472068787,106.76875472068787,106.76875472068787,106.76875472068787,106.76875472068787,110.33807826042175,1,3.701892852783203,None,,,,,,,,,,,,,,,,,,70,1,2025-02-21_10h56.21.855,comp,2024.2.4,None,2025-02-21 10h56.34.547222 -0500,
15,15,0,filler_square,None,None,None,None,None,None,None,None,None,None,1,5.227145433425903,None,,,,,0,0,0,0,0,15,15,196,110.35941457748413,,,,,,,,,,,,,,,,,,,,,,,,,,,,,,,,,,,,,,,,,,,,,,,,,,,,,,,,,,,,,,,,,,,,,,,,,,,,,,,,,81.58521799796158,81.58521799796158,69.57283479947179,63.71591905814684,59.26491791299733,75.13489172692279,3.0,3.1,-169,259,0,-5,165,-265,110.33975887298584,110.33990478515625,110.34358763694763,110.35941457748413,110.50028944015503,110.50028944015503,110.50028944015503,110.50028944015503,110.50028944015503,110.50028944015503,110.50028944015503,115.60454154014587,1,5.227145433425903,None,,,,,,,,,,,,,,,,,,70,1,2025-02-21_10h56.21.855,comp,2024.2.4,None,2025-02-21 10h56.34.547222 -0500,
16,16,0,critical,hdw,35.0,3.0,lower,133.0,57.0,70.0,70.0,57.0,133.0,3,4.794287919998169,None,,,,,0,0,0,0,0,16,16,110,115.62462639808655,,,,,,,,,,,,,,,,,,,,,,,,,,,,,,,,,,,,,,,,,,,,,,,,,,,,,,,,,,,,,,,,,,,,,,,,,,,,,,,,,133.0,57.0,70.0,70.0,57.0,133.0,3.0,3.1,-160,254,0,-3,198,-278,115.60614323616028,115.60621905326843,115.60976576805115,115.62462639808655,115.77179408073425,115.77179408073425,115.77179408073425,115.77179408073425,115.77179408073425,115.77179408073425,115.77179408073425,120.42232751846313,3,4.794287919998169,None,,,,,,,,,,,,,,,,,,70,1,2025-02-21_10h56.21.855,comp,2024.2.4,None,2025-02-21 10h56.34.547222 -0500,
17,17,0,filler_square,None,None,None,None,None,None,None,None,None,None,3,6.856091022491455,None,,,,,0,0,0,0,0,17,17,193,120.44268703460693,,,,,,,,,,,,,,,,,,,,,,,,,,,,,,,,,,,,,,,,,,,,,,,,,,,,,,,,,,,,,,,,,,,,,,,,,,,,,,,,,79.41516031920563,74.11791231735361,79.30286344791995,63.74055599299383,80.51471861696555,80.51471861696555,4.0,4.1,-165,-280,0,12,168,-286,120.42415165901184,120.4242296218872,120.42732787132263,120.44268703460693,120.58975338935852,120.58975338935852,120.58975338935852,120.58975338935852,120.58975338935852,120.58975338935852,120.58975338935852,127.30076479911804,3,6.856091022491455,None,,,,,,,,,,,,,,,,,,70,1,2025-02-21_10h56.21.855,comp,2024.2.4,None,2025-02-21 10h56.34.547222 -0500,
18,18,0,catch,None,None,None,None,None,None,None,None,None,None,2,2.633495807647705,None,,,,,0,0,0,0,0,18,18,123,127.3214156627655,,,,,,,,,,,,,,,,,,,,,,,,,,,,,,,,,,,,,,,,,,,,,,,,,,,,,,,,,,,,,,,,,,,,,,,,,,,,,,,,,94,96,180,145,86,104,2.1,2.12,-216,-286,0,-277,220,281,127.30267643928528,127.30275821685791,127.30568027496338,127.3214156627655,127.46047949790955,127.46047949790955,127.46047949790955,127.46047949790955,127.46047949790955,127.46047949790955,127.46047949790955,129.96040654182434,2,2.633495807647705,None,,,,,,,,,,,,,,,,,,70,1,2025-02-21_10h56.21.855,comp,2024.2.4,None,2025-02-21 10h56.34.547222 -0500,
19,19,0,critical,hwd,35.0,4.0,lower,133.0,57.0,57.0,133.0,70.0,70.0,1,4.438239812850952,None,,,,,0,0,0,0,0,19,19,100,129.98026847839355,,,,,,,,,,,,,,,,,,,,,,,,,,,,,,,,,,,,,,,,,,,,,,,,,,,,,,,,,,,,,,,,,,,,,,,,,,,,,,,,,133.0,57.0,57.0,133.0,70.0,70.0,4.0,4.2,-191,-2,0,-282,198,10,129.96188688278198,129.96196794509888,129.96494460105896,129.98026847839355,130.12610507011414,130.12610507011414,130.12610507011414,130.12610507011414,130.12610507011414,130.12610507011414,130.12610507011414,134.42763686180115,1,4.438239812850952,None,,,,,,,,,,,,,,,,,,70,1,2025-02-21_10h56.21.855,comp,2024.2.4,None,2025-02-21 10h56.34.547222 -0500,
20,20,0,critical,whd,20.0,2.1,lower,57.0,133.0,133.0,57.0,78.0,78.0,2,3.2485270500183105,None,,,,,0,0,0,0,0,20,20,14,134.44234538078308,,,,,,,,,,,,,,,,,,,,,,,,,,,,,,,,,,,,,,,,,,,,,,,,,,,,,,,,,,,,,,,,,,,,,,,,,,,,,,,,,57.0,133.0,133.0,57.0,78.0,78.0,2.1,2.12,-191,-260,0,-259,164,280,134.42925333976746,134.42933201789856,134.43272829055786,134.44234538078308,134.59493494033813,134.59493494033813,134.59493494033813,134.59493494033813,134.59493494033813,134.59493494033813,134.59493494033813,137.695405960083,2,3.2485270500183105,None,,,,,,,,,,,,,,,,,,70,1,2025-02-21_10h56.21.855,comp,2024.2.4,None,2025-02-21 10h56.34.547222 -0500,
21,21,0,critical,whd,35.0,1.0,upper,125.0,200.0,200.0,125.0,127.0,127.0,1,3.2914481163024902,None,,,,,0,0,0,0,0,21,21,85,137.7113766670227,,,,,,,,,,,,,,,,,,,,,,,,,,,,,,,,,,,,,,,,,,,,,,,,,,,,,,,,,,,,,,,,,,,,,,,,,,,,,,,,,125.0,200.0,200.0,125.0,127.0,127.0,1.0,1.2,-258,6,0,-6,222,3,137.6969015598297,137.69698095321655,137.70045590400696,137.7113766670227,137.85902309417725,137.85902309417725,137.85902309417725,137.85902309417725,137.85902309417725,137.85902309417725,137.85902309417725,141.01528692245483,1,3.2914481163024902,None,,,,,,,,,,,,,,,,,,70,1,2025-02-21_10h56.21.855,comp,2024.2.4,None,2025-02-21 10h56.34.547222 -0500,
22,22,0,catch,None,None,None,None,None,None,None,None,None,None,3,2.1157124042510986,None,,,,,0,0,0,0,0,22,22,129,141.03096389770508,,,,,,,,,,,,,,,,,,,,,,,,,,,,,,,,,,,,,,,,,,,,,,,,,,,,,,,,,,,,,,,,,,,,,,,,,,,,,,,,,73,117,59,131,196,129,3.0,3.2,-220,-279,0,6,226,268,141.01716327667236,141.01724243164062,141.02025961875916,141.03096389770508,141.17998790740967,141.17998790740967,141.17998790740967,141.17998790740967,141.17998790740967,141.17998790740967,141.17998790740967,143.15091013908386,3,2.1157124042510986,None,,,,,,,,,,,,,,,,,,70,1,2025-02-21_10h56.21.855,comp,2024.2.4,None,2025-02-21 10h56.34.547222 -0500,
23,23,0,critical,dwh,20.0,3.0,lower,78.0,78.0,57.0,133.0,133.0,57.0,2,3.4708027839660645,None,,,,,0,0,0,0,0,23,23,68,143.1719479560852,,,,,,,,,,,,,,,,,,,,,,,,,,,,,,,,,,,,,,,,,,,,,,,,,,,,,,,,,,,,,,,,,,,,,,,,,,,,,,,,,78.0,78.0,57.0,133.0,133.0,57.0,3.0,3.1,-202,253,0,-6,191,-258,143.15252685546875,143.15266013145447,143.15617418289185,143.1719479560852,143.31398582458496,143.31398582458496,143.31398582458496,143.31398582458496,143.31398582458496,143.31398582458496,143.31398582458496,146.64930653572083,2,3.4708027839660645,None,,,,,,,,,,,,,,,,,,70,1,2025-02-21_10h56.21.855,comp,2024.2.4,None,2025-02-21 10h56.34.547222 -0500,
24,24,0,filler_random,None,None,None,None,None,None,None,None,None,None,2,2.2150702476501465,None,,,,,0,0,0,0,0,24,24,157,146.66761088371277,,,,,,,,,,,,,,,,,,,,,,,,,,,,,,,,,,,,,,,,,,,,,,,,,,,,,,,,,,,,,,,,,,,,,,,,,,,,,,,,,111.41648805946573,91.64693499644144,181.84245197091826,160.81359861761698,123.54933713378028,154.8318641972045,2.2,2.21,-222,-263,0,275,254,266,146.65101766586304,146.65110850334167,146.65440559387207,146.66761088371277,146.8148946762085,146.8148946762085,146.8148946762085,146.8148946762085,146.8148946762085,146.8148946762085,146.8148946762085,148.88491106033325,2,2.2150702476501465,None,,,,,,,,,,,,,,,,,,70,1,2025-02-21_10h56.21.855,comp,2024.2.4,None,2025-02-21 10h56.34.547222 -0500,
25,25,0,critical,whd,35.0,2.1,lower,57.0,133.0,133.0,57.0,70.0,70.0,1,6.549052953720093,None,,,,,0,0,0,0,0,25,25,12,148.9015669822693,,,,,,,,,,,,,,,,,,,,,,,,,,,,,,,,,,,,,,,,,,,,,,,,,,,,,,,,,,,,,,,,,,,,,,,,,,,,,,,,,57.0,133.0,133.0,57.0,70.0,70.0,2.1,2.12,-191,-263,0,-254,160,290,148.88646626472473,148.88654351234436,148.8898847103119,148.9015669822693,149.04843711853027,149.04843711853027,149.04843711853027,149.04843711853027,149.04843711853027,149.04843711853027,149.04843711853027,155.46758031845093,1,6.549052953720093,None,,,,,,,,,,,,,,,,,,70,1,2025-02-21_10h56.21.855,comp,2024.2.4,None,2025-02-21 10h56.34.547222 -0500,
26,26,0,catch,None,None,None,None,None,None,None,None,None,None,2,2.3728997707366943,None,,,,,0,0,0,0,0,26,26,127,155.4858877658844,,,,,,,,,,,,,,,,,,,,,,,,,,,,,,,,,,,,,,,,,,,,,,,,,,,,,,,,,,,,,,,,,,,,,,,,,,,,,,,,,122,68,162,163,120,70,2.1,2.11,-212,269,0,257,212,-286,155.46979212760925,155.46990060806274,155.47343754768372,155.4858877658844,155.63477277755737,155.63477277755737,155.63477277755737,155.63477277755737,155.63477277755737,155.63477277755737,155.63477277755737,157.8687355518341,2,2.3728997707366943,None,,,,,,,,,,,,,,,,,,70,1,2025-02-21_10h56.21.855,comp,2024.2.4,None,2025-02-21 10h56.34.547222 -0500,
27,27,0,critical,hwd,20.0,4.0,lower,133.0,57.0,57.0,133.0,78.0,78.0,2,2.5663201808929443,None,,,,,0,0,0,0,0,27,27,106,157.88478326797485,,,,,,,,,,,,,,,,,,,,,,,,,,,,,,,,,,,,,,,,,,,,,,,,,,,,,,,,,,,,,,,,,,,,,,,,,,,,,,,,,133.0,57.0,57.0,133.0,78.0,78.0,4.0,4.1,-191,-282,0,15,202,-252,157.87035083770752,157.87042903900146,157.87372875213623,157.88478326797485,158.02173805236816,158.02173805236816,158.02173805236816,158.02173805236816,158.02173805236816,158.02173805236816,158.02173805236816,160.45517921447754,2,2.5663201808929443,None,,,,,,,,,,,,,,,,,,70,1,2025-02-21_10h56.21.855,comp,2024.2.4,None,2025-02-21 10h56.34.547222 -0500,
28,28,0,critical,dhw,20.0,1.0,upper,141.0,141.0,200.0,125.0,125.0,200.0,3,3.14802622795105,None,,,,,0,0,0,0,0,28,28,55,160.47122526168823,,,,,,,,,,,,,,,,,,,,,,,,,,,,,,,,,,,,,,,,,,,,,,,,,,,,,,,,,,,,,,,,,,,,,,,,,,,,,,,,,141.0,141.0,200.0,125.0,125.0,200.0,1.0,1.1,-709,265,-480,264,-222,277,160.4570393562317,160.45715260505676,160.46039724349976,160.47122526168823,160.61984252929688,160.61984252929688,160.61984252929688,160.61984252929688,160.61984252929688,160.61984252929688,160.61984252929688,163.62692642211914,3,3.14802622795105,None,,,,,,,,,,,,,,,,,,70,1,2025-02-21_10h56.21.855,comp,2024.2.4,None,2025-02-21 10h56.34.547222 -0500,
29,29,0,catch,None,None,None,None,None,None,None,None,None,None,1,1.7899539470672607,None,,,,,0,0,0,0,0,29,29,121,163.64506196975708,,,,,,,,,,,,,,,,,,,,,,,,,,,,,,,,,,,,,,,,,,,,,,,,,,,,,,,,,,,,,,,,,,,,,,,,,,,,,,,,,188,137,78,112,67,123,2.1,2.11,-220,288,0,263,214,-281,163.62884497642517,163.62896347045898,163.6319043636322,163.64506196975708,163.78746461868286,163.78746461868286,163.78746461868286,163.78746461868286,163.78746461868286,163.78746461868286,163.78746461868286,165.43908882141113,1,1.7899539470672607,None,,,,,,,,,,,,,,,,,,70,1,2025-02-21_10h56.21.855,comp,2024.2.4,None,2025-02-21 10h56.34.547222 -0500,
30,30,0,critical,dhw,20.0,4.0,lower,78.0,78.0,133.0,57.0,57.0,133.0,2,3.9715166091918945,None,,,,,0,0,0,0,0,30,30,58,165.45503449440002,,,,,,,,,,,,,,,,,,,,,,,,,,,,,,,,,,,,,,,,,,,,,,,,,,,,,,,,,,,,,,,,,,,,,,,,,,,,,,,,,78.0,78.0,133.0,57.0,57.0,133.0,4.0,4.2,-164,-11,0,-252,191,14,165.44069600105286,165.4407844543457,165.4442629814148,165.45503449440002,165.6022071838379,165.6022071838379,165.6022071838379,165.6022071838379,165.6022071838379,165.6022071838379,165.6022071838379,169.43771505355835,2,3.9715166091918945,None,,,,,,,,,,,,,,,,,,70,1,2025-02-21_10h56.21.855,comp,2024.2.4,None,2025-02-21 10h56.34.547222 -0500,
31,31,0,filler_random,None,None,None,None,None,None,None,None,None,None,1,2.1929924488067627,None,,,,,0,0,0,0,0,31,31,149,169.4587013721466,,,,,,,,,,,,,,,,,,,,,,,,,,,,,,,,,,,,,,,,,,,,,,,,,,,,,,,,,,,,,,,,,,,,,,,,,,,,,,,,,159.83588393260524,179.56199499476207,102.25697322548382,94.81677081095509,121.72436092809957,73.69301875243386,2.1,2.12,-233,-283,0,-266,180,259,169.4395079612732,169.43961024284363,169.4429144859314,169.4587013721466,169.60536217689514,169.60536217689514,169.60536217689514,169.60536217689514,169.60536217689514,169.60536217689514,169.60536217689514,171.65635204315186,1,2.1929924488067627,None,,,,,,,,,,,,,,,,,,70,1,2025-02-21_10h56.21.855,comp,2024.2.4,None,2025-02-21 10h56.34.547222 -0500,
32,32,0,critical,whd,20.0,2.1,upper,125.0,200.0,200.0,125.0,141.0,141.0,1,7.034297943115234,None,,,,,0,0,0,0,0,32,32,39,171.67238998413086,,,,,,,,,,,,,,,,,,,,,,,,,,,,,,,,,,,,,,,,,,,,,,,,,,,,,,,,,,,,,,,,,,,,,,,,,,,,,,,,,125.0,200.0,200.0,125.0,141.0,141.0,2.1,2.12,-258,-274,0,-282,229,284,171.657963514328,171.65804624557495,171.66159439086914,171.67238998413086,171.8226637840271,171.8226637840271,171.8226637840271,171.8226637840271,171.8226637840271,171.8226637840271,171.8226637840271,178.7089786529541,1,7.034297943115234,None,,,,,,,,,,,,,,,,,,70,1,2025-02-21_10h56.21.855,comp,2024.2.4,None,2025-02-21 10h56.34.547222 -0500,
33,33,0,critical,hdw,20.0,3.0,upper,200.0,125.0,141.0,141.0,125.0,200.0,3,6.901099920272827,None,,,,,0,0,0,0,0,33,33,117,178.72556948661804,,,,,,,,,,,,,,,,,,,,,,,,,,,,,,,,,,,,,,,,,,,,,,,,,,,,,,,,,,,,,,,,,,,,,,,,,,,,,,,,,200.0,125.0,141.0,141.0,125.0,200.0,3.0,3.1,-229,265,0,-15,266,-259,178.71057653427124,178.7106602191925,178.7147557735443,178.72556948661804,178.87596011161804,178.87596011161804,178.87596011161804,178.87596011161804,178.87596011161804,178.87596011161804,178.87596011161804,185.64485120773315,3,6.901099920272827,None,,,,,,,,,,,,,,,,,,70,1,2025-02-21_10h56.21.855,comp,2024.2.4,None,2025-02-21 10h56.34.547222 -0500,
34,34,0,filler_random,None,None,None,None,None,None,None,None,None,None,1,3.565950632095337,None,,,,,0,0,0,0,0,34,34,151,185.66079711914062,,,,,,,,,,,,,,,,,,,,,,,,,,,,,,,,,,,,,,,,,,,,,,,,,,,,,,,,,,,,,,,,,,,,,,,,,,,,,,,,,154.36770406068865,63.2524762959844,114.41557112644676,78.96565568934813,66.68674227364798,87.50363808288213,4.0,4.2,-167,7,0,-262,179,20,185.64682483673096,185.64694905281067,185.650456905365,185.66079711914062,185.8090057373047,185.8090057373047,185.8090057373047,185.8090057373047,185.8090057373047,185.8090057373047,185.8090057373047,189.2446882724762,1,3.565950632095337,None,,,,,,,,,,,,,,,,,,70,1,2025-02-21_10h56.21.855,comp,2024.2.4,None,2025-02-21 10h56.34.547222 -0500,
35,35,0,filler_random,None,None,None,None,None,None,None,None,None,None,1,1.9764704704284668,None,,,,,0,0,0,0,0,35,35,163,189.2587492465973,,,,,,,,,,,,,,,,,,,,,,,,,,,,,,,,,,,,,,,,,,,,,,,,,,,,,,,,,,,,,,,,,,,,,,,,,,,,,,,,,165.73320219576794,175.81398275002147,91.11120145752821,151.95739210597765,78.64168950113006,180.5256660626884,2.2,2.21,-260,-259,0,273,262,276,189.24643969535828,189.2465169429779,189.24974989891052,189.2587492465973,189.40098118782043,189.40098118782043,189.40098118782043,189.40098118782043,189.40098118782043,189.40098118782043,189.40098118782043,191.2523431777954,1,1.9764704704284668,None,,,,,,,,,,,,,,,,,,70,1,2025-02-21_10h56.21.855,comp,2024.2.4,None,2025-02-21 10h56.34.547222 -0500,
36,36,0,filler_random,None,None,None,None,None,None,None,None,None,None,2,1.570913553237915,None,,,,,0,0,0,0,0,36,36,130,191.27230286598206,,,,,,,,,,,,,,,,,,,,,,,,,,,,,,,,,,,,,,,,,,,,,,,,,,,,,,,,,,,,,,,,,,,,,,,,,,,,,,,,,81.12655880339409,110.15608870345858,140.17411918129045,139.25499417748006,141.37785414468172,87.34438829824632,2.1,2.11,-221,260,0,277,209,-265,191.25398516654968,191.25405979156494,191.25700044631958,191.27230286598206,191.4170503616333,191.4170503616333,191.4170503616333,191.4170503616333,191.4170503616333,191.4170503616333,191.4170503616333,192.8502218723297,2,1.570913553237915,None,,,,,,,,,,,,,,,,,,70,1,2025-02-21_10h56.21.855,comp,2024.2.4,None,2025-02-21 10h56.34.547222 -0500,
37,37,0,critical,wdh,35.0,1.0,lower,57.0,133.0,70.0,70.0,133.0,57.0,3,2.0520334243774414,None,,,,,0,0,0,0,0,37,37,72,192.87119150161743,,,,,,,,,,,,,,,,,,,,,,,,,,,,,,,,,,,,,,,,,,,,,,,,,,,,,,,,,,,,,,,,,,,,,,,,,,,,,,,,,57.0,133.0,70.0,70.0,133.0,57.0,1.0,1.2,-198,11,0,13,160,5,192.85204243659973,192.85214519500732,192.85557413101196,192.87119150161743,193.01334881782532,193.01334881782532,193.01334881782532,193.01334881782532,193.01334881782532,193.01334881782532,193.01334881782532,194.93012952804565,3,2.0520334243774414,None,,,,,,,,,,,,,,,,,,70,1,2025-02-21_10h56.21.855,comp,2024.2.4,None,2025-02-21 10h56.34.547222 -0500,
38,38,0,filler_random,None,None,None,None,None,None,None,None,None,None,3,2.129088878631592,None,,,,,0,0,0,0,0,38,38,166,194.9460563659668,,,,,,,,,,,,,,,,,,,,,,,,,,,,,,,,,,,,,,,,,,,,,,,,,,,,,,,,,,,,,,,,,,,,,,,,,,,,,,,,,114.86269127942258,128.84404273298748,76.15719135335925,142.24104093932453,130.60656927314426,171.59415235011878,4.0,4.1,-232,-272,0,4,253,-278,194.9319040775299,194.93198347091675,194.9353609085083,194.9460563659668,195.09806394577026,195.09806394577026,195.09806394577026,195.09806394577026,195.09806394577026,195.09806394577026,195.09806394577026,197.07981872558594,3,2.129088878631592,None,,,,,,,,,,,,,,,,,,70,1,2025-02-21_10h56.21.855,comp,2024.2.4,None,2025-02-21 10h56.34.547222 -0500,
39,39,0,critical,wdh,35.0,1.0,upper,125.0,200.0,127.0,127.0,200.0,125.0,1,5.826534032821655,None,,,,,0,0,0,0,0,39,39,73,197.0960714817047,,,,,,,,,,,,,,,,,,,,,,,,,,,,,,,,,,,,,,,,,,,,,,,,,,,,,,,,,,,,,,,,,,,,,,,,,,,,,,,,,125.0,200.0,127.0,127.0,200.0,125.0,1.0,1.2,-260,-2,0,4,222,-16,197.0812804698944,197.0813548564911,197.08450269699097,197.0960714817047,197.2473132610321,197.2473132610321,197.2473132610321,197.2473132610321,197.2473132610321,197.2473132610321,197.2473132610321,202.93253254890442,1,5.826534032821655,None,,,,,,,,,,,,,,,,,,70,1,2025-02-21_10h56.21.855,comp,2024.2.4,None,2025-02-21 10h56.34.547222 -0500,
40,40,0,filler_square,None,None,None,None,None,None,None,None,None,None,3,1.4692461490631104,None,,,,,0,0,0,0,0,40,40,199,202.94939017295837,,,,,,,,,,,,,,,,,,,,,,,,,,,,,,,,,,,,,,,,,,,,,,,,,,,,,,,,,,,,,,,,,,,,,,,,,,,,,,,,,106.02057519211823,102.03576079634195,159.38093669495748,92.55327711930637,198.84489429380022,198.84489429380022,4.0,4.2,-193,-8,0,-266,242,7,202.93452310562134,202.93460321426392,202.93819665908813,202.94939017295837,203.09728336334229,203.09728336334229,203.09728336334229,203.09728336334229,203.09728336334229,203.09728336334229,203.09728336334229,204.43221879005432,3,1.4692461490631104,None,,,,,,,,,,,,,,,,,,70,1,2025-02-21_10h56.21.855,comp,2024.2.4,None,2025-02-21 10h56.34.547222 -0500,
41,41,0,filler_random,None,None,None,None,None,None,None,None,None,None,2,1.9309659004211426,None,,,,,0,0,0,0,0,41,41,147,204.4482922554016,,,,,,,,,,,,,,,,,,,,,,,,,,,,,,,,,,,,,,,,,,,,,,,,,,,,,,,,,,,,,,,,,,,,,,,,,,,,,,,,,123.06886309359767,84.58102474955243,100.39746591336754,170.8729501472261,134.4835540383976,117.28306286844344,3.0,3.1,-224,276,0,-10,240,-252,204.4338550567627,204.43397331237793,204.437091588974,204.4482922554016,204.58854722976685,204.58854722976685,204.58854722976685,204.58854722976685,204.58854722976685,204.58854722976685,204.58854722976685,206.38949131965637,2,1.9309659004211426,None,,,,,,,,,,,,,,,,,,70,1,2025-02-21_10h56.21.855,comp,2024.2.4,None,2025-02-21 10h56.34.547222 -0500,
42,42,0,critical,hdw,35.0,3.0,upper,200.0,125.0,127.0,127.0,125.0,200.0,3,1.609170913696289,None,,,,,0,0,0,0,0,42,42,111,206.4096975326538,,,,,,,,,,,,,,,,,,,,,,,,,,,,,,,,,,,,,,,,,,,,,,,,,,,,,,,,,,,,,,,,,,,,,,,,,,,,,,,,,200.0,125.0,127.0,127.0,125.0,200.0,3.0,3.1,-222,282,0,-9,260,-252,206.39094281196594,206.39102005958557,206.39390683174133,206.4096975326538,206.55120205879211,206.55120205879211,206.55120205879211,206.55120205879211,206.55120205879211,206.55120205879211,206.55120205879211,208.0352292060852,3,1.609170913696289,None,,,,,,,,,,,,,,,,,,70,1,2025-02-21_10h56.21.855,comp,2024.2.4,None,2025-02-21 10h56.34.547222 -0500,
43,43,0,critical,hdw,20.0,2.1,upper,200.0,125.0,141.0,141.0,125.0,200.0,3,3.113081932067871,None,,,,,0,0,0,0,0,43,43,47,208.05046796798706,,,,,,,,,,,,,,,,,,,,,,,,,,,,,,,,,,,,,,,,,,,,,,,,,,,,,,,,,,,,,,,,,,,,,,,,,,,,,,,,,200.0,125.0,141.0,141.0,125.0,200.0,2.1,2.12,-229,-286,0,-283,266,257,208.0367889404297,208.03689098358154,208.04023623466492,208.05046796798706,208.20094418525696,208.20094418525696,208.20094418525696,208.20094418525696,208.20094418525696,208.20094418525696,208.20094418525696,211.16875648498535,3,3.113081932067871,None,,,,,,,,,,,,,,,,,,70,1,2025-02-21_10h56.21.855,comp,2024.2.4,None,2025-02-21 10h56.34.547222 -0500,
44,44,0,filler_square,None,None,None,None,None,None,None,None,None,None,1,1.3697500228881836,None,,,,,0,0,0,0,0,44,44,208,211.18484473228455,,,,,,,,,,,,,,,,,,,,,,,,,,,,,,,,,,,,,,,,,,,,,,,,,,,,,,,,,,,,,,,,,,,,,,,,,,,,,,,,,193.30591846291688,193.30591846291688,130.03829237175512,61.3775995213289,138.46735215780427,75.5391006148333,4.0,4.1,-223,-270,0,-19,164,-287,211.17060112953186,211.17067766189575,211.17412209510803,211.18484473228455,211.33399987220764,211.33399987220764,211.33399987220764,211.33399987220764,211.33399987220764,211.33399987220764,211.33399987220764,212.5684678554535,1,1.3697500228881836,None,,,,,,,,,,,,,,,,,,70,1,2025-02-21_10h56.21.855,comp,2024.2.4,None,2025-02-21 10h56.34.547222 -0500,
45,45,0,filler_random,None,None,None,None,None,None,None,None,None,None,3,4.640791177749634,None,,,,,0,0,0,0,0,45,45,133,212.5863287448883,,,,,,,,,,,,,,,,,,,,,,,,,,,,,,,,,,,,,,,,,,,,,,,,,,,,,,,,,,,,,,,,,,,,,,,,,,,,,,,,,70.68377982498463,60.9446091411572,192.78245620786208,57.72044980759041,102.21471343052912,88.29634291256745,2.2,2.21,-155,-263,0,258,169,271,212.5701825618744,212.57026386260986,212.57357001304626,212.5863287448883,212.7393343448639,212.7393343448639,212.7393343448639,212.7393343448639,212.7393343448639,212.7393343448639,212.7393343448639,217.23610925674438,3,4.640791177749634,None,,,,,,,,,,,,,,,,,,70,1,2025-02-21_10h56.21.855,comp,2024.2.4,None,2025-02-21 10h56.34.547222 -0500,
46,46,0,critical,hdw,35.0,4.0,lower,133.0,57.0,70.0,70.0,57.0,133.0,3,3.115337610244751,None,,,,,0,0,0,0,0,46,46,112,217.25595998764038,,,,,,,,,,,,,,,,,,,,,,,,,,,,,,,,,,,,,,,,,,,,,,,,,,,,,,,,,,,,,,,,,,,,,,,,,,,,,,,,,133.0,57.0,70.0,70.0,57.0,133.0,4.0,4.2,-160,4,0,-259,198,-7,217.2375524044037,217.2376320362091,217.240624666214,217.25595998764038,217.4039661884308,217.4039661884308,217.4039661884308,217.4039661884308,217.4039661884308,217.4039661884308,217.4039661884308,220.38917517662048,3,3.115337610244751,None,,,,,,,,,,,,,,,,,,70,1,2025-02-21_10h56.21.855,comp,2024.2.4,None,2025-02-21 10h56.34.547222 -0500,
47,47,0,filler_square,None,None,None,None,None,None,None,None,None,None,1,3.2380850315093994,None,,,,,0,0,0,0,0,47,47,184,220.40467596054077,,,,,,,,,,,,,,,,,,,,,,,,,,,,,,,,,,,,,,,,,,,,,,,,,,,,,,,,,,,,,,,,,,,,,,,,,,,,,,,,,97.50443548454302,97.50443548454302,87.3110022224125,78.9555834474728,91.99679322216431,88.46462275830379,2.1,2.11,-184,278,0,257,180,-267,220.3910174369812,220.391108751297,220.39442586898804,220.40467596054077,220.5568974018097,220.5568974018097,220.5568974018097,220.5568974018097,220.5568974018097,220.5568974018097,220.5568974018097,223.65876960754395,1,3.2380850315093994,None,,,,,,,,,,,,,,,,,,70,1,2025-02-21_10h56.21.855,comp,2024.2.4,None,2025-02-21 10h56.34.547222 -0500,
48,48,0,filler_square,None,None,None,None,None,None,None,None,None,None,2,1.4683125019073486,None,,,,,0,0,0,0,0,48,48,200,223.67935132980347,,,,,,,,,,,,,,,,,,,,,,,,,,,,,,,,,,,,,,,,,,,,,,,,,,,,,,,,,,,,,,,,,,,,,,,,,,,,,,,,,126.29667572478598,98.46913333388648,180.044459634193,180.044459634193,78.46087279223903,72.41643472399815,2.2,2.22,-235,250,0,-266,222,-250,223.66092491149902,223.6610050201416,223.6642460823059,223.67935132980347,223.8225908279419,223.8225908279419,223.8225908279419,223.8225908279419,223.8225908279419,223.8225908279419,223.8225908279419,225.15625500679016,2,1.4683125019073486,None,,,,,,,,,,,,,,,,,,70,1,2025-02-21_10h56.21.855,comp,2024.2.4,None,2025-02-21 10h56.34.547222 -0500,
49,49,0,critical,hwd,35.0,2.1,upper,200.0,125.0,125.0,200.0,127.0,127.0,1,2.7343764305114746,None,,,,,0,0,0,0,0,49,49,17,225.17238664627075,,,,,,,,,,,,,,,,,,,,,,,,,,,,,,,,,,,,,,,,,,,,,,,,,,,,,,,,,,,,,,,,,,,,,,,,,,,,,,,,,200.0,125.0,125.0,200.0,127.0,127.0,2.1,2.11,-258,285,0,278,260,-290,225.15785145759583,225.15796494483948,225.1614384651184,225.17238664627075,225.32066297531128,225.32066297531128,225.32066297531128,225.32066297531128,225.32066297531128,225.32066297531128,225.32066297531128,227.92244505882263,1,2.7343764305114746,None,,,,,,,,,,,,,,,,,,70,1,2025-02-21_10h56.21.855,comp,2024.2.4,None,2025-02-21 10h56.34.547222 -0500,
50,50,0,filler_square,None,None,None,None,None,None,None,None,None,None,2,1.5203304290771484,None,,,,,0,0,0,0,0,50,50,201,227.9383294582367,,,,,,,,,,,,,,,,,,,,,,,,,,,,,,,,,,,,,,,,,,,,,,,,,,,,,,,,,,,,,,,,,,,,,,,,,,,,,,,,,70.22767710875893,138.57011948045465,182.17530330486932,182.17530330486932,65.45221966389175,69.4814691313536,2.2,2.21,-256,-262,0,265,222,275,227.9241964817047,227.92427349090576,227.9274444580078,227.9383294582367,228.08656096458435,228.08656096458435,228.08656096458435,228.08656096458435,228.08656096458435,228.08656096458435,228.08656096458435,229.47452235221863,2,1.5203304290771484,None,,,,,,,,,,,,,,,,,,70,1,2025-02-21_10h56.21.855,comp,2024.2.4,None,2025-02-21 10h56.34.547222 -0500,
51,51,0,filler_random,None,None,None,None,None,None,None,None,None,None,3,1.864741563796997,None,,,,,0,0,0,0,0,51,51,134,229.49066805839539,,,,,,,,,,,,,,,,,,,,,,,,,,,,,,,,,,,,,,,,,,,,,,,,,,,,,,,,,,,,,,,,,,,,,,,,,,,,,,,,,141.08397029505966,114.09436497015705,180.17674154413385,58.17513871818233,158.06949310543413,129.0402099222722,2.1,2.11,-182,257,0,260,190,-273,229.47624325752258,229.47631978988647,229.48039317131042,229.49066805839539,229.64160776138306,229.64160776138306,229.64160776138306,229.64160776138306,229.64160776138306,229.64160776138306,229.64160776138306,231.35839200019836,3,1.864741563796997,None,,,,,,,,,,,,,,,,,,70,1,2025-02-21_10h56.21.855,comp,2024.2.4,None,2025-02-21 10h56.34.547222 -0500,
52,52,0,critical,dwh,35.0,1.0,upper,127.0,127.0,125.0,200.0,200.0,125.0,2,2.9149582386016846,None,,,,,0,0,0,0,0,52,52,61,231.37577748298645,,,,,,,,,,,,,,,,,,,,,,,,,,,,,,,,,,,,,,,,,,,,,,,,,,,,,,,,,,,,,,,,,,,,,,,,,,,,,,,,,127.0,127.0,125.0,200.0,200.0,125.0,1.0,1.1,-740,260,-480,257,-222,268,231.3599147796631,231.36003828048706,231.36421370506287,231.37577748298645,231.52689695358276,231.52689695358276,231.52689695358276,231.52689695358276,231.52689695358276,231.52689695358276,231.52689695358276,234.31016397476196,2,2.9149582386016846,None,,,,,,,,,,,,,,,,,,70,1,2025-02-21_10h56.21.855,comp,2024.2.4,None,2025-02-21 10h56.34.547222 -0500,
53,53,0,filler_square,None,None,None,None,None,None,None,None,None,None,3,4.964234828948975,None,,,,,0,0,0,0,0,53,53,188,234.32705211639404,,,,,,,,,,,,,,,,,,,,,,,,,,,,,,,,,,,,,,,,,,,,,,,,,,,,,,,,,,,,,,,,,,,,,,,,,,,,,,,,,68.68957279972568,64.08006182142302,64.96879340630234,73.17233382336113,74.96149918914496,74.96149918914496,2.1,2.11,-165,267,0,283,170,-280,234.3121566772461,234.3122375011444,234.31555342674255,234.32705211639404,234.47922945022583,234.47922945022583,234.47922945022583,234.47922945022583,234.47922945022583,234.47922945022583,234.47922945022583,239.29416394233704,3,4.964234828948975,None,,,,,,,,,,,,,,,,,,70,1,2025-02-21_10h56.21.855,comp,2024.2.4,None,2025-02-21 10h56.34.547222 -0500,
54,54,0,filler_random,None,None,None,None,None,None,None,None,None,None,1,2.685317039489746,None,,,,,0,0,0,0,0,54,54,161,239.30964398384094,,,,,,,,,,,,,,,,,,,,,,,,,,,,,,,,,,,,,,,,,,,,,,,,,,,,,,,,,,,,,,,,,,,,,,,,,,,,,,,,,171.83195479498804,184.7189147734005,115.42118691736539,156.52303005103812,123.56908235184295,83.29217947137121,4.0,4.2,-267,20,0,-261,216,13,239.29596877098083,239.2960512638092,239.29966592788696,239.30964398384094,239.4604640007019,239.4604640007019,239.4604640007019,239.4604640007019,239.4604640007019,239.4604640007019,239.4604640007019,242.00064635276794,1,2.685317039489746,None,,,,,,,,,,,,,,,,,,70,1,2025-02-21_10h56.21.855,comp,2024.2.4,None,2025-02-21 10h56.34.547222 -0500,
55,55,0,critical,hdw,20.0,2.1,upper,200.0,125.0,141.0,141.0,125.0,200.0,3,3.4429075717926025,None,,,,,0,0,0,0,0,55,55,23,242.01608967781067,,,,,,,,,,,,,,,,,,,,,,,,,,,,,,,,,,,,,,,,,,,,,,,,,,,,,,,,,,,,,,,,,,,,,,,,,,,,,,,,,200.0,125.0,141.0,141.0,125.0,200.0,2.1,2.12,-229,-269,0,-277,266,253,242.00222897529602,242.00231170654297,242.0052764415741,242.01608967781067,242.1620123386383,242.1620123386383,242.1620123386383,242.1620123386383,242.1620123386383,242.1620123386383,242.1620123386383,245.46180248260498,3,3.4429075717926025,None,,,,,,,,,,,,,,,,,,70,1,2025-02-21_10h56.21.855,comp,2024.2.4,None,2025-02-21 10h56.34.547222 -0500,
56,56,0,filler_random,None,None,None,None,None,None,None,None,None,None,2,1.229381799697876,None,,,,,0,0,0,0,0,56,56,142,245.47816824913025,,,,,,,,,,,,,,,,,,,,,,,,,,,,,,,,,,,,,,,,,,,,,,,,,,,,,,,,,,,,,,,,,,,,,,,,,,,,,,,,,96.15027201984338,94.77120411183813,164.46920396820798,176.07838127811374,135.93422265169752,179.09620210958275,4.0,4.2,-231,6,0,-270,274,-11,245.46342301368713,245.4634985923767,245.46669054031372,245.47816824913025,245.6345338821411,245.6345338821411,245.6345338821411,245.6345338821411,245.6345338821411,245.6345338821411,245.6345338821411,246.71127104759216,2,1.229381799697876,None,,,,,,,,,,,,,,,,,,70,1,2025-02-21_10h56.21.855,comp,2024.2.4,None,2025-02-21 10h56.34.547222 -0500,
57,57,0,filler_square,None,None,None,None,None,None,None,None,None,None,2,5.115546226501465,None,,,,,0,0,0,0,0,57,57,171,246.7276120185852,,,,,,,,,,,,,,,,,,,,,,,,,,,,,,,,,,,,,,,,,,,,,,,,,,,,,,,,,,,,,,,,,,,,,,,,,,,,,,,,,73.51016922399037,65.24410779373159,83.53045111262385,83.53045111262385,69.09784184148464,60.958103281431555,1.0,1.3,310,-274,480,-259,648,-278,246.7132077217102,246.71328473091125,246.71650075912476,246.7276120185852,246.87861490249634,246.87861490249634,246.87861490249634,246.87861490249634,246.87861490249634,246.87861490249634,246.87861490249634,251.84694004058838,2,5.115546226501465,None,,,,,,,,,,,,,,,,,,70,1,2025-02-21_10h56.21.855,comp,2024.2.4,None,2025-02-21 10h56.34.547222 -0500,
58,58,0,filler_random,None,None,None,None,None,None,None,None,None,None,3,3.715426445007324,None,,,,,0,0,0,0,0,58,58,169,251.863849401474,,,,,,,,,,,,,,,,,,,,,,,,,,,,,,,,,,,,,,,,,,,,,,,,,,,,,,,,,,,,,,,,,,,,,,,,,,,,,,,,,83.07513204753305,137.05410314576102,190.6858444294753,65.71661330726111,86.74398313745263,149.99242059955537,2.1,2.12,-197,-273,0,-254,204,286,251.84858751296997,251.84866428375244,251.85174345970154,251.863849401474,252.01791286468506,252.01791286468506,252.01791286468506,252.01791286468506,252.01791286468506,252.01791286468506,252.01791286468506,255.5817949771881,3,3.715426445007324,None,,,,,,,,,,,,,,,,,,70,1,2025-02-21_10h56.21.855,comp,2024.2.4,None,2025-02-21 10h56.34.547222 -0500,
59,59,0,critical,wdh,35.0,4.0,lower,57.0,133.0,70.0,70.0,133.0,57.0,3,3.1448957920074463,None,,,,,0,0,0,0,0,59,59,76,255.6017804145813,,,,,,,,,,,,,,,,,,,,,,,,,,,,,,,,,,,,,,,,,,,,,,,,,,,,,,,,,,,,,,,,,,,,,,,,,,,,,,,,,57.0,133.0,70.0,70.0,133.0,57.0,4.0,4.1,-198,-286,0,-11,160,-269,255.5833559036255,255.58343625068665,255.58664631843567,255.6017804145813,255.74962902069092,255.74962902069092,255.74962902069092,255.74962902069092,255.74962902069092,255.74962902069092,255.74962902069092,258.75014448165894,3,3.1448957920074463,None,,,,,,,,,,,,,,,,,,70,1,2025-02-21_10h56.21.855,comp,2024.2.4,None,2025-02-21 10h56.34.547222 -0500,
60,60,0,filler_random,None,None,None,None,None,None,None,None,None,None,1,2.0526747703552246,None,,,,,0,0,0,0,0,60,60,144,258.76607275009155,,,,,,,,,,,,,,,,,,,,,,,,,,,,,,,,,,,,,,,,,,,,,,,,,,,,,,,,,,,,,,,,,,,,,,,,,,,,,,,,,116.53526606428224,183.4774255693686,66.04555115607364,85.60553587818477,144.25486601499642,117.37662021007665,2.2,2.21,-231,-254,0,250,197,259,258.75188302993774,258.7519657611847,258.75534200668335,258.76607275009155,258.91477823257446,258.91477823257446,258.91477823257446,258.91477823257446,258.91477823257446,258.91477823257446,258.91477823257446,260.8391604423523,1,2.0526747703552246,None,,,,,,,,,,,,,,,,,,70,1,2025-02-21_10h56.21.855,comp,2024.2.4,None,2025-02-21 10h56.34.547222 -0500,
61,61,0,filler_random,None,None,None,None,None,None,None,None,None,None,2,1.6443994045257568,None,,,,,0,0,0,0,0,61,61,162,260.8549587726593,,,,,,,,,,,,,,,,,,,,,,,,,,,,,,,,,,,,,,,,,,,,,,,,,,,,,,,,,,,,,,,,,,,,,,,,,,,,,,,,,161.4331280153238,102.52626100408264,131.02676924516356,149.66448534891936,76.43552187117379,107.16566033920887,4.0,4.1,-222,-280,0,-18,224,-279,260.8408188819885,260.8409175872803,260.8437967300415,260.8549587726593,261.0041778087616,261.0041778087616,261.0041778087616,261.0041778087616,261.0041778087616,261.0041778087616,261.0041778087616,262.50577664375305,2,1.6443994045257568,None,,,,,,,,,,,,,,,,,,70,1,2025-02-21_10h56.21.855,comp,2024.2.4,None,2025-02-21 10h56.34.547222 -0500,
62,62,0,filler_square,None,None,None,None,None,None,None,None,None,None,3,2.4036717414855957,None,,,,,0,0,0,0,0,62,62,189,262.52120566368103,,,,,,,,,,,,,,,,,,,,,,,,,,,,,,,,,,,,,,,,,,,,,,,,,,,,,,,,,,,,,,,,,,,,,,,,,,,,,,,,,103.23289939135844,115.89831415550626,116.34398716737101,79.86263749406746,122.5250172224312,122.5250172224312,2.2,2.21,-194,-278,0,277,197,254,262.5075650215149,262.50764298439026,262.5105848312378,262.52120566368103,262.6664123535156,262.6664123535156,262.6664123535156,262.6664123535156,262.6664123535156,262.6664123535156,262.6664123535156,264.93570923805237,3,2.4036717414855957,None,,,,,,,,,,,,,,,,,,70,1,2025-02-21_10h56.21.855,comp,2024.2.4,None,2025-02-21 10h56.34.547222 -0500,
63,63,0,critical,hdw,20.0,1.0,upper,200.0,125.0,141.0,141.0,125.0,200.0,1,3.691145181655884,None,,,,,0,0,0,0,0,63,63,115,264.95168709754944,,,,,,,,,,,,,,,,,,,,,,,,,,,,,,,,,,,,,,,,,,,,,,,,,,,,,,,,,,,,,,,,,,,,,,,,,,,,,,,,,200.0,125.0,141.0,141.0,125.0,200.0,1.0,1.1,-709,274,-480,282,-214,254,264.9372980594635,264.93737506866455,264.94093132019043,264.95168709754944,265.0991654396057,265.0991654396057,265.0991654396057,265.0991654396057,265.0991654396057,265.0991654396057,265.0991654396057,268.657292842865,1,3.691145181655884,None,,,,,,,,,,,,,,,,,,70,1,2025-02-21_10h56.21.855,comp,2024.2.4,None,2025-02-21 10h56.34.547222 -0500,
64,64,0,critical,hdw,35.0,1.0,lower,133.0,57.0,70.0,70.0,57.0,133.0,3,5.729694843292236,None,,,,,0,0,0,0,0,64,64,108,268.67364597320557,,,,,,,,,,,,,,,,,,,,,,,,,,,,,,,,,,,,,,,,,,,,,,,,,,,,,,,,,,,,,,,,,,,,,,,,,,,,,,,,,133.0,57.0,70.0,70.0,57.0,133.0,1.0,1.1,-640,282,-480,259,-282,275,268.65882635116577,268.6589238643646,268.6620194911957,268.67364597320557,268.81728172302246,268.81728172302246,268.81728172302246,268.81728172302246,268.81728172302246,268.81728172302246,268.81728172302246,274.4187824726105,3,5.729694843292236,None,,,,,,,,,,,,,,,,,,70,1,2025-02-21_10h56.21.855,comp,2024.2.4,None,2025-02-21 10h56.34.547222 -0500,
65,65,0,catch,None,None,None,None,None,None,None,None,None,None,3,1.3680095672607422,None,,,,,0,0,0,0,0,65,65,128,274.4347150325775,,,,,,,,,,,,,,,,,,,,,,,,,,,,,,,,,,,,,,,,,,,,,,,,,,,,,,,,,,,,,,,,,,,,,,,,,,,,,,,,,97,93,117,73,168,157,2.2,2.21,-179,-288,0,252,211,286,274.4210159778595,274.4210960865021,274.42450881004333,274.4347150325775,274.58050990104675,274.58050990104675,274.58050990104675,274.58050990104675,274.58050990104675,274.58050990104675,274.58050990104675,275.80582189559937,3,1.3680095672607422,None,,,,,,,,,,,,,,,,,,70,1,2025-02-21_10h56.21.855,comp,2024.2.4,None,2025-02-21 10h56.34.547222 -0500,
66,66,0,filler_square,None,None,None,None,None,None,None,None,None,None,2,1.2048654556274414,None,,,,,0,0,0,0,0,66,66,180,275.82258343696594,,,,,,,,,,,,,,,,,,,,,,,,,,,,,,,,,,,,,,,,,,,,,,,,,,,,,,,,,,,,,,,,,,,,,,,,,,,,,,,,,183.37654492875316,66.1943270667279,198.20100144306576,198.20100144306576,135.51484646281187,115.57504869693216,2.2,2.21,-228,-264,0,274,253,283,275.8076539039612,275.8077323436737,275.81176805496216,275.82258343696594,275.9581422805786,275.9581422805786,275.9581422805786,275.9581422805786,275.9581422805786,275.9581422805786,275.9581422805786,277.04165482521057,2,1.2048654556274414,None,,,,,,,,,,,,,,,,,,70,1,2025-02-21_10h56.21.855,comp,2024.2.4,None,2025-02-21 10h56.34.547222 -0500,
67,67,0,critical,whd,35.0,2.1,upper,125.0,200.0,200.0,125.0,127.0,127.0,1,2.7135732173919678,None,,,,,0,0,0,0,0,67,67,13,277.0571916103363,,,,,,,,,,,,,,,,,,,,,,,,,,,,,,,,,,,,,,,,,,,,,,,,,,,,,,,,,,,,,,,,,,,,,,,,,,,,,,,,,125.0,200.0,200.0,125.0,127.0,127.0,2.1,2.11,-258,282,0,272,222,-286,277.04345989227295,277.04359221458435,277.0468325614929,277.0571916103363,277.2059733867645,277.2059733867645,277.2059733867645,277.2059733867645,277.2059733867645,277.2059733867645,277.2059733867645,279.77346420288086,1,2.7135732173919678,None,,,,,,,,,,,,,,,,,,70,1,2025-02-21_10h56.21.855,comp,2024.2.4,None,2025-02-21 10h56.34.547222 -0500,
68,68,0,critical,dwh,35.0,2.1,lower,70.0,70.0,57.0,133.0,133.0,57.0,2,5.549407243728638,None,,,,,0,0,0,0,0,68,68,28,279.78956174850464,,,,,,,,,,,,,,,,,,,,,,,,,,,,,,,,,,,,,,,,,,,,,,,,,,,,,,,,,,,,,,,,,,,,,,,,,,,,,,,,,70.0,70.0,57.0,133.0,133.0,57.0,2.1,2.12,-198,-263,0,-269,191,251,279.7750949859619,279.77521443367004,279.77865767478943,279.78956174850464,279.9385347366333,279.9385347366333,279.9385347366333,279.9385347366333,279.9385347366333,279.9385347366333,279.9385347366333,285.34418511390686,2,5.549407243728638,None,,,,,,,,,,,,,,,,,,70,1,2025-02-21_10h56.21.855,comp,2024.2.4,None,2025-02-21 10h56.34.547222 -0500,
69,69,0,critical,dwh,20.0,4.0,lower,78.0,78.0,57.0,133.0,133.0,57.0,2,1.744396448135376,None,,,,,0,0,0,0,0,69,69,70,285.36234045028687,,,,,,,,,,,,,,,,,,,,,,,,,,,,,,,,,,,,,,,,,,,,,,,,,,,,,,,,,,,,,,,,,,,,,,,,,,,,,,,,,78.0,78.0,57.0,133.0,133.0,57.0,4.0,4.2,-202,3,0,-273,191,-1,285.345801115036,285.34591364860535,285.3493366241455,285.36234045028687,285.50948452949524,285.50948452949524,285.50948452949524,285.50948452949524,285.50948452949524,285.50948452949524,285.50948452949524,287.10981845855713,2,1.744396448135376,None,,,,,,,,,,,,,,,,,,70,1,2025-02-21_10h56.21.855,comp,2024.2.4,None,2025-02-21 10h56.34.547222 -0500,
70,70,0,filler_square,None,None,None,None,None,None,None,None,None,None,1,3.3098959922790527,None,,,,,0,0,0,0,0,70,70,207,287.12565779685974,,,,,,,,,,,,,,,,,,,,,,,,,,,,,,,,,,,,,,,,,,,,,,,,,,,,,,,,,,,,,,,,,,,,,,,,,,,,,,,,,90.90198232885464,90.90198232885464,65.94902104636341,61.30771874772078,59.92254485244127,65.14697657904075,1.0,1.2,-172,-12,0,1,159,-8,287.1115870475769,287.1116659641266,287.11498188972473,287.12565779685974,287.2757017612457,287.2757017612457,287.2757017612457,287.2757017612457,287.2757017612457,287.2757017612457,287.2757017612457,290.44430589675903,1,3.3098959922790527,None,,,,,,,,,,,,,,,,,,70,1,2025-02-21_10h56.21.855,comp,2024.2.4,None,2025-02-21 10h56.34.547222 -0500,
71,71,0,filler_square,None,None,None,None,None,None,None,None,None,None,2,3.782041549682617,None,,,,,0,0,0,0,0,71,71,198,290.4607894420624,,,,,,,,,,,,,,,,,,,,,,,,,,,,,,,,,,,,,,,,,,,,,,,,,,,,,,,,,,,,,,,,,,,,,,,,,,,,,,,,,62.915930945571546,70.35647786337512,83.55898939131148,83.55898939131148,73.29599272829194,77.13936907063263,3.0,3.2,-173,-267,0,-15,176,284,290.44601130485535,290.4461076259613,290.4500997066498,290.4607894420624,290.6088216304779,290.6088216304779,290.6088216304779,290.6088216304779,290.6088216304779,290.6088216304779,290.6088216304779,294.2559587955475,2,3.782041549682617,None,,,,,,,,,,,,,,,,,,70,1,2025-02-21_10h56.21.855,comp,2024.2.4,None,2025-02-21 10h56.34.547222 -0500,
72,72,0,critical,wdh,20.0,2.1,upper,125.0,200.0,141.0,141.0,200.0,125.0,1,3.7545883655548096,None,,,,,0,0,0,0,0,72,72,11,294.27267813682556,,,,,,,,,,,,,,,,,,,,,,,,,,,,,,,,,,,,,,,,,,,,,,,,,,,,,,,,,,,,,,,,,,,,,,,,,,,,,,,,,125.0,200.0,141.0,141.0,200.0,125.0,2.1,2.12,-266,-279,0,-256,229,259,294.25751399993896,294.2575914859772,294.26082611083984,294.27267813682556,294.40962266921997,294.40962266921997,294.40962266921997,294.40962266921997,294.40962266921997,294.40962266921997,294.40962266921997,298.04430961608887,1,3.7545883655548096,None,,,,,,,,,,,,,,,,,,70,1,2025-02-21_10h56.21.855,comp,2024.2.4,None,2025-02-21 10h56.34.547222 -0500,
73,73,0,critical,dhw,20.0,2.1,upper,141.0,141.0,200.0,125.0,125.0,200.0,2,4.590021133422852,None,,,,,0,0,0,0,0,73,73,27,298.0609390735626,,,,,,,,,,,,,,,,,,,,,,,,,,,,,,,,,,,,,,,,,,,,,,,,,,,,,,,,,,,,,,,,,,,,,,,,,,,,,,,,,141.0,141.0,200.0,125.0,125.0,200.0,2.1,2.12,-229,-254,0,-251,258,274,298.0459289550781,298.0460088253021,298.04980063438416,298.0609390735626,298.2127754688263,298.2127754688263,298.2127754688263,298.2127754688263,298.2127754688263,298.2127754688263,298.2127754688263,302.65354204177856,2,4.590021133422852,None,,,,,,,,,,,,,,,,,,70,1,2025-02-21_10h56.21.855,comp,2024.2.4,None,2025-02-21 10h56.34.547222 -0500,
74,74,0,catch,None,None,None,None,None,None,None,None,None,None,3,1.5767111778259277,None,,,,,0,0,0,0,0,74,74,125,302.6741499900818,,,,,,,,,,,,,,,,,,,,,,,,,,,,,,,,,,,,,,,,,,,,,,,,,,,,,,,,,,,,,,,,,,,,,,,,,,,,,,,,,67,123,65,125,179,146,2.2,2.22,-220,260,0,-261,232,-279,302.6554100513458,302.65549063682556,302.6584162712097,302.6741499900818,302.81457781791687,302.81457781791687,302.81457781791687,302.81457781791687,302.81457781791687,302.81457781791687,302.81457781791687,304.26653361320496,3,1.5767111778259277,None,,,,,,,,,,,,,,,,,,70,1,2025-02-21_10h56.21.855,comp,2024.2.4,None,2025-02-21 10h56.34.547222 -0500,
75,75,0,critical,wdh,20.0,4.0,lower,57.0,133.0,78.0,78.0,133.0,57.0,3,3.752887725830078,None,,,,,0,0,0,0,0,75,75,82,304.2818384170532,,,,,,,,,,,,,,,,,,,,,,,,,,,,,,,,,,,,,,,,,,,,,,,,,,,,,,,,,,,,,,,,,,,,,,,,,,,,,,,,,57.0,133.0,78.0,78.0,133.0,57.0,4.0,4.2,-202,-2,0,-275,164,4,304.26812744140625,304.2682065963745,304.27147793769836,304.2818384170532,304.42948865890503,304.42948865890503,304.42948865890503,304.42948865890503,304.42948865890503,304.42948865890503,304.42948865890503,308.0508146286011,3,3.752887725830078,None,,,,,,,,,,,,,,,,,,70,1,2025-02-21_10h56.21.855,comp,2024.2.4,None,2025-02-21 10h56.34.547222 -0500,
76,76,0,filler_square,None,None,None,None,None,None,None,None,None,None,3,1.4222276210784912,None,,,,,0,0,0,0,0,76,76,195,308.0688328742981,,,,,,,,,,,,,,,,,,,,,,,,,,,,,,,,,,,,,,,,,,,,,,,,,,,,,,,,,,,,,,,,,,,,,,,,,,,,,,,,,102.32094877953809,91.52031196528404,103.3107420357558,97.95864798347488,125.22056361496554,125.22056361496554,1.0,1.3,289,-264,480,-266,688,-266,308.0528955459595,308.0529727935791,308.0563554763794,308.0688328742981,308.2149546146393,308.2149546146393,308.2149546146393,308.2149546146393,308.2149546146393,308.2149546146393,308.2149546146393,309.5036811828613,3,1.4222276210784912,None,,,,,,,,,,,,,,,,,,70,1,2025-02-21_10h56.21.855,comp,2024.2.4,None,2025-02-21 10h56.34.547222 -0500,
77,77,0,filler_random,None,None,None,None,None,None,None,None,None,None,1,2.0321059226989746,None,,,,,0,0,0,0,0,77,77,131,309.5227255821228,,,,,,,,,,,,,,,,,,,,,,,,,,,,,,,,,,,,,,,,,,,,,,,,,,,,,,,,,,,,,,,,,,,,,,,,,,,,,,,,,188.34337327971818,125.93252094900525,71.63563567794894,180.75930895235336,112.24938976110866,161.52834005750583,1.0,1.1,-729,279,-480,252,-213,271,309.5054678916931,309.50554728507996,309.50851488113403,309.5227255821228,309.66548919677734,309.66548919677734,309.66548919677734,309.66548919677734,309.66548919677734,309.66548919677734,309.66548919677734,311.56842517852783,1,2.0321059226989746,None,,,,,,,,,,,,,,,,,,70,1,2025-02-21_10h56.21.855,comp,2024.2.4,None,2025-02-21 10h56.34.547222 -0500,
78,78,0,critical,hwd,20.0,2.1,lower,133.0,57.0,57.0,133.0,78.0,78.0,2,7.146073579788208,None,,,,,0,0,0,0,0,78,78,18,311.58529019355774,,,,,,,,,,,,,,,,,,,,,,,,,,,,,,,,,,,,,,,,,,,,,,,,,,,,,,,,,,,,,,,,,,,,,,,,,,,,,,,,,133.0,57.0,57.0,133.0,78.0,78.0,2.1,2.12,-191,-250,0,-257,202,279,311.57015776634216,311.57024002075195,311.574179649353,311.58529019355774,311.73283553123474,311.73283553123474,311.73283553123474,311.73283553123474,311.73283553123474,311.73283553123474,311.73283553123474,318.73780250549316,2,7.146073579788208,None,,,,,,,,,,,,,,,,,,70,1,2025-02-21_10h56.21.855,comp,2024.2.4,None,2025-02-21 10h56.34.547222 -0500,
79,79,0,filler_random,None,None,None,None,None,None,None,None,None,None,2,1.328439474105835,None,,,,,0,0,0,0,0,79,79,145,318.7544119358063,,,,,,,,,,,,,,,,,,,,,,,,,,,,,,,,,,,,,,,,,,,,,,,,,,,,,,,,,,,,,,,,,,,,,,,,,,,,,,,,,88.59885364213697,134.72302793110885,141.16512738223855,196.76709248109714,185.10571325214917,80.65725836204126,2.1,2.11,-262,273,0,263,235,-266,318.73982858657837,318.73994278907776,318.74347472190857,318.7544119358063,318.90358328819275,318.90358328819275,318.90358328819275,318.90358328819275,318.90358328819275,318.90358328819275,318.90358328819275,320.08625864982605,2,1.328439474105835,None,,,,,,,,,,,,,,,,,,70,1,2025-02-21_10h56.21.855,comp,2024.2.4,None,2025-02-21 10h56.34.547222 -0500,
80,80,0,critical,whd,35.0,1.0,lower,57.0,133.0,133.0,57.0,70.0,70.0,1,1.972968578338623,None,,,,,0,0,0,0,0,80,80,84,320.1020300388336,,,,,,,,,,,,,,,,,,,,,,,,,,,,,,,,,,,,,,,,,,,,,,,,,,,,,,,,,,,,,,,,,,,,,,,,,,,,,,,,,57.0,133.0,133.0,57.0,70.0,70.0,1.0,1.3,289,-273,480,-252,640,-283,320.0877821445465,320.08788084983826,320.0912871360779,320.1020300388336,320.2510895729065,320.2510895729065,320.2510895729065,320.2510895729065,320.2510895729065,320.2510895729065,320.2510895729065,322.0924723148346,1,1.972968578338623,None,,,,,,,,,,,,,,,,,,70,1,2025-02-21_10h56.21.855,comp,2024.2.4,None,2025-02-21 10h56.34.547222 -0500,
81,81,0,filler_square,None,None,None,None,None,None,None,None,None,None,2,2.207705020904541,None,,,,,0,0,0,0,0,81,81,182,322.1075963973999,,,,,,,,,,,,,,,,,,,,,,,,,,,,,,,,,,,,,,,,,,,,,,,,,,,,,,,,,,,,,,,,,,,,,,,,,,,,,,,,,72.55684161480876,72.55684161480876,70.46272610304746,67.85607242398892,61.100416716705794,66.17880131463718,2.2,2.21,-166,-255,0,283,163,271,322.0942711830139,322.09434843063354,322.0972456932068,322.1075963973999,322.25372338294983,322.25372338294983,322.25372338294983,322.25372338294983,322.25372338294983,322.25372338294983,322.25372338294983,324.3198323249817,2,2.207705020904541,None,,,,,,,,,,,,,,,,,,70,1,2025-02-21_10h56.21.855,comp,2024.2.4,None,2025-02-21 10h56.34.547222 -0500,
82,82,0,critical,hdw,20.0,4.0,upper,200.0,125.0,141.0,141.0,125.0,200.0,1,1.9863779544830322,None,,,,,0,0,0,0,0,82,82,119,324.33653473854065,,,,,,,,,,,,,,,,,,,,,,,,,,,,,,,,,,,,,,,,,,,,,,,,,,,,,,,,,,,,,,,,,,,,,,,,,,,,,,,,,200.0,125.0,141.0,141.0,125.0,200.0,4.0,4.1,-229,-263,0,14,266,-282,324.32142066955566,324.3214979171753,324.324880361557,324.33653473854065,324.48761463165283,324.48761463165283,324.48761463165283,324.48761463165283,324.48761463165283,324.48761463165283,324.48761463165283,326.3263490200043,1,1.9863779544830322,None,,,,,,,,,,,,,,,,,,70,1,2025-02-21_10h56.21.855,comp,2024.2.4,None,2025-02-21 10h56.34.547222 -0500,
83,83,0,critical,hwd,20.0,2.1,lower,133.0,57.0,57.0,133.0,78.0,78.0,2,3.4643056392669678,None,,,,,0,0,0,0,0,83,83,42,326.34654569625854,,,,,,,,,,,,,,,,,,,,,,,,,,,,,,,,,,,,,,,,,,,,,,,,,,,,,,,,,,,,,,,,,,,,,,,,,,,,,,,,,133.0,57.0,57.0,133.0,78.0,78.0,2.1,2.12,-191,-257,0,-284,202,278,326.32781648635864,326.3279130458832,326.3307943344116,326.34654569625854,326.489089012146,326.489089012146,326.489089012146,326.489089012146,326.489089012146,326.489089012146,326.489089012146,329.8224766254425,2,3.4643056392669678,None,,,,,,,,,,,,,,,,,,70,1,2025-02-21_10h56.21.855,comp,2024.2.4,None,2025-02-21 10h56.34.547222 -0500,
84,84,0,critical,hdw,20.0,2.1,lower,133.0,57.0,78.0,78.0,57.0,133.0,3,3.3624844551086426,None,,,,,0,0,0,0,0,84,84,46,329.8404071331024,,,,,,,,,,,,,,,,,,,,,,,,,,,,,,,,,,,,,,,,,,,,,,,,,,,,,,,,,,,,,,,,,,,,,,,,,,,,,,,,,133.0,57.0,78.0,78.0,57.0,133.0,2.1,2.11,-164,263,0,281,202,-288,329.8240113258362,329.82409048080444,329.82738161087036,329.8404071331024,329.9884548187256,329.9884548187256,329.9884548187256,329.9884548187256,329.9884548187256,329.9884548187256,329.9884548187256,333.2068991661072,3,3.3624844551086426,None,,,,,,,,,,,,,,,,,,70,1,2025-02-21_10h56.21.855,comp,2024.2.4,None,2025-02-21 10h56.34.547222 -0500,
85,85,0,filler_random,None,None,None,None,None,None,None,None,None,None,1,1.6518170833587646,None,,,,,0,0,0,0,0,85,85,154,333.22306180000305,,,,,,,,,,,,,,,,,,,,,,,,,,,,,,,,,,,,,,,,,,,,,,,,,,,,,,,,,,,,,,,,,,,,,,,,,,,,,,,,,151.73624358991754,196.20235813021392,116.52558786186817,70.36783001309097,73.22097715087654,175.93512860647525,3.0,3.2,-229,-268,0,-11,219,257,333.2086100578308,333.2086887359619,333.21217823028564,333.22306180000305,333.37111353874207,333.37111353874207,333.37111353874207,333.37111353874207,333.37111353874207,333.37111353874207,333.37111353874207,334.8899154663086,1,1.6518170833587646,None,,,,,,,,,,,,,,,,,,70,1,2025-02-21_10h56.21.855,comp,2024.2.4,None,2025-02-21 10h56.34.547222 -0500,
86,86,0,critical,wdh,35.0,2.1,upper,125.0,200.0,127.0,127.0,200.0,125.0,1,1.4733688831329346,None,,,,,0,0,0,0,0,86,86,9,334.9054811000824,,,,,,,,,,,,,,,,,,,,,,,,,,,,,,,,,,,,,,,,,,,,,,,,,,,,,,,,,,,,,,,,,,,,,,,,,,,,,,,,,125.0,200.0,127.0,127.0,200.0,125.0,2.1,2.12,-260,-257,0,-277,222,273,334.89156317710876,334.89169931411743,334.895103931427,334.9054811000824,335.05696058273315,335.05696058273315,335.05696058273315,335.05696058273315,335.05696058273315,335.05696058273315,335.05696058273315,336.39207005500793,1,1.4733688831329346,None,,,,,,,,,,,,,,,,,,70,1,2025-02-21_10h56.21.855,comp,2024.2.4,None,2025-02-21 10h56.34.547222 -0500,
87,87,0,critical,dhw,35.0,3.0,lower,70.0,70.0,133.0,57.0,57.0,133.0,3,2.510939598083496,None,,,,,0,0,0,0,0,87,87,50,336.41189432144165,,,,,,,,,,,,,,,,,,,,,,,,,,,,,,,,,,,,,,,,,,,,,,,,,,,,,,,,,,,,,,,,,,,,,,,,,,,,,,,,,70.0,70.0,133.0,57.0,57.0,133.0,3.0,3.2,-160,-273,0,1,191,254,336.3935375213623,336.39361691474915,336.3966324329376,336.41189432144165,336.5590081214905,336.5590081214905,336.5590081214905,336.5590081214905,336.5590081214905,336.5590081214905,336.5590081214905,338.92564630508423,3,2.510939598083496,None,,,,,,,,,,,,,,,,,,70,1,2025-02-21_10h56.21.855,comp,2024.2.4,None,2025-02-21 10h56.34.547222 -0500,
88,88,0,critical,whd,20.0,2.1,upper,125.0,200.0,200.0,125.0,141.0,141.0,2,1.2205524444580078,None,,,,,0,0,0,0,0,88,88,15,338.94234323501587,,,,,,,,,,,,,,,,,,,,,,,,,,,,,,,,,,,,,,,,,,,,,,,,,,,,,,,,,,,,,,,,,,,,,,,,,,,,,,,,,125.0,200.0,200.0,125.0,141.0,141.0,2.1,2.12,-258,-279,0,-283,229,254,338.92719531059265,338.9272735118866,338.9313452243805,338.94234323501587,339.0923478603363,339.0923478603363,339.0923478603363,339.0923478603363,339.0923478603363,339.0923478603363,339.0923478603363,340.1733515262604,2,1.2205524444580078,None,,,,,,,,,,,,,,,,,,70,1,2025-02-21_10h56.21.855,comp,2024.2.4,None,2025-02-21 10h56.34.547222 -0500,
89,89,0,filler_random,None,None,None,None,None,None,None,None,None,None,3,1.173875093460083,None,,,,,0,0,0,0,0,89,89,150,340.18909430503845,,,,,,,,,,,,,,,,,,,,,,,,,,,,,,,,,,,,,,,,,,,,,,,,,,,,,,,,,,,,,,,,,,,,,,,,,,,,,,,,,199.9702197003697,131.98686859833765,130.46009874951824,128.51373704122435,197.58320706744212,138.81334351466506,2.2,2.22,-226,253,0,-253,230,-257,340.1749176979065,340.174991607666,340.17783308029175,340.18909430503845,340.3322083950043,340.3322083950043,340.3322083950043,340.3322083950043,340.3322083950043,340.3322083950043,340.3322083950043,341.3733539581299,3,1.173875093460083,None,,,,,,,,,,,,,,,,,,70,1,2025-02-21_10h56.21.855,comp,2024.2.4,None,2025-02-21 10h56.34.547222 -0500,
90,90,0,critical,dhw,35.0,1.0,upper,127.0,127.0,200.0,125.0,125.0,200.0,2,1.628993034362793,None,,,,,0,0,0,0,0,90,90,49,341.38995146751404,,,,,,,,,,,,,,,,,,,,,,,,,,,,,,,,,,,,,,,,,,,,,,,,,,,,,,,,,,,,,,,,,,,,,,,,,,,,,,,,,127.0,127.0,200.0,125.0,125.0,200.0,1.0,1.3,258,-287,480,-259,738,-251,341.3747708797455,341.374844789505,341.3776845932007,341.38995146751404,341.5258107185364,341.5258107185364,341.5258107185364,341.5258107185364,341.5258107185364,341.5258107185364,341.5258107185364,343.03495264053345,2,1.628993034362793,None,,,,,,,,,,,,,,,,,,70,1,2025-02-21_10h56.21.855,comp,2024.2.4,None,2025-02-21 10h56.34.547222 -0500,
91,91,0,critical,hdw,20.0,4.0,lower,133.0,57.0,78.0,78.0,57.0,133.0,3,3.9097673892974854,None,,,,,0,0,0,0,0,91,91,118,343.0535933971405,,,,,,,,,,,,,,,,,,,,,,,,,,,,,,,,,,,,,,,,,,,,,,,,,,,,,,,,,,,,,,,,,,,,,,,,,,,,,,,,,133.0,57.0,78.0,78.0,57.0,133.0,4.0,4.2,-164,-12,0,-285,202,-19,343.03656578063965,343.0366425514221,343.03991174697876,343.0535933971405,343.19395446777344,343.19395446777344,343.19395446777344,343.19395446777344,343.19395446777344,343.19395446777344,343.19395446777344,346.97976088523865,3,3.9097673892974854,None,,,,,,,,,,,,,,,,,,70,1,2025-02-21_10h56.21.855,comp,2024.2.4,None,2025-02-21 10h56.34.547222 -0500,
92,92,0,critical,hwd,20.0,1.0,lower,133.0,57.0,57.0,133.0,78.0,78.0,1,2.640049695968628,None,,,,,0,0,0,0,0,92,92,102,346.9954586029053,,,,,,,,,,,,,,,,,,,,,,,,,,,,,,,,,,,,,,,,,,,,,,,,,,,,,,,,,,,,,,,,,,,,,,,,,,,,,,,,,133.0,57.0,57.0,133.0,78.0,78.0,1.0,1.1,-671,281,-480,280,-278,289,346.9812664985657,346.9813437461853,346.98435974121094,346.9954586029053,347.1475431919098,347.1475431919098,347.1475431919098,347.1475431919098,347.1475431919098,347.1475431919098,347.1475431919098,349.64637994766235,1,2.640049695968628,None,,,,,,,,,,,,,,,,,,70,1,2025-02-21_10h56.21.855,comp,2024.2.4,None,2025-02-21 10h56.34.547222 -0500,
93,93,0,critical,wdh,20.0,1.0,upper,125.0,200.0,141.0,141.0,200.0,125.0,3,1.748647928237915,None,,,,,0,0,0,0,0,93,93,79,349.66232919692993,,,,,,,,,,,,,,,,,,,,,,,,,,,,,,,,,,,,,,,,,,,,,,,,,,,,,,,,,,,,,,,,,,,,,,,,,,,,,,,,,125.0,200.0,141.0,141.0,200.0,125.0,1.0,1.2,-266,-18,0,11,229,1,349.64790415763855,349.6479835510254,349.651487827301,349.66232919692993,349.8115768432617,349.8115768432617,349.8115768432617,349.8115768432617,349.8115768432617,349.8115768432617,349.8115768432617,351.41530871391296,3,1.748647928237915,None,,,,,,,,,,,,,,,,,,70,1,2025-02-21_10h56.21.855,comp,2024.2.4,None,2025-02-21 10h56.34.547222 -0500,
94,94,0,filler_random,None,None,None,None,None,None,None,None,None,None,1,1.8805203437805176,None,,,,,0,0,0,0,0,94,94,168,351.4344120025635,,,,,,,,,,,,,,,,,,,,,,,,,,,,,,,,,,,,,,,,,,,,,,,,,,,,,,,,,,,,,,,,,,,,,,,,,,,,,,,,,187.88882992779932,170.02248187567363,174.64092747743555,158.74820192275462,106.9659907321674,84.51859121954924,3.0,3.2,-260,-274,0,-2,218,263,351.4176504611969,351.4177439212799,351.42078280448914,351.4344120025635,351.57918190956116,351.57918190956116,351.57918190956116,351.57918190956116,351.57918190956116,351.57918190956116,351.57918190956116,353.3297712802887,1,1.8805203437805176,None,,,,,,,,,,,,,,,,,,70,1,2025-02-21_10h56.21.855,comp,2024.2.4,None,2025-02-21 10h56.34.547222 -0500,
95,95,0,filler_random,None,None,None,None,None,None,None,None,None,None,3,1.5130529403686523,None,,,,,0,0,0,0,0,95,95,160,353.3458161354065,,,,,,,,,,,,,,,,,,,,,,,,,,,,,,,,,,,,,,,,,,,,,,,,,,,,,,,,,,,,,,,,,,,,,,,,,,,,,,,,,119.58701785301321,75.18031007848907,70.42176210343429,105.64379473887729,165.89582778716286,146.4840312113605,1.0,1.2,-186,9,0,-4,222,-10,353.33144092559814,353.3315181732178,353.33553409576416,353.3458161354065,353.4947531223297,353.4947531223297,353.4947531223297,353.4947531223297,353.4947531223297,353.4947531223297,353.4947531223297,354.87124609947205,3,1.5130529403686523,None,,,,,,,,,,,,,,,,,,70,1,2025-02-21_10h56.21.855,comp,2024.2.4,None,2025-02-21 10h56.34.547222 -0500,
96,96,0,filler_square,None,None,None,None,None,None,None,None,None,None,3,1.5559048652648926,None,,,,,0,0,0,0,0,96,96,183,354.8877303600311,,,,,,,,,,,,,,,,,,,,,,,,,,,,,,,,,,,,,,,,,,,,,,,,,,,,,,,,,,,,,,,,,,,,,,,,,,,,,,,,,135.636921811325,80.13352934866471,118.4815072107502,131.19993466652,166.6408798180534,166.6408798180534,3.0,3.2,-202,-274,0,20,245,286,354.87317180633545,354.8732497692108,354.8764443397522,354.8877303600311,355.03033542633057,355.03033542633057,355.03033542633057,355.03033542633057,355.03033542633057,355.03033542633057,355.03033542633057,356.4502909183502,3,1.5559048652648926,None,,,,,,,,,,,,,,,,,,70,1,2025-02-21_10h56.21.855,comp,2024.2.4,None,2025-02-21 10h56.34.547222 -0500,
97,97,0,filler_square,None,None,None,None,None,None,None,None,None,None,2,1.0403711795806885,None,,,,,0,0,0,0,0,97,97,204,356.46699690818787,,,,,,,,,,,,,,,,,,,,,,,,,,,,,,,,,,,,,,,,,,,,,,,,,,,,,,,,,,,,,,,,,,,,,,,,,,,,,,,,,146.98137031746154,67.37805720180432,185.36803441877132,185.36803441877132,110.25287417511085,66.0181811958352,3.0,3.1,-222,251,0,-3,222,-253,356.4520571231842,356.4521381855011,356.4550681114197,356.46699690818787,356.61131525039673,356.61131525039673,356.61131525039673,356.61131525039673,356.61131525039673,356.61131525039673,356.61131525039673,357.5156319141388,2,1.0403711795806885,None,,,,,,,,,,,,,,,,,,70,1,2025-02-21_10h56.21.855,comp,2024.2.4,None,2025-02-21 10h56.34.547222 -0500,
98,98,0,critical,wdh,35.0,4.0,upper,125.0,200.0,127.0,127.0,200.0,125.0,3,3.064199209213257,None,,,,,0,0,0,0,0,98,98,77,357.53127360343933,,,,,,,,,,,,,,,,,,,,,,,,,,,,,,,,,,,,,,,,,,,,,,,,,,,,,,,,,,,,,,,,,,,,,,,,,,,,,,,,,125.0,200.0,127.0,127.0,200.0,125.0,4.0,4.1,-260,-258,0,-18,222,-288,357.5172874927521,357.5173876285553,357.5206608772278,357.53127360343933,357.681578874588,357.681578874588,357.681578874588,357.681578874588,357.681578874588,357.681578874588,357.681578874588,360.6135821342468,3,3.064199209213257,None,,,,,,,,,,,,,,,,,,70,1,2025-02-21_10h56.21.855,comp,2024.2.4,None,2025-02-21 10h56.34.547222 -0500,
99,99,0,filler_random,None,None,None,None,None,None,None,None,None,None,2,1.6138660907745361,None,,,,,0,0,0,0,0,99,99,136,360.62961649894714,,,,,,,,,,,,,,,,,,,,,,,,,,,,,,,,,,,,,,,,,,,,,,,,,,,,,,,,,,,,,,,,,,,,,,,,,,,,,,,,,93.50683060702362,165.36113886140419,126.94882584817502,175.39985783015695,84.27816207617325,150.81179354595258,2.2,2.22,-266,289,0,-285,259,-254,360.6152958869934,360.61537313461304,360.61830019950867,360.62961649894714,360.7811632156372,360.7811632156372,360.7811632156372,360.7811632156372,360.7811632156372,360.7811632156372,360.7811632156372,362.2507493495941,2,1.6138660907745361,None,,,,,,,,,,,,,,,,,,70,1,2025-02-21_10h56.21.855,comp,2024.2.4,None,2025-02-21 10h56.34.547222 -0500,
100,100,0,filler_random,None,None,None,None,None,None,None,None,None,None,1,1.487889051437378,None,,,,,0,0,0,0,0,100,100,165,362.2676479816437,,,,,,,,,,,,,,,,,,,,,,,,,,,,,,,,,,,,,,,,,,,,,,,,,,,,,,,,,,,,,,,,,,,,,,,,,,,,,,,,,165.5813445769217,96.5363897812913,57.7282775918859,122.04078267323217,93.67311710770839,162.77629857926178,2.2,2.21,-205,-263,0,269,238,278,362.25253653526306,362.2526681423187,362.2560648918152,362.2676479816437,362.41357588768005,362.41357588768005,362.41357588768005,362.41357588768005,362.41357588768005,362.41357588768005,362.41357588768005,363.7613081932068,1,1.487889051437378,None,,,,,,,,,,,,,,,,,,70,1,2025-02-21_10h56.21.855,comp,2024.2.4,None,2025-02-21 10h56.34.547222 -0500,
101,101,0,filler_square,None,None,None,None,None,None,None,None,None,None,3,1.7752227783203125,None,,,,,0,0,0,0,0,101,101,209,363.77973914146423,,,,,,,,,,,,,,,,,,,,,,,,,,,,,,,,,,,,,,,,,,,,,,,,,,,,,,,,,,,,,,,,,,,,,,,,,,,,,,,,,72.6977460810284,69.24108286302643,71.53782919500021,70.51597845967295,80.19326080481666,80.19326080481666,4.0,4.1,-166,-278,0,6,171,-250,363.7632040977478,363.76329922676086,363.76651072502136,363.77973914146423,363.9150745868683,363.9150745868683,363.9150745868683,363.9150745868683,363.9150745868683,363.9150745868683,363.9150745868683,365.5657343864441,3,1.7752227783203125,None,,,,,,,,,,,,,,,,,,70,1,2025-02-21_10h56.21.855,comp,2024.2.4,None,2025-02-21 10h56.34.547222 -0500,
102,102,0,critical,whd,20.0,2.1,lower,57.0,133.0,133.0,57.0,78.0,78.0,1,3.018331289291382,None,,,,,0,0,0,0,0,102,102,38,365.58482336997986,,,,,,,,,,,,,,,,,,,,,,,,,,,,,,,,,,,,,,,,,,,,,,,,,,,,,,,,,,,,,,,,,,,,,,,,,,,,,,,,,57.0,133.0,133.0,57.0,78.0,78.0,2.1,2.12,-191,-257,0,-283,164,281,365.56726336479187,365.5673408508301,365.57052993774414,365.58482336997986,365.71705865859985,365.71705865859985,365.71705865859985,365.71705865859985,365.71705865859985,365.71705865859985,365.71705865859985,368.605211019516,1,3.018331289291382,None,,,,,,,,,,,,,,,,,,70,1,2025-02-21_10h56.21.855,comp,2024.2.4,None,2025-02-21 10h56.34.547222 -0500,
103,103,0,critical,hdw,35.0,1.0,upper,200.0,125.0,127.0,127.0,125.0,200.0,3,3.398336172103882,None,,,,,0,0,0,0,0,103,103,109,368.6209764480591,,,,,,,,,,,,,,,,,,,,,,,,,,,,,,,,,,,,,,,,,,,,,,,,,,,,,,,,,,,,,,,,,,,,,,,,,,,,,,,,,200.0,125.0,127.0,127.0,125.0,200.0,1.0,1.3,258,-264,480,-279,740,-285,368.6067945957184,368.60694003105164,368.6099627017975,368.6209764480591,368.7700481414795,368.7700481414795,368.7700481414795,368.7700481414795,368.7700481414795,368.7700481414795,368.7700481414795,372.03702116012573,3,3.398336172103882,None,,,,,,,,,,,,,,,,,,70,1,2025-02-21_10h56.21.855,comp,2024.2.4,None,2025-02-21 10h56.34.547222 -0500,
104,104,0,critical,dwh,20.0,3.0,upper,141.0,141.0,125.0,200.0,200.0,125.0,2,2.078556776046753,None,,,,,0,0,0,0,0,104,104,69,372.0531368255615,,,,,,,,,,,,,,,,,,,,,,,,,,,,,,,,,,,,,,,,,,,,,,,,,,,,,,,,,,,,,,,,,,,,,,,,,,,,,,,,,141.0,141.0,125.0,200.0,200.0,125.0,3.0,3.2,-266,-273,0,6,258,270,372.0385682582855,372.0386939048767,372.04269433021545,372.0531368255615,372.2005798816681,372.2005798816681,372.2005798816681,372.2005798816681,372.2005798816681,372.2005798816681,372.2005798816681,374.13793992996216,2,2.078556776046753,None,,,,,,,,,,,,,,,,,,70,1,2025-02-21_10h56.21.855,comp,2024.2.4,None,2025-02-21 10h56.34.547222 -0500,
105,105,0,filler_random,None,None,None,None,None,None,None,None,None,None,1,3.8741352558135986,None,,,,,0,0,0,0,0,105,105,167,374.15329694747925,,,,,,,,,,,,,,,,,,,,,,,,,,,,,,,,,,,,,,,,,,,,,,,,,,,,,,,,,,,,,,,,,,,,,,,,,,,,,,,,,116.73996756550636,116.82675365923399,133.5762803937644,75.57061840478232,127.17358924500644,69.36812034314801,2.1,2.12,-192,-276,0,-270,168,262,374.13928961753845,374.13933634757996,374.14248919487,374.15329694747925,374.30512404441833,374.30512404441833,374.30512404441833,374.30512404441833,374.30512404441833,374.30512404441833,374.30512404441833,378.0363986492157,1,3.8741352558135986,None,,,,,,,,,,,,,,,,,,70,1,2025-02-21_10h56.21.855,comp,2024.2.4,None,2025-02-21 10h56.34.547222 -0500,
106,106,0,critical,hwd,20.0,4.0,upper,200.0,125.0,125.0,200.0,141.0,141.0,1,2.4701414108276367,None,,,,,0,0,0,0,0,106,106,107,378.0527777671814,,,,,,,,,,,,,,,,,,,,,,,,,,,,,,,,,,,,,,,,,,,,,,,,,,,,,,,,,,,,,,,,,,,,,,,,,,,,,,,,,200.0,125.0,125.0,200.0,141.0,141.0,4.0,4.1,-258,-262,0,-4,266,-266,378.03780031204224,378.03789925575256,378.0410580635071,378.0527777671814,378.20433807373047,378.20433807373047,378.20433807373047,378.20433807373047,378.20433807373047,378.20433807373047,378.20433807373047,380.5373704433441,1,2.4701414108276367,None,,,,,,,,,,,,,,,,,,70,1,2025-02-21_10h56.21.855,comp,2024.2.4,None,2025-02-21 10h56.34.547222 -0500,
107,107,0,filler_square,None,None,None,None,None,None,None,None,None,None,1,1.6742947101593018,None,,,,,0,0,0,0,0,107,107,194,380.55391812324524,,,,,,,,,,,,,,,,,,,,,,,,,,,,,,,,,,,,,,,,,,,,,,,,,,,,,,,,,,,,,,,,,,,,,,,,,,,,,,,,,170.88313924578574,170.88313924578574,167.86926037374647,60.48981998107896,89.64599961624552,141.04540084847488,3.0,3.1,-212,259,0,-19,197,-253,380.5392384529114,380.5393171310425,380.5425355434418,380.55391812324524,380.69161438941956,380.69161438941956,380.69161438941956,380.69161438941956,380.69161438941956,380.69161438941956,380.69161438941956,382.2395861148834,1,1.6742947101593018,None,,,,,,,,,,,,,,,,,,70,1,2025-02-21_10h56.21.855,comp,2024.2.4,None,2025-02-21 10h56.34.547222 -0500,
108,108,0,critical,wdh,20.0,2.1,lower,57.0,133.0,78.0,78.0,133.0,57.0,2,1.8357853889465332,None,,,,,0,0,0,0,0,108,108,34,382.2552843093872,,,,,,,,,,,,,,,,,,,,,,,,,,,,,,,,,,,,,,,,,,,,,,,,,,,,,,,,,,,,,,,,,,,,,,,,,,,,,,,,,57.0,133.0,78.0,78.0,133.0,57.0,2.1,2.11,-202,252,0,272,164,-254,382.2410571575165,382.24113416671753,382.2445635795593,382.2552843093872,382.41075897216797,382.41075897216797,382.41075897216797,382.41075897216797,382.41075897216797,382.41075897216797,382.41075897216797,384.1076807975769,2,1.8357853889465332,None,,,,,,,,,,,,,,,,,,70,1,2025-02-21_10h56.21.855,comp,2024.2.4,None,2025-02-21 10h56.34.547222 -0500,
109,109,0,critical,hwd,35.0,2.1,upper,200.0,125.0,125.0,200.0,127.0,127.0,2,4.582489252090454,None,,,,,0,0,0,0,0,109,109,41,384.1249747276306,,,,,,,,,,,,,,,,,,,,,,,,,,,,,,,,,,,,,,,,,,,,,,,,,,,,,,,,,,,,,,,,,,,,,,,,,,,,,,,,,200.0,125.0,125.0,200.0,127.0,127.0,2.1,2.11,-258,258,0,259,260,-264,384.1092965602875,384.1094207763672,384.1124119758606,384.1249747276306,384.272855758667,384.272855758667,384.272855758667,384.272855758667,384.272855758667,384.272855758667,384.272855758667,388.72418880462646,2,4.582489252090454,None,,,,,,,,,,,,,,,,,,70,1,2025-02-21_10h56.21.855,comp,2024.2.4,None,2025-02-21 10h56.34.547222 -0500,
110,110,0,critical,dhw,35.0,1.0,lower,70.0,70.0,133.0,57.0,57.0,133.0,3,4.912140607833862,None,,,,,0,0,0,0,0,110,110,48,388.739440202713,,,,,,,,,,,,,,,,,,,,,,,,,,,,,,,,,,,,,,,,,,,,,,,,,,,,,,,,,,,,,,,,,,,,,,,,,,,,,,,,,70.0,70.0,133.0,57.0,57.0,133.0,1.0,1.3,320,-280,480,-283,671,-267,388.7257215976715,388.7258005142212,388.7292215824127,388.739440202713,388.88794708251953,388.88794708251953,388.88794708251953,388.88794708251953,388.88794708251953,388.88794708251953,388.88794708251953,393.66067695617676,3,4.912140607833862,None,,,,,,,,,,,,,,,,,,70,1,2025-02-21_10h56.21.855,comp,2024.2.4,None,2025-02-21 10h56.34.547222 -0500,
111,111,0,critical,whd,35.0,3.0,lower,57.0,133.0,133.0,57.0,70.0,70.0,2,4.701671123504639,None,,,,,0,0,0,0,0,111,111,86,393.6772553920746,,,,,,,,,,,,,,,,,,,,,,,,,,,,,,,,,,,,,,,,,,,,,,,,,,,,,,,,,,,,,,,,,,,,,,,,,,,,,,,,,57.0,133.0,133.0,57.0,70.0,70.0,3.0,3.2,-191,-277,0,-1,160,256,393.6623795032501,393.66251015663147,393.6658306121826,393.6772553920746,393.8242003917694,393.8242003917694,393.8242003917694,393.8242003917694,393.8242003917694,393.8242003917694,393.8242003917694,398.39621782302856,2,4.701671123504639,None,,,,,,,,,,,,,,,,,,70,1,2025-02-21_10h56.21.855,comp,2024.2.4,None,2025-02-21 10h56.34.547222 -0500,
112,112,0,critical,hdw,20.0,1.0,lower,133.0,57.0,78.0,78.0,57.0,133.0,2,3.9829938411712646,None,,,,,0,0,0,0,0,112,112,114,398.411922454834,,,,,,,,,,,,,,,,,,,,,,,,,,,,,,,,,,,,,,,,,,,,,,,,,,,,,,,,,,,,,,,,,,,,,,,,,,,,,,,,,133.0,57.0,78.0,78.0,57.0,133.0,1.0,1.3,316,-260,480,-286,682,-273,398.39791893959045,398.39801931381226,398.40156149864197,398.411922454834,398.56195092201233,398.56195092201233,398.56195092201233,398.56195092201233,398.56195092201233,398.56195092201233,398.56195092201233,402.41055512428284,2,3.9829938411712646,None,,,,,,,,,,,,,,,,,,70,1,2025-02-21_10h56.21.855,comp,2024.2.4,None,2025-02-21 10h56.34.547222 -0500,
113,113,0,critical,whd,35.0,4.0,lower,57.0,133.0,133.0,57.0,70.0,70.0,2,6.5845348834991455,None,,,,,0,0,0,0,0,113,113,88,402.4264106750488,,,,,,,,,,,,,,,,,,,,,,,,,,,,,,,,,,,,,,,,,,,,,,,,,,,,,,,,,,,,,,,,,,,,,,,,,,,,,,,,,57.0,133.0,133.0,57.0,70.0,70.0,4.0,4.1,-191,-276,0,18,160,-253,402.4120981693268,402.4121735095978,402.4152777194977,402.4264106750488,402.56239104270935,402.56239104270935,402.56239104270935,402.56239104270935,402.56239104270935,402.56239104270935,402.56239104270935,409.0151562690735,2,6.5845348834991455,None,,,,,,,,,,,,,,,,,,70,1,2025-02-21_10h56.21.855,comp,2024.2.4,None,2025-02-21 10h56.34.547222 -0500,
114,114,0,catch,None,None,None,None,None,None,None,None,None,None,2,5.514500379562378,None,,,,,0,0,0,0,0,114,114,120,409.0325286388397,,,,,,,,,,,,,,,,,,,,,,,,,,,,,,,,,,,,,,,,,,,,,,,,,,,,,,,,,,,,,,,,,,,,,,,,,,,,,,,,,79,111,177,148,94,96,1.0,1.1,-706,262,-480,253,-262,266,409.01725482940674,409.0173568725586,409.02074456214905,409.0325286388397,409.18094182014465,409.18094182014465,409.18094182014465,409.18094182014465,409.18094182014465,409.18094182014465,409.18094182014465,414.5665318965912,2,5.514500379562378,None,,,,,,,,,,,,,,,,,,70,1,2025-02-21_10h56.21.855,comp,2024.2.4,None,2025-02-21 10h56.34.547222 -0500,
115,115,0,filler_random,None,None,None,None,None,None,None,None,None,None,3,1.2085978984832764,None,,,,,0,0,0,0,0,115,115,159,414.58675837516785,,,,,,,,,,,,,,,,,,,,,,,,,,,,,,,,,,,,,,,,,,,,,,,,,,,,,,,,,,,,,,,,,,,,,,,,,,,,,,,,,70.49810819872525,68.00005866258874,57.935751208515114,80.3853157299657,159.50293086379844,133.31108256999386,2.2,2.21,-170,-283,0,268,203,287,414.5684337615967,414.5685119628906,414.5727138519287,414.58675837516785,414.7320291996002,414.7320291996002,414.7320291996002,414.7320291996002,414.7320291996002,414.7320291996002,414.7320291996002,415.7984285354614,3,1.2085978984832764,None,,,,,,,,,,,,,,,,,,70,1,2025-02-21_10h56.21.855,comp,2024.2.4,None,2025-02-21 10h56.34.547222 -0500,
116,116,0,critical,dhw,35.0,4.0,upper,127.0,127.0,200.0,125.0,125.0,200.0,3,1.467353343963623,None,,,,,0,0,0,0,0,116,116,53,415.8159689903259,,,,,,,,,,,,,,,,,,,,,,,,,,,,,,,,,,,,,,,,,,,,,,,,,,,,,,,,,,,,,,,,,,,,,,,,,,,,,,,,,127.0,127.0,200.0,125.0,125.0,200.0,4.0,4.1,-222,-282,0,-4,258,-273,415.7998878955841,415.7999680042267,415.8030831813812,415.8159689903259,415.9665615558624,415.9665615558624,415.9665615558624,415.9665615558624,415.9665615558624,415.9665615558624,415.9665615558624,417.29980874061584,3,1.467353343963623,None,,,,,,,,,,,,,,,,,,70,1,2025-02-21_10h56.21.855,comp,2024.2.4,None,2025-02-21 10h56.34.547222 -0500,
117,117,0,critical,wdh,20.0,2.1,upper,125.0,200.0,141.0,141.0,200.0,125.0,1,1.6406445503234863,None,,,,,0,0,0,0,0,117,117,35,417.3155527114868,,,,,,,,,,,,,,,,,,,,,,,,,,,,,,,,,,,,,,,,,,,,,,,,,,,,,,,,,,,,,,,,,,,,,,,,,,,,,,,,,125.0,200.0,141.0,141.0,200.0,125.0,2.1,2.12,-266,-265,0,-252,229,258,417.3013551235199,417.3014326095581,417.304851770401,417.3155527114868,417.4654016494751,417.4654016494751,417.4654016494751,417.4654016494751,417.4654016494751,417.4654016494751,417.4654016494751,418.96738481521606,1,1.6406445503234863,None,,,,,,,,,,,,,,,,,,70,1,2025-02-21_10h56.21.855,comp,2024.2.4,None,2025-02-21 10h56.34.547222 -0500,
118,118,0,critical,dhw,20.0,4.0,upper,141.0,141.0,200.0,125.0,125.0,200.0,2,3.276618242263794,None,,,,,0,0,0,0,0,118,118,59,418.98312735557556,,,,,,,,,,,,,,,,,,,,,,,,,,,,,,,,,,,,,,,,,,,,,,,,,,,,,,,,,,,,,,,,,,,,,,,,,,,,,,,,,141.0,141.0,200.0,125.0,125.0,200.0,4.0,4.2,-229,-9,0,-280,258,0,418.9688136577606,418.96892380714417,418.9722571372986,418.98312735557556,419.136883020401,419.136883020401,419.136883020401,419.136883020401,419.136883020401,419.136883020401,419.136883020401,422.2682890892029,2,3.276618242263794,None,,,,,,,,,,,,,,,,,,70,1,2025-02-21_10h56.21.855,comp,2024.2.4,None,2025-02-21 10h56.34.547222 -0500,
119,119,0,filler_random,None,None,None,None,None,None,None,None,None,None,2,2.318808078765869,None,,,,,0,0,0,0,0,119,119,164,422.28454065322876,,,,,,,,,,,,,,,,,,,,,,,,,,,,,,,,,,,,,,,,,,,,,,,,,,,,,,,,,,,,,,,,,,,,,,,,,,,,,,,,,153.05470945405835,61.03977580050422,167.73612060413592,120.94769692776903,101.83155414384512,80.78683874242435,3.0,3.1,-187,264,0,11,197,-265,422.27000975608826,422.2700891494751,422.273672580719,422.28454065322876,422.43824100494385,422.43824100494385,422.43824100494385,422.43824100494385,422.43824100494385,422.43824100494385,422.43824100494385,424.61235094070435,2,2.318808078765869,None,,,,,,,,,,,,,,,,,,70,1,2025-02-21_10h56.21.855,comp,2024.2.4,None,2025-02-21 10h56.34.547222 -0500,
120,120,0,filler_square,None,None,None,None,None,None,None,None,None,None,2,1.3331632614135742,None,,,,,0,0,0,0,0,120,120,174,424.63041853904724,,,,,,,,,,,,,,,,,,,,,,,,,,,,,,,,,,,,,,,,,,,,,,,,,,,,,,,,,,,,,,,,,,,,,,,,,,,,,,,,,175.04066769003566,142.10654063271159,184.40309459866103,184.40309459866103,86.11254355269293,61.65148921744346,3.0,3.1,-259,264,0,18,219,-287,424.61416244506836,424.6142418384552,424.6172196865082,424.63041853904724,424.770067691803,424.770067691803,424.770067691803,424.770067691803,424.770067691803,424.770067691803,424.770067691803,425.9696888923645,2,1.3331632614135742,None,,,,,,,,,,,,,,,,,,70,1,2025-02-21_10h56.21.855,comp,2024.2.4,None,2025-02-21 10h56.34.547222 -0500,
121,121,0,critical,wdh,35.0,2.1,lower,57.0,133.0,70.0,70.0,133.0,57.0,1,2.742523670196533,None,,,,,0,0,0,0,0,121,121,32,425.98896074295044,,,,,,,,,,,,,,,,,,,,,,,,,,,,,,,,,,,,,,,,,,,,,,,,,,,,,,,,,,,,,,,,,,,,,,,,,,,,,,,,,57.0,133.0,70.0,70.0,133.0,57.0,2.1,2.11,-198,259,0,261,160,-264,425.97118735313416,425.9712655544281,425.9743695259094,425.98896074295044,426.1363260746002,426.1363260746002,426.1363260746002,426.1363260746002,426.1363260746002,426.1363260746002,426.1363260746002,428.7358865737915,1,2.742523670196533,None,,,,,,,,,,,,,,,,,,70,1,2025-02-21_10h56.21.855,comp,2024.2.4,None,2025-02-21 10h56.34.547222 -0500,
122,122,0,critical,dwh,35.0,4.0,lower,70.0,70.0,57.0,133.0,133.0,57.0,3,2.7832653522491455,None,,,,,0,0,0,0,0,122,122,64,428.7557988166809,,,,,,,,,,,,,,,,,,,,,,,,,,,,,,,,,,,,,,,,,,,,,,,,,,,,,,,,,,,,,,,,,,,,,,,,,,,,,,,,,70.0,70.0,57.0,133.0,133.0,57.0,4.0,4.1,-198,-262,0,12,191,-258,428.7374165058136,428.7374920845032,428.7407910823822,428.7557988166809,428.90331506729126,428.90331506729126,428.90331506729126,428.90331506729126,428.90331506729126,428.90331506729126,428.90331506729126,431.554491519928,3,2.7832653522491455,None,,,,,,,,,,,,,,,,,,70,1,2025-02-21_10h56.21.855,comp,2024.2.4,None,2025-02-21 10h56.34.547222 -0500,
123,123,0,critical,dhw,20.0,2.1,upper,141.0,141.0,200.0,125.0,125.0,200.0,2,2.6168429851531982,None,,,,,0,0,0,0,0,123,123,3,431.57039499282837,,,,,,,,,,,,,,,,,,,,,,,,,,,,,,,,,,,,,,,,,,,,,,,,,,,,,,,,,,,,,,,,,,,,,,,,,,,,,,,,,141.0,141.0,200.0,125.0,125.0,200.0,2.1,2.12,-229,-284,0,-268,258,259,431.55598640441895,431.55607771873474,431.5600483417511,431.57039499282837,431.7223997116089,431.7223997116089,431.7223997116089,431.7223997116089,431.7223997116089,431.7223997116089,431.7223997116089,434.1894953250885,2,2.6168429851531982,None,,,,,,,,,,,,,,,,,,70,1,2025-02-21_10h56.21.855,comp,2024.2.4,None,2025-02-21 10h56.34.547222 -0500,
124,124,0,filler_random,None,None,None,None,None,None,None,None,None,None,3,1.162738561630249,None,,,,,0,0,0,0,0,124,124,132,434.2082314491272,,,,,,,,,,,,,,,,,,,,,,,,,,,,,,,,,,,,,,,,,,,,,,,,,,,,,,,,,,,,,,,,,,,,,,,,,,,,,,,,,176.32630959639232,77.82147297133352,58.89654939506966,77.82316716575085,174.6909136557557,142.0372028399447,2.2,2.22,-174,254,0,-252,206,-290,434.1911461353302,434.19122076034546,434.1942150592804,434.2082314491272,434.3549039363861,434.3549039363861,434.3549039363861,434.3549039363861,434.3549039363861,434.3549039363861,434.3549039363861,435.37295722961426,3,1.162738561630249,None,,,,,,,,,,,,,,,,,,70,1,2025-02-21_10h56.21.855,comp,2024.2.4,None,2025-02-21 10h56.34.547222 -0500,
125,125,0,filler_square,None,None,None,None,None,None,None,None,None,None,2,2.0855233669281006,None,,,,,0,0,0,0,0,125,125,192,435.389488697052,,,,,,,,,,,,,,,,,,,,,,,,,,,,,,,,,,,,,,,,,,,,,,,,,,,,,,,,,,,,,,,,,,,,,,,,,,,,,,,,,74.41440035103747,145.01154421934427,173.35912306004911,173.35912306004911,147.9701325318582,168.7995021737683,3.0,3.1,-255,266,0,-14,267,-275,435.3747389316559,435.3748173713684,435.3788275718689,435.389488697052,435.54194808006287,435.54194808006287,435.54194808006287,435.54194808006287,435.54194808006287,435.54194808006287,435.54194808006287,437.4939205646515,2,2.0855233669281006,None,,,,,,,,,,,,,,,,,,70,1,2025-02-21_10h56.21.855,comp,2024.2.4,None,2025-02-21 10h56.34.547222 -0500,
126,126,0,filler_square,None,None,None,None,None,None,None,None,None,None,3,1.4730868339538574,None,,,,,0,0,0,0,0,126,126,173,437.5144305229187,,,,,,,,,,,,,,,,,,,,,,,,,,,,,,,,,,,,,,,,,,,,,,,,,,,,,,,,,,,,,,,,,,,,,,,,,,,,,,,,,119.845030429607,92.61867779938805,60.075567186503434,86.57386047484218,133.33082336638586,133.33082336638586,3.0,3.1,-186,266,0,-8,206,-289,437.4957945346832,437.49590277671814,437.499125957489,437.5144305229187,437.65895676612854,437.65895676612854,437.65895676612854,437.65895676612854,437.65895676612854,437.65895676612854,437.65895676612854,438.99029207229614,3,1.4730868339538574,None,,,,,,,,,,,,,,,,,,70,1,2025-02-21_10h56.21.855,comp,2024.2.4,None,2025-02-21 10h56.34.547222 -0500,
127,127,0,filler_random,None,None,None,None,None,None,None,None,None,None,3,1.3001391887664795,None,,,,,0,0,0,0,0,127,127,139,439.00680708885193,,,,,,,,,,,,,,,,,,,,,,,,,,,,,,,,,,,,,,,,,,,,,,,,,,,,,,,,,,,,,,,,,,,,,,,,,,,,,,,,,92.57577835847228,109.31724695149865,81.16393486139557,99.67952794736709,199.3274279319057,171.3346784794241,2.1,2.11,-200,255,0,251,232,-287,438.9919743537903,438.99204993247986,438.9951457977295,439.00680708885193,439.1568548679352,439.1568548679352,439.1568548679352,439.1568548679352,439.1568548679352,439.1568548679352,439.1568548679352,440.32359623908997,3,1.3001391887664795,None,,,,,,,,,,,,,,,,,,70,1,2025-02-21_10h56.21.855,comp,2024.2.4,None,2025-02-21 10h56.34.547222 -0500,
128,128,0,critical,dhw,20.0,3.0,lower,78.0,78.0,133.0,57.0,57.0,133.0,3,2.3035812377929688,None,,,,,0,0,0,0,0,128,128,56,440.33943486213684,,,,,,,,,,,,,,,,,,,,,,,,,,,,,,,,,,,,,,,,,,,,,,,,,,,,,,,,,,,,,,,,,,,,,,,,,,,,,,,,,78.0,78.0,133.0,57.0,57.0,133.0,3.0,3.1,-164,261,0,0,191,-252,440.3252785205841,440.3254175186157,440.32890152931213,440.33943486213684,440.4892678260803,440.4892678260803,440.4892678260803,440.4892678260803,440.4892678260803,440.4892678260803,440.4892678260803,442.661474943161,3,2.3035812377929688,None,,,,,,,,,,,,,,,,,,70,1,2025-02-21_10h56.21.855,comp,2024.2.4,None,2025-02-21 10h56.34.547222 -0500,
129,129,0,critical,hwd,35.0,3.0,lower,133.0,57.0,57.0,133.0,70.0,70.0,2,4.017651796340942,None,,,,,0,0,0,0,0,129,129,98,442.6819188594818,,,,,,,,,,,,,,,,,,,,,,,,,,,,,,,,,,,,,,,,,,,,,,,,,,,,,,,,,,,,,,,,,,,,,,,,,,,,,,,,,133.0,57.0,57.0,133.0,70.0,70.0,3.0,3.2,-191,-262,0,-14,198,267,442.66303730010986,442.6631417274475,442.66648840904236,442.6819188594818,442.8242723941803,442.8242723941803,442.8242723941803,442.8242723941803,442.8242723941803,442.8242723941803,442.8242723941803,446.7104344367981,2,4.017651796340942,None,,,,,,,,,,,,,,,,,,70,1,2025-02-21_10h56.21.855,comp,2024.2.4,None,2025-02-21 10h56.34.547222 -0500,
130,130,0,filler_square,None,None,None,None,None,None,None,None,None,None,1,3.181044816970825,None,,,,,0,0,0,0,0,130,130,181,446.72667479515076,,,,,,,,,,,,,,,,,,,,,,,,,,,,,,,,,,,,,,,,,,,,,,,,,,,,,,,,,,,,,,,,,,,,,,,,,,,,,,,,,136.1939325651844,136.1939325651844,135.58651460125958,89.17984119575311,114.6080951137079,93.57031436357249,3.0,3.2,-209,-255,0,15,187,273,446.7122468948364,446.7123820781708,446.71578001976013,446.72667479515076,446.87741231918335,446.87741231918335,446.87741231918335,446.87741231918335,446.87741231918335,446.87741231918335,446.87741231918335,449.90992307662964,1,3.181044816970825,None,,,,,,,,,,,,,,,,,,70,1,2025-02-21_10h56.21.855,comp,2024.2.4,None,2025-02-21 10h56.34.547222 -0500,
131,131,0,filler_square,None,None,None,None,None,None,None,None,None,None,2,3.379683494567871,None,,,,,0,0,0,0,0,131,131,185,449.9282636642456,,,,,,,,,,,,,,,,,,,,,,,,,,,,,,,,,,,,,,,,,,,,,,,,,,,,,,,,,,,,,,,,,,,,,,,,,,,,,,,,,96.61295787411002,78.60283385860323,99.89668698349251,99.89668698349251,86.65500177052,58.22825272892909,3.0,3.1,-185,260,0,-12,175,-282,449.91173005104065,449.91183853149414,449.91507601737976,449.9282636642456,450.0779194831848,450.0779194831848,450.0779194831848,450.0779194831848,450.0779194831848,450.0779194831848,450.0779194831848,453.3149502277374,2,3.379683494567871,None,,,,,,,,,,,,,,,,,,70,1,2025-02-21_10h56.21.855,comp,2024.2.4,None,2025-02-21 10h56.34.547222 -0500,
132,132,0,critical,dhw,35.0,3.0,upper,127.0,127.0,200.0,125.0,125.0,200.0,3,1.5444607734680176,None,,,,,0,0,0,0,0,132,132,51,453.3311417102814,,,,,,,,,,,,,,,,,,,,,,,,,,,,,,,,,,,,,,,,,,,,,,,,,,,,,,,,,,,,,,,,,,,,,,,,,,,,,,,,,127.0,127.0,200.0,125.0,125.0,200.0,3.0,3.2,-222,-286,0,-3,258,265,453.3165531158447,453.3166341781616,453.31956577301025,453.3311417102814,453.47774028778076,453.47774028778076,453.47774028778076,453.47774028778076,453.47774028778076,453.47774028778076,453.47774028778076,454.8784861564636,3,1.5444607734680176,None,,,,,,,,,,,,,,,,,,70,1,2025-02-21_10h56.21.855,comp,2024.2.4,None,2025-02-21 10h56.34.547222 -0500,
133,133,0,critical,hwd,20.0,2.1,upper,200.0,125.0,125.0,200.0,141.0,141.0,2,3.726652145385742,None,,,,,0,0,0,0,0,133,133,43,454.8931038379669,,,,,,,,,,,,,,,,,,,,,,,,,,,,,,,,,,,,,,,,,,,,,,,,,,,,,,,,,,,,,,,,,,,,,,,,,,,,,,,,,200.0,125.0,125.0,200.0,141.0,141.0,2.1,2.12,-258,-275,0,-275,266,261,454.88002014160156,454.8801300525665,454.88333916664124,454.8931038379669,455.04391169548035,455.04391169548035,455.04391169548035,455.04391169548035,455.04391169548035,455.04391169548035,455.04391169548035,458.62977027893066,2,3.726652145385742,None,,,,,,,,,,,,,,,,,,70,1,2025-02-21_10h56.21.855,comp,2024.2.4,None,2025-02-21 10h56.34.547222 -0500,
134,134,0,critical,whd,35.0,4.0,upper,125.0,200.0,200.0,125.0,127.0,127.0,1,1.9416263103485107,None,,,,,0,0,0,0,0,134,134,89,458.64640617370605,,,,,,,,,,,,,,,,,,,,,,,,,,,,,,,,,,,,,,,,,,,,,,,,,,,,,,,,,,,,,,,,,,,,,,,,,,,,,,,,,125.0,200.0,200.0,125.0,127.0,127.0,4.0,4.1,-258,-262,0,-4,222,-290,458.6313238143921,458.63140177726746,458.63555216789246,458.64640617370605,458.7935450077057,458.7935450077057,458.7935450077057,458.7935450077057,458.7935450077057,458.7935450077057,458.7935450077057,460.59612703323364,1,1.9416263103485107,None,,,,,,,,,,,,,,,,,,70,1,2025-02-21_10h56.21.855,comp,2024.2.4,None,2025-02-21 10h56.34.547222 -0500,
135,135,0,filler_square,None,None,None,None,None,None,None,None,None,None,3,1.2281854152679443,None,,,,,0,0,0,0,0,135,135,170,460.6153793334961,,,,,,,,,,,,,,,,,,,,,,,,,,,,,,,,,,,,,,,,,,,,,,,,,,,,,,,,,,,,,,,,,,,,,,,,,,,,,,,,,99.84761562745912,146.87096208067112,89.92200850486947,111.36494014567192,189.0882553819198,189.0882553819198,3.0,3.2,-225,-265,0,12,246,252,460.597939491272,460.5980613231659,460.6013264656067,460.6153793334961,460.7634837627411,460.7634837627411,460.7634837627411,460.7634837627411,460.7634837627411,460.7634837627411,460.7634837627411,461.86268305778503,3,1.2281854152679443,None,,,,,,,,,,,,,,,,,,70,1,2025-02-21_10h56.21.855,comp,2024.2.4,None,2025-02-21 10h56.34.547222 -0500,
136,136,0,critical,wdh,20.0,1.0,lower,57.0,133.0,78.0,78.0,133.0,57.0,2,4.214797019958496,None,,,,,0,0,0,0,0,136,136,78,461.87845492362976,,,,,,,,,,,,,,,,,,,,,,,,,,,,,,,,,,,,,,,,,,,,,,,,,,,,,,,,,,,,,,,,,,,,,,,,,,,,,,,,,57.0,133.0,78.0,78.0,133.0,57.0,1.0,1.2,-202,17,0,-17,164,-18,461.8641424179077,461.8642158508301,461.86715054512024,461.87845492362976,462.0276188850403,462.0276188850403,462.0276188850403,462.0276188850403,462.0276188850403,462.0276188850403,462.0276188850403,466.09601306915283,2,4.214797019958496,None,,,,,,,,,,,,,,,,,,70,1,2025-02-21_10h56.21.855,comp,2024.2.4,None,2025-02-21 10h56.34.547222 -0500,
137,137,0,critical,dwh,20.0,2.1,lower,78.0,78.0,57.0,133.0,133.0,57.0,2,3.1230242252349854,None,,,,,0,0,0,0,0,137,137,30,466.1120147705078,,,,,,,,,,,,,,,,,,,,,,,,,,,,,,,,,,,,,,,,,,,,,,,,,,,,,,,,,,,,,,,,,,,,,,,,,,,,,,,,,78.0,78.0,57.0,133.0,133.0,57.0,2.1,2.11,-202,278,0,276,191,-289,466.0975341796875,466.0976116657257,466.1006450653076,466.1120147705078,466.2683665752411,466.2683665752411,466.2683665752411,466.2683665752411,466.2683665752411,466.2683665752411,466.2683665752411,469.2525007724762,2,3.1230242252349854,None,,,,,,,,,,,,,,,,,,70,1,2025-02-21_10h56.21.855,comp,2024.2.4,None,2025-02-21 10h56.34.547222 -0500,
138,138,0,filler_random,None,None,None,None,None,None,None,None,None,None,2,1.018139362335205,None,,,,,0,0,0,0,0,138,138,140,469.2733609676361,,,,,,,,,,,,,,,,,,,,,,,,,,,,,,,,,,,,,,,,,,,,,,,,,,,,,,,,,,,,,,,,,,,,,,,,,,,,,,,,,77.04271593015991,116.31736503951437,142.52946755849246,194.90202455794395,79.41084738281431,104.99309821553345,2.2,2.21,-252,-274,0,290,246,285,469.2546682357788,469.2548236846924,469.2580726146698,469.2733609676361,469.4181065559387,469.4181065559387,469.4181065559387,469.4181065559387,469.4181065559387,469.4181065559387,469.4181065559387,470.3001763820648,2,1.018139362335205,None,,,,,,,,,,,,,,,,,,70,1,2025-02-21_10h56.21.855,comp,2024.2.4,None,2025-02-21 10h56.34.547222 -0500,
139,139,0,critical,whd,20.0,1.0,upper,125.0,200.0,200.0,125.0,141.0,141.0,1,3.2401137351989746,None,,,,,0,0,0,0,0,139,139,91,470.3166456222534,,,,,,,,,,,,,,,,,,,,,,,,,,,,,,,,,,,,,,,,,,,,,,,,,,,,,,,,,,,,,,,,,,,,,,,,,,,,,,,,,125.0,200.0,200.0,125.0,141.0,141.0,1.0,1.1,-738,283,-480,261,-251,281,470.3017075061798,470.30178570747375,470.30518794059753,470.3166456222534,470.4664533138275,470.4664533138275,470.4664533138275,470.4664533138275,470.4664533138275,470.4664533138275,470.4664533138275,473.5680377483368,1,3.2401137351989746,None,,,,,,,,,,,,,,,,,,70,1,2025-02-21_10h56.21.855,comp,2024.2.4,None,2025-02-21 10h56.34.547222 -0500,
140,140,0,critical,dwh,20.0,2.1,upper,141.0,141.0,125.0,200.0,200.0,125.0,2,2.5950405597686768,None,,,,,0,0,0,0,0,140,140,7,473.5848922729492,,,,,,,,,,,,,,,,,,,,,,,,,,,,,,,,,,,,,,,,,,,,,,,,,,,,,,,,,,,,,,,,,,,,,,,,,,,,,,,,,141.0,141.0,125.0,200.0,200.0,125.0,2.1,2.11,-266,255,0,260,258,-269,473.56972217559814,473.56982231140137,473.5737051963806,473.5848922729492,473.7326114177704,473.7326114177704,473.7326114177704,473.7326114177704,473.7326114177704,473.7326114177704,473.7326114177704,476.18557810783386,2,2.5950405597686768,None,,,,,,,,,,,,,,,,,,70,1,2025-02-21_10h56.21.855,comp,2024.2.4,None,2025-02-21 10h56.34.547222 -0500,
141,141,0,filler_random,None,None,None,None,None,None,None,None,None,None,3,1.7854273319244385,None,,,,,0,0,0,0,0,141,141,137,476.20165824890137,,,,,,,,,,,,,,,,,,,,,,,,,,,,,,,,,,,,,,,,,,,,,,,,,,,,,,,,,,,,,,,,,,,,,,,,,,,,,,,,,134.16770176770325,132.54213267175976,77.95608584376261,66.45286376016101,183.1840603874116,126.64144591787205,1.0,1.2,-195,-7,0,4,193,-5,476.1873199939728,476.18740129470825,476.19078826904297,476.20165824890137,476.3540017604828,476.3540017604828,476.3540017604828,476.3540017604828,476.3540017604828,476.3540017604828,476.3540017604828,478.00237131118774,3,1.7854273319244385,None,,,,,,,,,,,,,,,,,,70,1,2025-02-21_10h56.21.855,comp,2024.2.4,None,2025-02-21 10h56.34.547222 -0500,
142,142,0,critical,hwd,35.0,2.1,lower,133.0,57.0,57.0,133.0,70.0,70.0,2,6.761410236358643,None,,,,,0,0,0,0,0,142,142,40,478.01848459243774,,,,,,,,,,,,,,,,,,,,,,,,,,,,,,,,,,,,,,,,,,,,,,,,,,,,,,,,,,,,,,,,,,,,,,,,,,,,,,,,,133.0,57.0,57.0,133.0,70.0,70.0,2.1,2.12,-191,-256,0,-269,198,268,478.00379848480225,478.00390005111694,478.00790452957153,478.01848459243774,478.17568731307983,478.17568731307983,478.17568731307983,478.17568731307983,478.17568731307983,478.17568731307983,478.17568731307983,484.78807377815247,2,6.761410236358643,None,,,,,,,,,,,,,,,,,,70,1,2025-02-21_10h56.21.855,comp,2024.2.4,None,2025-02-21 10h56.34.547222 -0500,
