thisN,thisTrialN,thisRepN,effect,order,distance,config,diag,h_1,w_1,h_2,w_2,h_3,w_3,rect_choice.keys,rect_choice.rt,rect_choice.duration,instructions_loop.thisRepN,instructions_loop.thisTrialN,instructions_loop.thisN,instructions_loop.thisIndex,blocks.thisRepN,blocks.thisTrialN,blocks.thisN,blocks.thisIndex,trials.thisRepN,trials.thisTrialN,trials.thisN,trials.thisIndex,thisRow.t,notes,consent.started,agree_button.started,decline_button.started,consent_img.started,mouse.started,consent.stopped,agree_button.numClicks,agree_button.timesOn,agree_button.timesOff,decline_button.numClicks,decline_button.timesOn,decline_button.timesOff,mouse.x,mouse.y,mouse.leftButton,mouse.midButton,mouse.rightButton,mouse.time,mouse.clicked_name,exp_params.started,exp_params.stopped,welcome.started,welcome_text.started,welcome.stopped,instructions_1.started,instructions_1_text_1.started,instructions_1_text_2.started,key_resp.started,instructions_1.stopped,instructions_loop.key_resp.keys,instructions_loop.key_resp.rt,instructions_loop.key_resp.duration,instructions_2.started,instructions_2_text_1.started,instructions_2_text_2.started,key_resp_2.started,instructions_2.stopped,instructions_loop.key_resp_2.keys,instructions_loop.key_resp_2.rt,instructions_loop.key_resp_2.duration,instructions_3.started,instructions_3_text_1.started,r1_instr3.started,r2_instr3.started,r3_instr3.started,r1_instr3_label.started,r2_instr3_label.started,r3_instr3_label.started,instructions_3_text_3.started,instructions_3_text_4.started,key_resp_3.started,instructions_3.stopped,instructions_loop.key_resp_3.keys,instructions_loop.key_resp_3.rt,instructions_loop.key_resp_3.duration,instructions_4.started,instructions_4_text_1.started,instructions_4_text_3.started,instructions_4_text_2.started,key_resp_4.started,instructions_4.stopped,instructions_loop.key_resp_4.keys,instructions_loop.key_resp_4.rt,instructions_loop.key_resp_4.duration,instructions_5.started,instructions_5_text_1.started,instructions_5_text_2.started,key_resp_5.started,instructions_5.stopped,instructions_loop.key_resp_5.keys,instructions_loop.key_resp_5.rt,instructions_loop.key_resp_5.duration,start_exp.started,start_exp_text.started,key_resp_6.started,start_exp.stopped,key_resp_6.keys,key_resp_6.rt,key_resp_6.duration,h_1_tmp,w_1_tmp,h_2_tmp,w_2_tmp,h_3_tmp,w_3_tmp,config_tmp,config_tmp_1,r_1_x,r_1_y,r_2_x,r_2_y,r_3_x,r_3_y,pre_trial.started,pre_trial.stopped,choice_trial.started,rect_choice.started,r_1.started,r_2.started,r_3.started,r_1_label.started,r_2_label.started,r_3_label.started,prompt.started,choice_trial.stopped,trials.rect_choice.keys,trials.rect_choice.rt,trials.rect_choice.duration,end_block.started,end_block_text.started,end_block.stopped,end.started,end_text.started,key_resp_7.started,end.stopped,key_resp_7.keys,key_resp_7.rt,key_resp_7.duration,debriefing.started,debrief_form.started,end_debrief.started,debriefing.stopped,end_debrief.keys,end_debrief.rt,end_debrief.duration,participant,computer,date,expName,psychopyVersion,frameRate,expStart,
,,,,,,,,,,,,,,,,,,,,,,,,,,,,,,,0.015275716781616211,0.04177284240722656,0.04177284240722656,0.04177284240722656,0.014749765396118164,6.764659881591797,1,[6.721649885177612],[6.721661806106567],0,,,[-82.0],[-487.0],[1],[0],[0],[6.748839855194092],['agree_button'],,,,,,,,,,,,,,,,,,,,,,,,,,,,,,,,,,,,,,,,,,,,,,,,,,,,,,,,,,,,,,,,,,,,,,,,,,,,,,,,,,,,,,,,,,,,,,,,,,,,,,,,,,,72,3,2025-02-21_10h56.42.167,comp,2024.2.4,61.81958067725414,2025-02-21 10h56.50.511119 -0500,
,,,,,,,,,,,,,,,,,,,,,,,,,,,,,,,,,,,,,,,,,,,,,,,,,,6.764913082122803,6.764946699142456,,,,,,,,,,,,,,,,,,,,,,,,,,,,,,,,,,,,,,,,,,,,,,,,,,,,,,,,,,,,,,,,,,,,,,,,,,,,,,,,,,,,,,,,,,,,,,,,,,,,,,,,,72,3,2025-02-21_10h56.42.167,comp,2024.2.4,61.81958067725414,2025-02-21 10h56.50.511119 -0500,
,,,,,,,,,,,,,,,,,,,,,,,,,,,,,,,,,,,,,,,,,,,,,,,,,,,,6.764967441558838,6.7781946659088135,8.765687227249146,,,,,,,,,,,,,,,,,,,,,,,,,,,,,,,,,,,,,,,,,,,,,,,,,,,,,,,,,,,,,,,,,,,,,,,,,,,,,,,,,,,,,,,,,,,,,,,,,,,,,,72,3,2025-02-21_10h56.42.167,comp,2024.2.4,61.81958067725414,2025-02-21 10h56.50.511119 -0500,
0,0,0,,,,,,,,,,,,,,,0,0,0,0,,,,,,,,,8.782621622085571,,,,,,,,,,,,,,,,,,,,,,,,,,8.766249895095825,8.782621622085571,8.782621622085571,10.265612363815308,14.100544691085815,space,3.822237491607666,None,14.10062313079834,14.115370512008667,14.115370512008667,15.615145444869995,21.399675130844116,space,5.7777721881866455,None,21.399758100509644,21.42154550552368,21.42154550552368,21.42154550552368,21.42154550552368,21.42154550552368,21.42154550552368,21.42154550552368,21.42154550552368,21.42154550552368,22.89880132675171,28.1002140045166,space,5.188999176025391,None,28.100301504135132,28.115352630615234,28.115352630615234,28.115352630615234,29.615166902542114,32.699926137924194,space,3.0725865364074707,None,32.70000648498535,32.715110540390015,32.715110540390015,34.21502685546875,34.96597766876221,space,0.7369098663330078,None,34.96610355377197,34.981659173965454,34.981659173965454,36.16615128517151,space,1.179175615310669,None,,,,,,,,,,,,,,,,,,,,,,,,,,,,,,,,,,,,,,,,,,,,,,,72,3,2025-02-21_10h56.42.167,comp,2024.2.4,61.81958067725414,2025-02-21 10h56.50.511119 -0500,
0,0,0,filler_random,None,None,None,None,None,None,None,None,None,None,3,347.91963601112366,None,,,,,0,0,0,0,0,0,0,152,36.225311279296875,,,,,,,,,,,,,,,,,,,,,,,,,,,,,,,,,,,,,,,,,,,,,,,,,,,,,,,,,,,,,,,,,,,,,,,,,,,,,,,,,83.22633645939698,199.93663893200647,77.7184316045162,113.1155427208204,153.9468767892352,154.2211954045536,2.2,2.22,-253,270,0,-276,230,-252,36.211628437042236,36.21167469024658,36.21366763114929,36.225311279296875,36.371684074401855,36.371684074401855,36.371684074401855,36.371684074401855,36.371684074401855,36.371684074401855,36.371684074401855,384.1481080055237,3,347.91963601112366,None,,,,,,,,,,,,,,,,,,72,3,2025-02-21_10h56.42.167,comp,2024.2.4,61.81958067725414,2025-02-21 10h56.50.511119 -0500,
1,1,0,critical,dwh,35.0,1.0,upper,127.0,127.0,125.0,200.0,200.0,125.0,2,5.107396125793457,None,,,,,0,0,0,0,0,1,1,61,384.16295337677,,,,,,,,,,,,,,,,,,,,,,,,,,,,,,,,,,,,,,,,,,,,,,,,,,,,,,,,,,,,,,,,,,,,,,,,,,,,,,,,,127.0,127.0,125.0,200.0,200.0,125.0,1.0,1.1,-740,268,-480,268,-222,287,384.14886832237244,384.1489086151123,384.15101742744446,384.16295337677,384.31317472457886,384.31317472457886,384.31317472457886,384.31317472457886,384.31317472457886,384.31317472457886,384.31317472457886,389.28071451187134,2,5.107396125793457,None,,,,,,,,,,,,,,,,,,72,3,2025-02-21_10h56.42.167,comp,2024.2.4,61.81958067725414,2025-02-21 10h56.50.511119 -0500,
2,2,0,filler_random,None,None,None,None,None,None,None,None,None,None,3,3.3667595386505127,None,,,,,0,0,0,0,0,2,2,162,389.2962462902069,,,,,,,,,,,,,,,,,,,,,,,,,,,,,,,,,,,,,,,,,,,,,,,,,,,,,,,,,,,,,,,,,,,,,,,,,,,,,,,,,106.30251107124252,120.60064987936421,126.8228308279021,106.68084647863539,114.44171986327768,177.05016756342528,1.0,1.3,270,-267,480,-275,718,-285,389.28163385391235,389.28167629241943,389.28374004364014,389.2962462902069,389.44622349739075,389.44622349739075,389.44622349739075,389.44622349739075,389.44622349739075,389.44622349739075,389.44622349739075,392.66418862342834,3,3.3667595386505127,None,,,,,,,,,,,,,,,,,,72,3,2025-02-21_10h56.42.167,comp,2024.2.4,61.81958067725414,2025-02-21 10h56.50.511119 -0500,
3,3,0,critical,dwh,35.0,4.0,lower,70.0,70.0,57.0,133.0,133.0,57.0,2,4.278470993041992,None,,,,,0,0,0,0,0,3,3,64,392.67977142333984,,,,,,,,,,,,,,,,,,,,,,,,,,,,,,,,,,,,,,,,,,,,,,,,,,,,,,,,,,,,,,,,,,,,,,,,,,,,,,,,,70.0,70.0,57.0,133.0,133.0,57.0,4.0,4.1,-198,-282,0,9,191,-279,392.6649694442749,392.665011882782,392.66724252700806,392.67977142333984,392.82938408851624,392.82938408851624,392.82938408851624,392.82938408851624,392.82938408851624,392.82938408851624,392.82938408851624,396.96496200561523,2,4.278470993041992,None,,,,,,,,,,,,,,,,,,72,3,2025-02-21_10h56.42.167,comp,2024.2.4,61.81958067725414,2025-02-21 10h56.50.511119 -0500,
4,4,0,critical,wdh,35.0,2.1,lower,57.0,133.0,70.0,70.0,133.0,57.0,1,2.1376607418060303,None,,,,,0,0,0,0,0,4,4,32,396.9797639846802,,,,,,,,,,,,,,,,,,,,,,,,,,,,,,,,,,,,,,,,,,,,,,,,,,,,,,,,,,,,,,,,,,,,,,,,,,,,,,,,,57.0,133.0,70.0,70.0,133.0,57.0,2.1,2.11,-198,281,0,271,160,-278,396.96601152420044,396.9660835266113,396.9685866832733,396.9797639846802,397.1292688846588,397.1292688846588,397.1292688846588,397.1292688846588,397.1292688846588,397.1292688846588,397.1292688846588,399.1303770542145,1,2.1376607418060303,None,,,,,,,,,,,,,,,,,,72,3,2025-02-21_10h56.42.167,comp,2024.2.4,61.81958067725414,2025-02-21 10h56.50.511119 -0500,
5,5,0,filler_square,None,None,None,None,None,None,None,None,None,None,1,1.724949836730957,None,,,,,0,0,0,0,0,5,5,181,399.14578890800476,,,,,,,,,,,,,,,,,,,,,,,,,,,,,,,,,,,,,,,,,,,,,,,,,,,,,,,,,,,,,,,,,,,,,,,,,,,,,,,,,101.04494640052269,101.04494640052269,83.70105443948853,89.49662927627253,87.43422378164436,76.9904619689384,4.0,4.2,-191,-6,0,-254,179,17,399.1313350200653,399.1313750743866,399.1338005065918,399.14578890800476,399.29605197906494,399.29605197906494,399.29605197906494,399.29605197906494,399.29605197906494,399.29605197906494,399.29605197906494,400.8803744316101,1,1.724949836730957,None,,,,,,,,,,,,,,,,,,72,3,2025-02-21_10h56.42.167,comp,2024.2.4,61.81958067725414,2025-02-21 10h56.50.511119 -0500,
6,6,0,critical,hwd,20.0,2.1,upper,200.0,125.0,125.0,200.0,141.0,141.0,1,3.1747467517852783,None,,,,,0,0,0,0,0,6,6,43,400.8961081504822,,,,,,,,,,,,,,,,,,,,,,,,,,,,,,,,,,,,,,,,,,,,,,,,,,,,,,,,,,,,,,,,,,,,,,,,,,,,,,,,,200.0,125.0,125.0,200.0,141.0,141.0,2.1,2.12,-258,-278,0,-279,266,279,400.88117241859436,400.88121223449707,400.88359904289246,400.8961081504822,401.0462005138397,401.0462005138397,401.0462005138397,401.0462005138397,401.0462005138397,401.0462005138397,401.0462005138397,404.0807030200958,1,3.1747467517852783,None,,,,,,,,,,,,,,,,,,72,3,2025-02-21_10h56.42.167,comp,2024.2.4,61.81958067725414,2025-02-21 10h56.50.511119 -0500,
7,7,0,critical,hdw,35.0,3.0,lower,133.0,57.0,70.0,70.0,57.0,133.0,1,2.0532748699188232,None,,,,,0,0,0,0,0,7,7,110,404.0961241722107,,,,,,,,,,,,,,,,,,,,,,,,,,,,,,,,,,,,,,,,,,,,,,,,,,,,,,,,,,,,,,,,,,,,,,,,,,,,,,,,,133.0,57.0,70.0,70.0,57.0,133.0,3.0,3.2,-160,-273,0,-2,198,270,404.0815191268921,404.0815603733063,404.0839853286743,404.0961241722107,404.2461280822754,404.2461280822754,404.2461280822754,404.2461280822754,404.2461280822754,404.2461280822754,404.2461280822754,406.16368770599365,1,2.0532748699188232,None,,,,,,,,,,,,,,,,,,72,3,2025-02-21_10h56.42.167,comp,2024.2.4,61.81958067725414,2025-02-21 10h56.50.511119 -0500,
8,8,0,critical,whd,20.0,2.1,upper,125.0,200.0,200.0,125.0,141.0,141.0,2,2.9221601486206055,None,,,,,0,0,0,0,0,8,8,39,406.1791205406189,,,,,,,,,,,,,,,,,,,,,,,,,,,,,,,,,,,,,,,,,,,,,,,,,,,,,,,,,,,,,,,,,,,,,,,,,,,,,,,,,125.0,200.0,200.0,125.0,141.0,141.0,2.1,2.11,-258,289,0,255,229,-272,406.1644985675812,406.1645390987396,406.16710686683655,406.1791205406189,406.3296182155609,406.3296182155609,406.3296182155609,406.3296182155609,406.3296182155609,406.3296182155609,406.3296182155609,409.1138803958893,2,2.9221601486206055,None,,,,,,,,,,,,,,,,,,72,3,2025-02-21_10h56.42.167,comp,2024.2.4,61.81958067725414,2025-02-21 10h56.50.511119 -0500,
9,9,0,critical,hdw,35.0,1.0,upper,200.0,125.0,127.0,127.0,125.0,200.0,1,1.9004600048065186,None,,,,,0,0,0,0,0,9,9,109,409.1292612552643,,,,,,,,,,,,,,,,,,,,,,,,,,,,,,,,,,,,,,,,,,,,,,,,,,,,,,,,,,,,,,,,,,,,,,,,,,,,,,,,,200.0,125.0,127.0,127.0,125.0,200.0,1.0,1.3,258,-289,480,-263,740,-271,409.11470222473145,409.11474227905273,409.1173622608185,409.1292612552643,409.27945828437805,409.27945828437805,409.27945828437805,409.27945828437805,409.27945828437805,409.27945828437805,409.27945828437805,411.0471353530884,1,1.9004600048065186,None,,,,,,,,,,,,,,,,,,72,3,2025-02-21_10h56.42.167,comp,2024.2.4,61.81958067725414,2025-02-21 10h56.50.511119 -0500,
10,10,0,filler_square,None,None,None,None,None,None,None,None,None,None,3,2.35960054397583,None,,,,,0,0,0,0,0,10,10,203,411.06246876716614,,,,,,,,,,,,,,,,,,,,,,,,,,,,,,,,,,,,,,,,,,,,,,,,,,,,,,,,,,,,,,,,,,,,,,,,,,,,,,,,,100.03179193160518,112.11679591970712,86.23579708784635,60.651359327331456,118.73917627534495,118.73917627534495,4.0,4.1,-182,-250,0,1,186,-281,411.04809856414795,411.04813957214355,411.0504505634308,411.06246876716614,411.212584733963,411.212584733963,411.212584733963,411.212584733963,411.212584733963,411.212584733963,411.212584733963,413.43033242225647,3,2.35960054397583,None,,,,,,,,,,,,,,,,,,72,3,2025-02-21_10h56.42.167,comp,2024.2.4,61.81958067725414,2025-02-21 10h56.50.511119 -0500,
11,11,0,filler_random,None,None,None,None,None,None,None,None,None,None,3,1.8244194984436035,None,,,,,0,0,0,0,0,11,11,155,413.445992231369,,,,,,,,,,,,,,,,,,,,,,,,,,,,,,,,,,,,,,,,,,,,,,,,,,,,,,,,,,,,,,,,,,,,,,,,,,,,,,,,,125.46525781330692,100.66064650967965,75.97752008037163,139.28734923649728,119.18662895955123,99.82849144127837,2.2,2.21,-216,-290,0,285,216,268,413.43125200271606,413.4312937259674,413.43370628356934,413.445992231369,413.5960364341736,413.5960364341736,413.5960364341736,413.5960364341736,413.5960364341736,413.5960364341736,413.5960364341736,415.2804160118103,3,1.8244194984436035,None,,,,,,,,,,,,,,,,,,72,3,2025-02-21_10h56.42.167,comp,2024.2.4,61.81958067725414,2025-02-21 10h56.50.511119 -0500,
12,12,0,catch,None,None,None,None,None,None,None,None,None,None,1,1.4693470001220703,None,,,,,0,0,0,0,0,12,12,128,415.29596614837646,,,,,,,,,,,,,,,,,,,,,,,,,,,,,,,,,,,,,,,,,,,,,,,,,,,,,,,,,,,,,,,,,,,,,,,,,,,,,,,,,162,163,95,95,123,67,1.0,1.1,-705,263,-480,281,-303,256,415.28144001960754,415.28148102760315,415.28397130966187,415.29596614837646,415.4460868835449,415.4460868835449,415.4460868835449,415.4460868835449,415.4460868835449,415.4460868835449,415.4460868835449,416.78053069114685,1,1.4693470001220703,None,,,,,,,,,,,,,,,,,,72,3,2025-02-21_10h56.42.167,comp,2024.2.4,61.81958067725414,2025-02-21 10h56.50.511119 -0500,
13,13,0,critical,dwh,20.0,2.1,lower,78.0,78.0,57.0,133.0,133.0,57.0,3,2.6892542839050293,None,,,,,0,0,0,0,0,13,13,6,416.7958161830902,,,,,,,,,,,,,,,,,,,,,,,,,,,,,,,,,,,,,,,,,,,,,,,,,,,,,,,,,,,,,,,,,,,,,,,,,,,,,,,,,78.0,78.0,57.0,133.0,133.0,57.0,2.1,2.12,-202,-264,0,-269,191,275,416.7813425064087,416.7813856601715,416.78390550613403,416.7958161830902,416.9458484649658,416.9458484649658,416.9458484649658,416.9458484649658,416.9458484649658,416.9458484649658,416.9458484649658,419.49742317199707,3,2.6892542839050293,None,,,,,,,,,,,,,,,,,,72,3,2025-02-21_10h56.42.167,comp,2024.2.4,61.81958067725414,2025-02-21 10h56.50.511119 -0500,
14,14,0,critical,hdw,35.0,2.1,lower,133.0,57.0,70.0,70.0,57.0,133.0,1,1.3097245693206787,None,,,,,0,0,0,0,0,14,14,44,419.51241755485535,,,,,,,,,,,,,,,,,,,,,,,,,,,,,,,,,,,,,,,,,,,,,,,,,,,,,,,,,,,,,,,,,,,,,,,,,,,,,,,,,133.0,57.0,70.0,70.0,57.0,133.0,2.1,2.12,-160,-270,0,-267,198,253,419.49833583831787,419.4983768463135,419.5009882450104,419.51241755485535,419.6625211238861,419.6625211238861,419.6625211238861,419.6625211238861,419.6625211238861,419.6625211238861,419.6625211238861,420.83030557632446,1,1.3097245693206787,None,,,,,,,,,,,,,,,,,,72,3,2025-02-21_10h56.42.167,comp,2024.2.4,61.81958067725414,2025-02-21 10h56.50.511119 -0500,
15,15,0,critical,wdh,20.0,4.0,lower,57.0,133.0,78.0,78.0,133.0,57.0,3,1.7760543823242188,None,,,,,0,0,0,0,0,15,15,82,420.84592604637146,,,,,,,,,,,,,,,,,,,,,,,,,,,,,,,,,,,,,,,,,,,,,,,,,,,,,,,,,,,,,,,,,,,,,,,,,,,,,,,,,57.0,133.0,78.0,78.0,133.0,57.0,4.0,4.1,-202,-271,0,-13,164,-266,420.8310923576355,420.8311347961426,420.8334975242615,420.84592604637146,420.9958174228668,420.9958174228668,420.9958174228668,420.9958174228668,420.9958174228668,420.9958174228668,420.9958174228668,422.63017749786377,3,1.7760543823242188,None,,,,,,,,,,,,,,,,,,72,3,2025-02-21_10h56.42.167,comp,2024.2.4,61.81958067725414,2025-02-21 10h56.50.511119 -0500,
16,16,0,catch,None,None,None,None,None,None,None,None,None,None,3,1.2002861499786377,None,,,,,0,0,0,0,0,16,16,129,422.6459002494812,,,,,,,,,,,,,,,,,,,,,,,,,,,,,,,,,,,,,,,,,,,,,,,,,,,,,,,,,,,,,,,,,,,,,,,,,,,,,,,,,68,122,104,86,186,139,4.0,4.2,-200,11,0,-271,208,11,422.6312189102173,422.63126039505005,422.63366627693176,422.6459002494812,422.7958176136017,422.7958176136017,422.7958176136017,422.7958176136017,422.7958176136017,422.7958176136017,422.7958176136017,423.84736919403076,3,1.2002861499786377,None,,,,,,,,,,,,,,,,,,72,3,2025-02-21_10h56.42.167,comp,2024.2.4,61.81958067725414,2025-02-21 10h56.50.511119 -0500,
17,17,0,filler_square,None,None,None,None,None,None,None,None,None,None,2,1.279935598373413,None,,,,,0,0,0,0,0,17,17,202,423.8626549243927,,,,,,,,,,,,,,,,,,,,,,,,,,,,,,,,,,,,,,,,,,,,,,,,,,,,,,,,,,,,,,,,,,,,,,,,,,,,,,,,,138.67088962902926,104.86557239685126,161.5178070623904,161.5178070623904,126.94909858932071,150.32764415841945,4.0,4.2,-229,-12,0,-259,252,13,423.84831142425537,423.84835171699524,423.8507375717163,423.8626549243927,424.0127007961273,424.0127007961273,424.0127007961273,424.0127007961273,424.0127007961273,424.0127007961273,424.0127007961273,425.1473400592804,2,1.279935598373413,None,,,,,,,,,,,,,,,,,,72,3,2025-02-21_10h56.42.167,comp,2024.2.4,61.81958067725414,2025-02-21 10h56.50.511119 -0500,
18,18,0,filler_random,None,None,None,None,None,None,None,None,None,None,3,0.99530029296875,None,,,,,0,0,0,0,0,18,18,139,425.1626486778259,,,,,,,,,,,,,,,,,,,,,,,,,,,,,,,,,,,,,,,,,,,,,,,,,,,,,,,,,,,,,,,,,,,,,,,,,,,,,,,,,194.92495928399703,90.07946295780903,153.9779884109619,58.71367778419421,176.48868522883745,160.72187609991173,3.0,3.2,-170,-285,0,19,206,261,425.1482481956482,425.14828658103943,425.1503071784973,425.1626486778259,425.31260085105896,425.31260085105896,425.31260085105896,425.31260085105896,425.31260085105896,425.31260085105896,425.31260085105896,426.16380071640015,3,0.99530029296875,None,,,,,,,,,,,,,,,,,,72,3,2025-02-21_10h56.42.167,comp,2024.2.4,61.81958067725414,2025-02-21 10h56.50.511119 -0500,
19,19,0,critical,hdw,35.0,2.1,upper,200.0,125.0,127.0,127.0,125.0,200.0,3,1.2180349826812744,None,,,,,0,0,0,0,0,19,19,45,426.17915439605713,,,,,,,,,,,,,,,,,,,,,,,,,,,,,,,,,,,,,,,,,,,,,,,,,,,,,,,,,,,,,,,,,,,,,,,,,,,,,,,,,200.0,125.0,127.0,127.0,125.0,200.0,2.1,2.11,-222,290,0,280,260,-255,426.1645863056183,426.1646270751953,426.16673016548157,426.17915439605713,426.3293135166168,426.3293135166168,426.3293135166168,426.3293135166168,426.3293135166168,426.3293135166168,426.3293135166168,427.4137969017029,3,1.2180349826812744,None,,,,,,,,,,,,,,,,,,72,3,2025-02-21_10h56.42.167,comp,2024.2.4,61.81958067725414,2025-02-21 10h56.50.511119 -0500,
20,20,0,critical,hdw,20.0,2.1,upper,200.0,125.0,141.0,141.0,125.0,200.0,3,1.0416357517242432,None,,,,,0,0,0,0,0,20,20,47,427.429016828537,,,,,,,,,,,,,,,,,,,,,,,,,,,,,,,,,,,,,,,,,,,,,,,,,,,,,,,,,,,,,,,,,,,,,,,,,,,,,,,,,200.0,125.0,141.0,141.0,125.0,200.0,2.1,2.12,-229,-267,0,-265,266,282,427.41462230682373,427.41466307640076,427.41809463500977,427.429016828537,427.5793206691742,427.5793206691742,427.5793206691742,427.5793206691742,427.5793206691742,427.5793206691742,427.5793206691742,428.48058581352234,3,1.0416357517242432,None,,,,,,,,,,,,,,,,,,72,3,2025-02-21_10h56.42.167,comp,2024.2.4,61.81958067725414,2025-02-21 10h56.50.511119 -0500,
21,21,0,critical,whd,35.0,3.0,lower,57.0,133.0,133.0,57.0,70.0,70.0,1,1.909877061843872,None,,,,,0,0,0,0,0,21,21,86,428.49604082107544,,,,,,,,,,,,,,,,,,,,,,,,,,,,,,,,,,,,,,,,,,,,,,,,,,,,,,,,,,,,,,,,,,,,,,,,,,,,,,,,,57.0,133.0,133.0,57.0,70.0,70.0,3.0,3.1,-191,262,0,-15,160,-281,428.481392621994,428.48143315315247,428.48377680778503,428.49604082107544,428.6457350254059,428.6457350254059,428.6457350254059,428.6457350254059,428.6457350254059,428.6457350254059,428.6457350254059,430.4135172367096,1,1.909877061843872,None,,,,,,,,,,,,,,,,,,72,3,2025-02-21_10h56.42.167,comp,2024.2.4,61.81958067725414,2025-02-21 10h56.50.511119 -0500,
22,22,0,critical,dwh,20.0,2.1,lower,78.0,78.0,57.0,133.0,133.0,57.0,1,1.3046307563781738,None,,,,,0,0,0,0,0,22,22,30,430.4291741847992,,,,,,,,,,,,,,,,,,,,,,,,,,,,,,,,,,,,,,,,,,,,,,,,,,,,,,,,,,,,,,,,,,,,,,,,,,,,,,,,,78.0,78.0,57.0,133.0,133.0,57.0,2.1,2.11,-202,272,0,258,191,-255,430.4143395423889,430.4143798351288,430.41679310798645,430.4291741847992,430.57903695106506,430.57903695106506,430.57903695106506,430.57903695106506,430.57903695106506,430.57903695106506,430.57903695106506,431.7467794418335,1,1.3046307563781738,None,,,,,,,,,,,,,,,,,,72,3,2025-02-21_10h56.42.167,comp,2024.2.4,61.81958067725414,2025-02-21 10h56.50.511119 -0500,
23,23,0,catch,None,None,None,None,None,None,None,None,None,None,3,1.0348901748657227,None,,,,,0,0,0,0,0,23,23,126,431.76233172416687,,,,,,,,,,,,,,,,,,,,,,,,,,,,,,,,,,,,,,,,,,,,,,,,,,,,,,,,,,,,,,,,,,,,,,,,,,,,,,,,,118,72,59,131,190,135,1.0,1.1,-678,286,-480,269,-251,250,431.74783539772034,431.74787759780884,431.75044560432434,431.76233172416687,431.9125621318817,431.9125621318817,431.9125621318817,431.9125621318817,431.9125621318817,431.9125621318817,431.9125621318817,432.81382036209106,3,1.0348901748657227,None,,,,,,,,,,,,,,,,,,72,3,2025-02-21_10h56.42.167,comp,2024.2.4,61.81958067725414,2025-02-21 10h56.50.511119 -0500,
24,24,0,filler_random,None,None,None,None,None,None,None,None,None,None,2,1.7046735286712646,None,,,,,0,0,0,0,0,24,24,134,432.82908964157104,,,,,,,,,,,,,,,,,,,,,,,,,,,,,,,,,,,,,,,,,,,,,,,,,,,,,,,,,,,,,,,,,,,,,,,,,,,,,,,,,142.90863521149518,135.06760223601327,175.99218512664999,115.99453983877311,150.1090525953174,87.55374298995731,2.2,2.22,-222,276,0,-266,198,-255,432.81476640701294,432.8148076534271,432.81733894348145,432.82908964157104,432.9791901111603,432.9791901111603,432.9791901111603,432.9791901111603,432.9791901111603,432.9791901111603,432.9791901111603,434.5468966960907,2,1.7046735286712646,None,,,,,,,,,,,,,,,,,,72,3,2025-02-21_10h56.42.167,comp,2024.2.4,61.81958067725414,2025-02-21 10h56.50.511119 -0500,
25,25,0,critical,wdh,35.0,2.1,upper,125.0,200.0,127.0,127.0,200.0,125.0,2,1.171529769897461,None,,,,,0,0,0,0,0,25,25,33,434.562219619751,,,,,,,,,,,,,,,,,,,,,,,,,,,,,,,,,,,,,,,,,,,,,,,,,,,,,,,,,,,,,,,,,,,,,,,,,,,,,,,,,125.0,200.0,127.0,127.0,200.0,125.0,2.1,2.12,-260,-269,0,-288,222,253,434.54771089553833,434.54775071144104,434.5503535270691,434.562219619751,434.7127888202667,434.7127888202667,434.7127888202667,434.7127888202667,434.7127888202667,434.7127888202667,434.7127888202667,435.7469823360443,2,1.171529769897461,None,,,,,,,,,,,,,,,,,,72,3,2025-02-21_10h56.42.167,comp,2024.2.4,61.81958067725414,2025-02-21 10h56.50.511119 -0500,
26,26,0,filler_square,None,None,None,None,None,None,None,None,None,None,1,1.6839518547058105,None,,,,,0,0,0,0,0,26,26,200,435.7622961997986,,,,,,,,,,,,,,,,,,,,,,,,,,,,,,,,,,,,,,,,,,,,,,,,,,,,,,,,,,,,,,,,,,,,,,,,,,,,,,,,,199.37679732772148,199.37679732772148,178.06868067653932,176.15128775000778,87.63452618034678,120.26205638204104,1.0,1.1,-764,281,-480,278,-236,262,435.74795937538147,435.74799966812134,435.75057768821716,435.7622961997986,435.91273164749146,435.91273164749146,435.91273164749146,435.91273164749146,435.91273164749146,435.91273164749146,435.91273164749146,437.46383905410767,1,1.6839518547058105,None,,,,,,,,,,,,,,,,,,72,3,2025-02-21_10h56.42.167,comp,2024.2.4,61.81958067725414,2025-02-21 10h56.50.511119 -0500,
27,27,0,filler_square,None,None,None,None,None,None,None,None,None,None,2,1.0701196193695068,None,,,,,0,0,0,0,0,27,27,185,437.47906732559204,,,,,,,,,,,,,,,,,,,,,,,,,,,,,,,,,,,,,,,,,,,,,,,,,,,,,,,,,,,,,,,,,,,,,,,,,,,,,,,,,81.96925538428962,76.81622726063196,159.83116127517383,159.83116127517383,80.62441380777916,68.24871064696183,1.0,1.1,-694,267,-480,269,-270,268,437.464821100235,437.46486353874207,437.46737027168274,437.47906732559204,437.6290969848633,437.6290969848633,437.6290969848633,437.6290969848633,437.6290969848633,437.6290969848633,437.6290969848633,438.5634572505951,2,1.0701196193695068,None,,,,,,,,,,,,,,,,,,72,3,2025-02-21_10h56.42.167,comp,2024.2.4,61.81958067725414,2025-02-21 10h56.50.511119 -0500,
28,28,0,filler_random,None,None,None,None,None,None,None,None,None,None,2,1.100440263748169,None,,,,,0,0,0,0,0,28,28,156,438.5788872241974,,,,,,,,,,,,,,,,,,,,,,,,,,,,,,,,,,,,,,,,,,,,,,,,,,,,,,,,,,,,,,,,,,,,,,,,,,,,,,,,,95.30219984382832,81.90657800880436,146.01600661257976,134.33461375673215,103.99935743668308,63.805687456671905,1.0,1.3,276,-288,480,-263,675,-255,438.56438541412354,438.5644254684448,438.56687593460083,438.5788872241974,438.72913217544556,438.72913217544556,438.72913217544556,438.72913217544556,438.72913217544556,438.72913217544556,438.72913217544556,439.6970055103302,2,1.100440263748169,None,,,,,,,,,,,,,,,,,,72,3,2025-02-21_10h56.42.167,comp,2024.2.4,61.81958067725414,2025-02-21 10h56.50.511119 -0500,
29,29,0,filler_random,None,None,None,None,None,None,None,None,None,None,2,0.9505200386047363,None,,,,,0,0,0,0,0,29,29,168,439.7123579978943,,,,,,,,,,,,,,,,,,,,,,,,,,,,,,,,,,,,,,,,,,,,,,,,,,,,,,,,,,,,,,,,,,,,,,,,,,,,,,,,,103.68827651932803,197.52926629462786,195.02484616373906,191.50912000361467,120.54067767913129,168.19085309459922,4.0,4.1,-291,-269,0,19,276,-276,439.69794750213623,439.69798946380615,439.7000980377197,439.7123579978943,439.86256527900696,439.86256527900696,439.86256527900696,439.86256527900696,439.86256527900696,439.86256527900696,439.86256527900696,440.68030977249146,2,0.9505200386047363,None,,,,,,,,,,,,,,,,,,72,3,2025-02-21_10h56.42.167,comp,2024.2.4,61.81958067725414,2025-02-21 10h56.50.511119 -0500,
30,30,0,filler_random,None,None,None,None,None,None,None,None,None,None,1,1.6474099159240723,None,,,,,0,0,0,0,0,30,30,163,440.69555711746216,,,,,,,,,,,,,,,,,,,,,,,,,,,,,,,,,,,,,,,,,,,,,,,,,,,,,,,,,,,,,,,,,,,,,,,,,,,,,,,,,125.68553507100835,188.65908187503976,100.62794206794997,111.54470397630983,116.31324413344416,163.48913711160634,3.0,3.1,-246,260,0,-14,234,-256,440.6812288761139,440.68127059936523,440.68364000320435,440.69555711746216,440.8458721637726,440.8458721637726,440.8458721637726,440.8458721637726,440.8458721637726,440.8458721637726,440.8458721637726,442.34716272354126,1,1.6474099159240723,None,,,,,,,,,,,,,,,,,,72,3,2025-02-21_10h56.42.167,comp,2024.2.4,61.81958067725414,2025-02-21 10h56.50.511119 -0500,
31,31,0,critical,hdw,20.0,3.0,lower,133.0,57.0,78.0,78.0,57.0,133.0,1,1.9546949863433838,None,,,,,0,0,0,0,0,31,31,116,442.36252331733704,,,,,,,,,,,,,,,,,,,,,,,,,,,,,,,,,,,,,,,,,,,,,,,,,,,,,,,,,,,,,,,,,,,,,,,,,,,,,,,,,133.0,57.0,78.0,78.0,57.0,133.0,3.0,3.2,-164,-271,0,-1,202,289,442.3479347229004,442.34797501564026,442.35010266304016,442.36252331733704,442.51238203048706,442.51238203048706,442.51238203048706,442.51238203048706,442.51238203048706,442.51238203048706,442.51238203048706,444.3302626609802,1,1.9546949863433838,None,,,,,,,,,,,,,,,,,,72,3,2025-02-21_10h56.42.167,comp,2024.2.4,61.81958067725414,2025-02-21 10h56.50.511119 -0500,
32,32,0,filler_random,None,None,None,None,None,None,None,None,None,None,2,1.4842076301574707,None,,,,,0,0,0,0,0,32,32,164,444.34560227394104,,,,,,,,,,,,,,,,,,,,,,,,,,,,,,,,,,,,,,,,,,,,,,,,,,,,,,,,,,,,,,,,,,,,,,,,,,,,,,,,,76.17679854963218,120.14333749464612,57.19429464764566,63.5953239030517,126.26387593117383,66.38907050271871,4.0,4.2,-188,-14,0,-288,161,-9,444.3311655521393,444.33120608329773,444.3335874080658,444.34560227394104,444.4956865310669,444.4956865310669,444.4956865310669,444.4956865310669,444.4956865310669,444.4956865310669,444.4956865310669,445.8469214439392,2,1.4842076301574707,None,,,,,,,,,,,,,,,,,,72,3,2025-02-21_10h56.42.167,comp,2024.2.4,61.81958067725414,2025-02-21 10h56.50.511119 -0500,
33,33,0,critical,wdh,35.0,4.0,lower,57.0,133.0,70.0,70.0,133.0,57.0,2,1.6332542896270752,None,,,,,0,0,0,0,0,33,33,76,445.8622679710388,,,,,,,,,,,,,,,,,,,,,,,,,,,,,,,,,,,,,,,,,,,,,,,,,,,,,,,,,,,,,,,,,,,,,,,,,,,,,,,,,57.0,133.0,70.0,70.0,133.0,57.0,4.0,4.2,-198,6,0,-284,160,13,445.84773087501526,445.847772359848,445.84988379478455,445.8622679710388,446.0123088359833,446.0123088359833,446.0123088359833,446.0123088359833,446.0123088359833,446.0123088359833,446.0123088359833,447.497017621994,2,1.6332542896270752,None,,,,,,,,,,,,,,,,,,72,3,2025-02-21_10h56.42.167,comp,2024.2.4,61.81958067725414,2025-02-21 10h56.50.511119 -0500,
34,34,0,critical,wdh,20.0,1.0,upper,125.0,200.0,141.0,141.0,200.0,125.0,3,2.0297670364379883,None,,,,,0,0,0,0,0,34,34,79,447.512446641922,,,,,,,,,,,,,,,,,,,,,,,,,,,,,,,,,,,,,,,,,,,,,,,,,,,,,,,,,,,,,,,,,,,,,,,,,,,,,,,,,125.0,200.0,141.0,141.0,200.0,125.0,1.0,1.2,-266,11,0,-17,229,1,447.49775886535645,447.49779772758484,447.50023078918457,447.512446641922,447.6626958847046,447.6626958847046,447.6626958847046,447.6626958847046,447.6626958847046,447.6626958847046,447.6626958847046,449.5469934940338,3,2.0297670364379883,None,,,,,,,,,,,,,,,,,,72,3,2025-02-21_10h56.42.167,comp,2024.2.4,61.81958067725414,2025-02-21 10h56.50.511119 -0500,
35,35,0,critical,hwd,20.0,4.0,upper,200.0,125.0,125.0,200.0,141.0,141.0,2,2.027282476425171,None,,,,,0,0,0,0,0,35,35,107,449.56247305870056,,,,,,,,,,,,,,,,,,,,,,,,,,,,,,,,,,,,,,,,,,,,,,,,,,,,,,,,,,,,,,,,,,,,,,,,,,,,,,,,,200.0,125.0,125.0,200.0,141.0,141.0,4.0,4.2,-258,6,0,-250,266,-18,449.54776668548584,449.54780554771423,449.54990911483765,449.56247305870056,449.71246814727783,449.71246814727783,449.71246814727783,449.71246814727783,449.71246814727783,449.71246814727783,449.71246814727783,451.5969166755676,2,2.027282476425171,None,,,,,,,,,,,,,,,,,,72,3,2025-02-21_10h56.42.167,comp,2024.2.4,61.81958067725414,2025-02-21 10h56.50.511119 -0500,
36,36,0,critical,hwd,35.0,2.1,lower,133.0,57.0,57.0,133.0,70.0,70.0,2,1.2256760597229004,None,,,,,0,0,0,0,0,36,36,40,451.6123881340027,,,,,,,,,,,,,,,,,,,,,,,,,,,,,,,,,,,,,,,,,,,,,,,,,,,,,,,,,,,,,,,,,,,,,,,,,,,,,,,,,133.0,57.0,57.0,133.0,70.0,70.0,2.1,2.11,-191,266,0,258,198,-281,451.5977246761322,451.5977635383606,451.60041332244873,451.6123881340027,451.762393951416,451.762393951416,451.762393951416,451.762393951416,451.762393951416,451.762393951416,451.762393951416,452.8468520641327,2,1.2256760597229004,None,,,,,,,,,,,,,,,,,,72,3,2025-02-21_10h56.42.167,comp,2024.2.4,61.81958067725414,2025-02-21 10h56.50.511119 -0500,
37,37,0,filler_square,None,None,None,None,None,None,None,None,None,None,3,2.2077879905700684,None,,,,,0,0,0,0,0,37,37,198,452.8624439239502,,,,,,,,,,,,,,,,,,,,,,,,,,,,,,,,,,,,,,,,,,,,,,,,,,,,,,,,,,,,,,,,,,,,,,,,,,,,,,,,,58.257777890539245,63.52318691685418,81.22786476404775,61.507442775857676,97.5351187217054,97.5351187217054,2.2,2.22,-159,273,0,-279,176,-276,452.84781670570374,452.8478579521179,452.85027503967285,452.8624439239502,453.0122482776642,453.0122482776642,453.0122482776642,453.0122482776642,453.0122482776642,453.0122482776642,453.0122482776642,455.0800302028656,3,2.2077879905700684,None,,,,,,,,,,,,,,,,,,72,3,2025-02-21_10h56.42.167,comp,2024.2.4,61.81958067725414,2025-02-21 10h56.50.511119 -0500,
38,38,0,filler_square,None,None,None,None,None,None,None,None,None,None,2,2.2630012035369873,None,,,,,0,0,0,0,0,38,38,179,455.0956723690033,,,,,,,,,,,,,,,,,,,,,,,,,,,,,,,,,,,,,,,,,,,,,,,,,,,,,,,,,,,,,,,,,,,,,,,,,,,,,,,,,82.98602863389516,78.99740933846341,91.95492773369546,91.95492773369546,75.16425601071074,90.76248798178962,4.0,4.1,-181,-290,0,-1,187,-266,455.08098793029785,455.0810298919678,455.0833864212036,455.0956723690033,455.2456398010254,455.2456398010254,455.2456398010254,455.2456398010254,455.2456398010254,455.2456398010254,455.2456398010254,457.3634192943573,2,2.2630012035369873,None,,,,,,,,,,,,,,,,,,72,3,2025-02-21_10h56.42.167,comp,2024.2.4,61.81958067725414,2025-02-21 10h56.50.511119 -0500,
39,39,0,filler_random,None,None,None,None,None,None,None,None,None,None,2,1.3545620441436768,None,,,,,0,0,0,0,0,39,39,149,457.37911772727966,,,,,,,,,,,,,,,,,,,,,,,,,,,,,,,,,,,,,,,,,,,,,,,,,,,,,,,,,,,,,,,,,,,,,,,,,,,,,,,,,72.8356337903025,63.47732174915491,110.3389565430374,162.9446502008964,92.02169161916208,89.37381330495711,3.0,3.2,-209,-284,0,0,222,267,457.3643617630005,457.3644025325775,457.36703515052795,457.37911772727966,457.5290722846985,457.5290722846985,457.5290722846985,457.5290722846985,457.5290722846985,457.5290722846985,457.5290722846985,458.7468419075012,2,1.3545620441436768,None,,,,,,,,,,,,,,,,,,72,3,2025-02-21_10h56.42.167,comp,2024.2.4,61.81958067725414,2025-02-21 10h56.50.511119 -0500,
40,40,0,filler_random,None,None,None,None,None,None,None,None,None,None,1,1.3387691974639893,None,,,,,0,0,0,0,0,40,40,137,458.7620952129364,,,,,,,,,,,,,,,,,,,,,,,,,,,,,,,,,,,,,,,,,,,,,,,,,,,,,,,,,,,,,,,,,,,,,,,,,,,,,,,,,151.85356503170073,182.51979871057245,192.13136173257442,104.69246806141054,193.89676913865222,77.51780591225113,2.2,2.22,-240,260,0,-267,187,-262,458.74776005744934,458.7478013038635,458.7503192424774,458.7620952129364,458.912442445755,458.912442445755,458.912442445755,458.912442445755,458.912442445755,458.912442445755,458.912442445755,460.1137046813965,1,1.3387691974639893,None,,,,,,,,,,,,,,,,,,72,3,2025-02-21_10h56.42.167,comp,2024.2.4,61.81958067725414,2025-02-21 10h56.50.511119 -0500,
41,41,0,critical,whd,35.0,2.1,lower,57.0,133.0,133.0,57.0,70.0,70.0,1,1.9337904453277588,None,,,,,0,0,0,0,0,41,41,12,460.1287968158722,,,,,,,,,,,,,,,,,,,,,,,,,,,,,,,,,,,,,,,,,,,,,,,,,,,,,,,,,,,,,,,,,,,,,,,,,,,,,,,,,57.0,133.0,133.0,57.0,70.0,70.0,2.1,2.12,-191,-262,0,-267,160,283,460.11447167396545,460.1145098209381,460.116956949234,460.1287968158722,460.278990983963,460.278990983963,460.278990983963,460.278990983963,460.278990983963,460.278990983963,460.278990983963,462.0800926685333,1,1.9337904453277588,None,,,,,,,,,,,,,,,,,,72,3,2025-02-21_10h56.42.167,comp,2024.2.4,61.81958067725414,2025-02-21 10h56.50.511119 -0500,
42,42,0,critical,wdh,35.0,2.1,lower,57.0,133.0,70.0,70.0,133.0,57.0,1,0.9670238494873047,None,,,,,0,0,0,0,0,42,42,8,462.095499753952,,,,,,,,,,,,,,,,,,,,,,,,,,,,,,,,,,,,,,,,,,,,,,,,,,,,,,,,,,,,,,,,,,,,,,,,,,,,,,,,,57.0,133.0,70.0,70.0,133.0,57.0,2.1,2.11,-198,256,0,253,160,-284,462.08088517189026,462.08092522621155,462.0829734802246,462.095499753952,462.2455348968506,462.2455348968506,462.2455348968506,462.2455348968506,462.2455348968506,462.2455348968506,462.2455348968506,463.08010149002075,1,0.9670238494873047,None,,,,,,,,,,,,,,,,,,72,3,2025-02-21_10h56.42.167,comp,2024.2.4,61.81958067725414,2025-02-21 10h56.50.511119 -0500,
43,43,0,critical,dhw,20.0,3.0,lower,78.0,78.0,133.0,57.0,57.0,133.0,2,1.7587413787841797,None,,,,,0,0,0,0,0,43,43,56,463.09533405303955,,,,,,,,,,,,,,,,,,,,,,,,,,,,,,,,,,,,,,,,,,,,,,,,,,,,,,,,,,,,,,,,,,,,,,,,,,,,,,,,,78.0,78.0,133.0,57.0,57.0,133.0,3.0,3.1,-164,274,0,-9,191,-280,463.0808846950531,463.0809268951416,463.08326268196106,463.09533405303955,463.24555110931396,463.24555110931396,463.24555110931396,463.24555110931396,463.24555110931396,463.24555110931396,463.24555110931396,464.863481760025,2,1.7587413787841797,None,,,,,,,,,,,,,,,,,,72,3,2025-02-21_10h56.42.167,comp,2024.2.4,61.81958067725414,2025-02-21 10h56.50.511119 -0500,
44,44,0,critical,dwh,35.0,3.0,lower,70.0,70.0,57.0,133.0,133.0,57.0,2,1.1912720203399658,None,,,,,0,0,0,0,0,44,44,62,464.8790936470032,,,,,,,,,,,,,,,,,,,,,,,,,,,,,,,,,,,,,,,,,,,,,,,,,,,,,,,,,,,,,,,,,,,,,,,,,,,,,,,,,70.0,70.0,57.0,133.0,133.0,57.0,3.0,3.1,-198,257,0,-10,191,-262,464.8642723560333,464.86431312561035,464.86674547195435,464.8790936470032,465.02905106544495,465.02905106544495,465.02905106544495,465.02905106544495,465.02905106544495,465.02905106544495,465.02905106544495,466.07998871803284,2,1.1912720203399658,None,,,,,,,,,,,,,,,,,,72,3,2025-02-21_10h56.42.167,comp,2024.2.4,61.81958067725414,2025-02-21 10h56.50.511119 -0500,
45,45,0,filler_random,None,None,None,None,None,None,None,None,None,None,2,1.5891544818878174,None,,,,,0,0,0,0,0,45,45,158,466.09566164016724,,,,,,,,,,,,,,,,,,,,,,,,,,,,,,,,,,,,,,,,,,,,,,,,,,,,,,,,,,,,,,,,,,,,,,,,,,,,,,,,,81.85892872710788,103.60766499122099,130.61891398249162,113.83087843822915,112.9136497014141,139.7923146887201,1.0,1.2,-205,19,0,-5,223,10,466.08086800575256,466.08090806007385,466.08348512649536,466.09566164016724,466.245680809021,466.245680809021,466.245680809021,466.245680809021,466.245680809021,466.245680809021,466.245680809021,467.69703102111816,2,1.5891544818878174,None,,,,,,,,,,,,,,,,,,72,3,2025-02-21_10h56.42.167,comp,2024.2.4,61.81958067725414,2025-02-21 10h56.50.511119 -0500,
46,46,0,filler_random,None,None,None,None,None,None,None,None,None,None,2,1.5669503211975098,None,,,,,0,0,0,0,0,46,46,150,467.71202850341797,,,,,,,,,,,,,,,,,,,,,,,,,,,,,,,,,,,,,,,,,,,,,,,,,,,,,,,,,,,,,,,,,,,,,,,,,,,,,,,,,122.31000091872343,84.5539846435028,99.66909914478197,182.15025538176582,60.87129627320983,62.52602880039729,3.0,3.2,-229,-265,0,-20,218,270,467.6979522705078,467.69799399375916,467.700074672699,467.71202850341797,467.8623809814453,467.8623809814453,467.8623809814453,467.8623809814453,467.8623809814453,467.8623809814453,467.8623809814453,469.28019738197327,2,1.5669503211975098,None,,,,,,,,,,,,,,,,,,72,3,2025-02-21_10h56.42.167,comp,2024.2.4,61.81958067725414,2025-02-21 10h56.50.511119 -0500,
47,47,0,critical,wdh,20.0,3.0,lower,57.0,133.0,78.0,78.0,133.0,57.0,1,2.1012871265411377,None,,,,,0,0,0,0,0,47,47,80,469.29566526412964,,,,,,,,,,,,,,,,,,,,,,,,,,,,,,,,,,,,,,,,,,,,,,,,,,,,,,,,,,,,,,,,,,,,,,,,,,,,,,,,,57.0,133.0,78.0,78.0,133.0,57.0,3.0,3.1,-202,279,0,-16,164,-282,469.28097772598267,469.281019449234,469.28363728523254,469.29566526412964,469.4455997943878,469.4455997943878,469.4455997943878,469.4455997943878,469.4455997943878,469.4455997943878,469.4455997943878,471.41326689720154,1,2.1012871265411377,None,,,,,,,,,,,,,,,,,,72,3,2025-02-21_10h56.42.167,comp,2024.2.4,61.81958067725414,2025-02-21 10h56.50.511119 -0500,
48,48,0,critical,hwd,20.0,3.0,upper,200.0,125.0,125.0,200.0,141.0,141.0,2,1.9134912490844727,None,,,,,0,0,0,0,0,48,48,105,471.42865443229675,,,,,,,,,,,,,,,,,,,,,,,,,,,,,,,,,,,,,,,,,,,,,,,,,,,,,,,,,,,,,,,,,,,,,,,,,,,,,,,,,200.0,125.0,125.0,200.0,141.0,141.0,3.0,3.1,-258,253,0,-15,266,-252,471.41408705711365,471.4141273498535,471.4165186882019,471.42865443229675,471.579053401947,471.579053401947,471.579053401947,471.579053401947,471.579053401947,471.579053401947,471.579053401947,473.34691762924194,2,1.9134912490844727,None,,,,,,,,,,,,,,,,,,72,3,2025-02-21_10h56.42.167,comp,2024.2.4,61.81958067725414,2025-02-21 10h56.50.511119 -0500,
49,49,0,filler_square,None,None,None,None,None,None,None,None,None,None,2,0.8113868236541748,None,,,,,0,0,0,0,0,49,49,192,473.36225271224976,,,,,,,,,,,,,,,,,,,,,,,,,,,,,,,,,,,,,,,,,,,,,,,,,,,,,,,,,,,,,,,,,,,,,,,,,,,,,,,,,104.29525886508053,103.27494092529885,139.99791650825819,139.99791650825819,90.01422678833656,105.26606573359655,2.1,2.11,-218,264,0,256,219,-271,473.347864151001,473.3479037284851,473.3501121997833,473.36225271224976,473.51222372055054,473.51222372055054,473.51222372055054,473.51222372055054,473.51222372055054,473.51222372055054,473.51222372055054,474.1800231933594,2,0.8113868236541748,None,,,,,,,,,,,,,,,,,,72,3,2025-02-21_10h56.42.167,comp,2024.2.4,61.81958067725414,2025-02-21 10h56.50.511119 -0500,
50,50,0,filler_square,None,None,None,None,None,None,None,None,None,None,3,1.1469395160675049,None,,,,,0,0,0,0,0,50,50,199,474.195613861084,,,,,,,,,,,,,,,,,,,,,,,,,,,,,,,,,,,,,,,,,,,,,,,,,,,,,,,,,,,,,,,,,,,,,,,,,,,,,,,,,93.41622217476211,69.32530203497112,119.20837416301185,139.94799154990307,148.12128020249372,148.12128020249372,2.1,2.11,-201,278,0,279,240,-250,474.18099761009216,474.18103671073914,474.1834189891815,474.195613861084,474.34559297561646,474.34559297561646,474.34559297561646,474.34559297561646,474.34559297561646,474.34559297561646,474.34559297561646,475.3468837738037,3,1.1469395160675049,None,,,,,,,,,,,,,,,,,,72,3,2025-02-21_10h56.42.167,comp,2024.2.4,61.81958067725414,2025-02-21 10h56.50.511119 -0500,
51,51,0,critical,dhw,35.0,2.1,lower,70.0,70.0,133.0,57.0,57.0,133.0,2,1.5332119464874268,None,,,,,0,0,0,0,0,51,51,0,475.3621208667755,,,,,,,,,,,,,,,,,,,,,,,,,,,,,,,,,,,,,,,,,,,,,,,,,,,,,,,,,,,,,,,,,,,,,,,,,,,,,,,,,70.0,70.0,133.0,57.0,57.0,133.0,2.1,2.12,-160,-277,0,-279,191,284,475.3476679325104,475.3477101325989,475.35027503967285,475.3621208667755,475.512127161026,475.512127161026,475.512127161026,475.512127161026,475.512127161026,475.512127161026,475.512127161026,476.89680099487305,2,1.5332119464874268,None,,,,,,,,,,,,,,,,,,72,3,2025-02-21_10h56.42.167,comp,2024.2.4,61.81958067725414,2025-02-21 10h56.50.511119 -0500,
52,52,0,critical,whd,35.0,2.1,upper,125.0,200.0,200.0,125.0,127.0,127.0,1,2.621304750442505,None,,,,,0,0,0,0,0,52,52,37,476.9122440814972,,,,,,,,,,,,,,,,,,,,,,,,,,,,,,,,,,,,,,,,,,,,,,,,,,,,,,,,,,,,,,,,,,,,,,,,,,,,,,,,,125.0,200.0,200.0,125.0,127.0,127.0,2.1,2.12,-258,-251,0,-258,222,250,476.8975851535797,476.8976240158081,476.90002846717834,476.9122440814972,477.0622489452362,477.0622489452362,477.0622489452362,477.0622489452362,477.0622489452362,477.0622489452362,477.0622489452362,479.5468485355377,1,2.621304750442505,None,,,,,,,,,,,,,,,,,,72,3,2025-02-21_10h56.42.167,comp,2024.2.4,61.81958067725414,2025-02-21 10h56.50.511119 -0500,
53,53,0,critical,hdw,35.0,3.0,upper,200.0,125.0,127.0,127.0,125.0,200.0,3,3.5005974769592285,None,,,,,0,0,0,0,0,53,53,111,479.5618586540222,,,,,,,,,,,,,,,,,,,,,,,,,,,,,,,,,,,,,,,,,,,,,,,,,,,,,,,,,,,,,,,,,,,,,,,,,,,,,,,,,200.0,125.0,127.0,127.0,125.0,200.0,3.0,3.1,-222,268,0,-3,260,-283,479.5476670265198,479.5477068424225,479.5501880645752,479.5618586540222,479.71230006217957,479.71230006217957,479.71230006217957,479.71230006217957,479.71230006217957,479.71230006217957,479.71230006217957,483.0800778865814,3,3.5005974769592285,None,,,,,,,,,,,,,,,,,,72,3,2025-02-21_10h56.42.167,comp,2024.2.4,61.81958067725414,2025-02-21 10h56.50.511119 -0500,
54,54,0,catch,None,None,None,None,None,None,None,None,None,None,3,1.1746842861175537,None,,,,,0,0,0,0,0,54,54,120,483.09528136253357,,,,,,,,,,,,,,,,,,,,,,,,,,,,,,,,,,,,,,,,,,,,,,,,,,,,,,,,,,,,,,,,,,,,,,,,,,,,,,,,,102,88,182,143,65,125,2.1,2.11,-212,281,0,260,230,-272,483.0811285972595,483.08116936683655,483.0833261013031,483.09528136253357,483.2455265522003,483.2455265522003,483.2455265522003,483.2455265522003,483.2455265522003,483.2455265522003,483.2455265522003,484.27996611595154,3,1.1746842861175537,None,,,,,,,,,,,,,,,,,,72,3,2025-02-21_10h56.42.167,comp,2024.2.4,61.81958067725414,2025-02-21 10h56.50.511119 -0500,
55,55,0,filler_square,None,None,None,None,None,None,None,None,None,None,2,1.2534980773925781,None,,,,,0,0,0,0,0,55,55,205,484.2954685688019,,,,,,,,,,,,,,,,,,,,,,,,,,,,,,,,,,,,,,,,,,,,,,,,,,,,,,,,,,,,,,,,,,,,,,,,,,,,,,,,,80.5710075598202,108.08156084129254,111.57240261474946,111.57240261474946,61.14663681416503,68.95046875043109,1.0,1.1,-686,254,-480,261,-294,262,484.2808895111084,484.28092789649963,484.28318071365356,484.2954685688019,484.44536232948303,484.44536232948303,484.44536232948303,484.44536232948303,484.44536232948303,484.44536232948303,484.44536232948303,485.56332778930664,2,1.2534980773925781,None,,,,,,,,,,,,,,,,,,72,3,2025-02-21_10h56.42.167,comp,2024.2.4,61.81958067725414,2025-02-21 10h56.50.511119 -0500,
56,56,0,filler_square,None,None,None,None,None,None,None,None,None,None,1,1.1059050559997559,None,,,,,0,0,0,0,0,56,56,180,485.5786919593811,,,,,,,,,,,,,,,,,,,,,,,,,,,,,,,,,,,,,,,,,,,,,,,,,,,,,,,,,,,,,,,,,,,,,,,,,,,,,,,,,146.3881563472587,146.3881563472587,71.21107667960317,86.39173530732106,89.85997970438726,143.5639138595055,2.2,2.22,-212,272,0,-287,211,-269,485.5643107891083,485.56435084342957,485.5667128562927,485.5786919593811,485.72881865501404,485.72881865501404,485.72881865501404,485.72881865501404,485.72881865501404,485.72881865501404,485.72881865501404,486.69681429862976,1,1.1059050559997559,None,,,,,,,,,,,,,,,,,,72,3,2025-02-21_10h56.42.167,comp,2024.2.4,61.81958067725414,2025-02-21 10h56.50.511119 -0500,
57,57,0,filler_square,None,None,None,None,None,None,None,None,None,None,2,1.069638967514038,None,,,,,0,0,0,0,0,57,57,170,486.71196937561035,,,,,,,,,,,,,,,,,,,,,,,,,,,,,,,,,,,,,,,,,,,,,,,,,,,,,,,,,,,,,,,,,,,,,,,,,,,,,,,,,82.17936350490838,80.4999872899603,87.6929935808355,87.6929935808355,68.53238680522367,57.38649639293798,3.0,3.1,-180,278,0,12,169,-273,486.6978368759155,486.6978795528412,486.7005543708801,486.71196937561035,486.8619453907013,486.8619453907013,486.8619453907013,486.8619453907013,486.8619453907013,486.8619453907013,486.8619453907013,487.7964463233948,2,1.069638967514038,None,,,,,,,,,,,,,,,,,,72,3,2025-02-21_10h56.42.167,comp,2024.2.4,61.81958067725414,2025-02-21 10h56.50.511119 -0500,
58,58,0,filler_square,None,None,None,None,None,None,None,None,None,None,3,1.3687787055969238,None,,,,,0,0,0,0,0,58,58,182,487.81200313568115,,,,,,,,,,,,,,,,,,,,,,,,,,,,,,,,,,,,,,,,,,,,,,,,,,,,,,,,,,,,,,,,,,,,,,,,,,,,,,,,,82.09882122957055,57.021803990475654,82.25292775984532,58.00178042028682,103.39670424761773,103.39670424761773,1.0,1.1,-634,265,-480,261,-303,272,487.7973737716675,487.79741311073303,487.7998628616333,487.81200313568115,487.962087392807,487.962087392807,487.962087392807,487.962087392807,487.962087392807,487.962087392807,487.962087392807,489.1964418888092,3,1.3687787055969238,None,,,,,,,,,,,,,,,,,,72,3,2025-02-21_10h56.42.167,comp,2024.2.4,61.81958067725414,2025-02-21 10h56.50.511119 -0500,
59,59,0,critical,dwh,20.0,1.0,upper,141.0,141.0,125.0,200.0,200.0,125.0,2,1.5935132503509521,None,,,,,0,0,0,0,0,59,59,67,489.2119801044464,,,,,,,,,,,,,,,,,,,,,,,,,,,,,,,,,,,,,,,,,,,,,,,,,,,,,,,,,,,,,,,,,,,,,,,,,,,,,,,,,141.0,141.0,125.0,200.0,200.0,125.0,1.0,1.3,214,-289,480,-258,738,-280,489.19723892211914,489.19727849960327,489.199786901474,489.2119801044464,489.36230754852295,489.36230754852295,489.36230754852295,489.36230754852295,489.36230754852295,489.36230754852295,489.36230754852295,490.81339502334595,2,1.5935132503509521,None,,,,,,,,,,,,,,,,,,72,3,2025-02-21_10h56.42.167,comp,2024.2.4,61.81958067725414,2025-02-21 10h56.50.511119 -0500,
60,60,0,critical,whd,35.0,2.1,lower,57.0,133.0,133.0,57.0,70.0,70.0,2,1.8088467121124268,None,,,,,0,0,0,0,0,60,60,36,490.8288698196411,,,,,,,,,,,,,,,,,,,,,,,,,,,,,,,,,,,,,,,,,,,,,,,,,,,,,,,,,,,,,,,,,,,,,,,,,,,,,,,,,57.0,133.0,133.0,57.0,70.0,70.0,2.1,2.12,-191,-255,0,-279,160,251,490.81421852111816,490.8142602443695,490.816365480423,490.8288698196411,490.97867918014526,490.97867918014526,490.97867918014526,490.97867918014526,490.97867918014526,490.97867918014526,490.97867918014526,492.64635157585144,2,1.8088467121124268,None,,,,,,,,,,,,,,,,,,72,3,2025-02-21_10h56.42.167,comp,2024.2.4,61.81958067725414,2025-02-21 10h56.50.511119 -0500,
61,61,0,critical,hwd,35.0,3.0,lower,133.0,57.0,57.0,133.0,70.0,70.0,2,2.383518695831299,None,,,,,0,0,0,0,0,61,61,98,492.6621804237366,,,,,,,,,,,,,,,,,,,,,,,,,,,,,,,,,,,,,,,,,,,,,,,,,,,,,,,,,,,,,,,,,,,,,,,,,,,,,,,,,133.0,57.0,57.0,133.0,70.0,70.0,3.0,3.2,-191,-263,0,8,198,254,492.6471538543701,492.6471939086914,492.6493592262268,492.6621804237366,492.81200647354126,492.81200647354126,492.81200647354126,492.81200647354126,492.81200647354126,492.81200647354126,492.81200647354126,495.0632109642029,2,2.383518695831299,None,,,,,,,,,,,,,,,,,,72,3,2025-02-21_10h56.42.167,comp,2024.2.4,61.81958067725414,2025-02-21 10h56.50.511119 -0500,
62,62,0,filler_random,None,None,None,None,None,None,None,None,None,None,2,1.102219820022583,None,,,,,0,0,0,0,0,62,62,154,495.07859802246094,,,,,,,,,,,,,,,,,,,,,,,,,,,,,,,,,,,,,,,,,,,,,,,,,,,,,,,,,,,,,,,,,,,,,,,,,,,,,,,,,183.033053768247,66.44608370767736,173.1125112974376,126.57595885457592,158.00165362683862,69.7015866872564,2.2,2.21,-193,-281,0,256,194,277,495.0641391277313,495.06418085098267,495.066547870636,495.07859802246094,495.2287986278534,495.2287986278534,495.2287986278534,495.2287986278534,495.2287986278534,495.2287986278534,495.2287986278534,496.19649720191956,2,1.102219820022583,None,,,,,,,,,,,,,,,,,,72,3,2025-02-21_10h56.42.167,comp,2024.2.4,61.81958067725414,2025-02-21 10h56.50.511119 -0500,
63,63,0,filler_square,None,None,None,None,None,None,None,None,None,None,2,1.1304490566253662,None,,,,,0,0,0,0,0,63,63,194,496.21186661720276,,,,,,,,,,,,,,,,,,,,,,,,,,,,,,,,,,,,,,,,,,,,,,,,,,,,,,,,,,,,,,,,,,,,,,,,,,,,,,,,,67.44625285824976,70.90615775264811,71.33619042565616,71.33619042565616,67.19692153955064,65.97909657525297,2.1,2.12,-167,-254,0,-257,165,286,496.19747972488403,496.1975202560425,496.1999773979187,496.21186661720276,496.36203694343567,496.36203694343567,496.36203694343567,496.36203694343567,496.36203694343567,496.36203694343567,496.36203694343567,497.34644865989685,2,1.1304490566253662,None,,,,,,,,,,,,,,,,,,72,3,2025-02-21_10h56.42.167,comp,2024.2.4,61.81958067725414,2025-02-21 10h56.50.511119 -0500,
64,64,0,filler_random,None,None,None,None,None,None,None,None,None,None,2,1.1333205699920654,None,,,,,0,0,0,0,0,64,64,153,497.36218094825745,,,,,,,,,,,,,,,,,,,,,,,,,,,,,,,,,,,,,,,,,,,,,,,,,,,,,,,,,,,,,,,,,,,,,,,,,,,,,,,,,59.65346508874611,94.69907190717302,151.23607374779067,123.78149571588665,171.18965802548414,91.18026343227675,3.0,3.1,-205,283,0,8,203,-286,497.34737038612366,497.3474118709564,497.3495192527771,497.36218094825745,497.5123908519745,497.5123908519745,497.5123908519745,497.5123908519745,497.5123908519745,497.5123908519745,497.5123908519745,498.4967625141144,2,1.1333205699920654,None,,,,,,,,,,,,,,,,,,72,3,2025-02-21_10h56.42.167,comp,2024.2.4,61.81958067725414,2025-02-21 10h56.50.511119 -0500,
65,65,0,critical,dhw,35.0,2.1,lower,70.0,70.0,133.0,57.0,57.0,133.0,3,1.9831311702728271,None,,,,,0,0,0,0,0,65,65,24,498.512024641037,,,,,,,,,,,,,,,,,,,,,,,,,,,,,,,,,,,,,,,,,,,,,,,,,,,,,,,,,,,,,,,,,,,,,,,,,,,,,,,,,70.0,70.0,133.0,57.0,57.0,133.0,2.1,2.11,-160,285,0,257,191,-266,498.49759817123413,498.49763894081116,498.5002088546753,498.512024641037,498.66191387176514,498.66191387176514,498.66191387176514,498.66191387176514,498.66191387176514,498.66191387176514,498.66191387176514,500.49659991264343,3,1.9831311702728271,None,,,,,,,,,,,,,,,,,,72,3,2025-02-21_10h56.42.167,comp,2024.2.4,61.81958067725414,2025-02-21 10h56.50.511119 -0500,
66,66,0,critical,hwd,20.0,2.1,lower,133.0,57.0,57.0,133.0,78.0,78.0,1,1.8686151504516602,None,,,,,0,0,0,0,0,66,66,42,500.5120496749878,,,,,,,,,,,,,,,,,,,,,,,,,,,,,,,,,,,,,,,,,,,,,,,,,,,,,,,,,,,,,,,,,,,,,,,,,,,,,,,,,133.0,57.0,57.0,133.0,78.0,78.0,2.1,2.12,-191,-275,0,-269,202,286,500.4973838329315,500.49742364883423,500.49985814094543,500.5120496749878,500.66211915016174,500.66211915016174,500.66211915016174,500.66211915016174,500.66211915016174,500.66211915016174,500.66211915016174,502.3964102268219,1,1.8686151504516602,None,,,,,,,,,,,,,,,,,,72,3,2025-02-21_10h56.42.167,comp,2024.2.4,61.81958067725414,2025-02-21 10h56.50.511119 -0500,
67,67,0,filler_random,None,None,None,None,None,None,None,None,None,None,1,1.0574989318847656,None,,,,,0,0,0,0,0,67,67,159,502.41192054748535,,,,,,,,,,,,,,,,,,,,,,,,,,,,,,,,,,,,,,,,,,,,,,,,,,,,,,,,,,,,,,,,,,,,,,,,,,,,,,,,,171.33905948853655,143.8127045499887,194.76258346323908,61.22775720339167,135.47700893169315,64.65780174650861,2.2,2.22,-199,277,0,-283,159,-278,502.3973205089569,502.39735984802246,502.39978766441345,502.41192054748535,502.5620288848877,502.5620288848877,502.5620288848877,502.5620288848877,502.5620288848877,502.5620288848877,502.5620288848877,503.4798753261566,1,1.0574989318847656,None,,,,,,,,,,,,,,,,,,72,3,2025-02-21_10h56.42.167,comp,2024.2.4,61.81958067725414,2025-02-21 10h56.50.511119 -0500,
68,68,0,critical,hwd,35.0,2.1,upper,200.0,125.0,125.0,200.0,127.0,127.0,2,1.2620265483856201,None,,,,,0,0,0,0,0,68,68,41,503.49542689323425,,,,,,,,,,,,,,,,,,,,,,,,,,,,,,,,,,,,,,,,,,,,,,,,,,,,,,,,,,,,,,,,,,,,,,,,,,,,,,,,,200.0,125.0,125.0,200.0,127.0,127.0,2.1,2.11,-258,264,0,255,260,-252,503.48068141937256,503.48072147369385,503.48282074928284,503.49542689323425,503.6454873085022,503.6454873085022,503.6454873085022,503.6454873085022,503.6454873085022,503.6454873085022,503.6454873085022,504.763307094574,2,1.2620265483856201,None,,,,,,,,,,,,,,,,,,72,3,2025-02-21_10h56.42.167,comp,2024.2.4,61.81958067725414,2025-02-21 10h56.50.511119 -0500,
69,69,0,critical,dwh,35.0,3.0,upper,127.0,127.0,125.0,200.0,200.0,125.0,2,1.1477744579315186,None,,,,,0,0,0,0,0,69,69,63,504.7788734436035,,,,,,,,,,,,,,,,,,,,,,,,,,,,,,,,,,,,,,,,,,,,,,,,,,,,,,,,,,,,,,,,,,,,,,,,,,,,,,,,,127.0,127.0,125.0,200.0,200.0,125.0,3.0,3.2,-260,-267,0,1,258,250,504.76409578323364,504.7641351222992,504.7661545276642,504.7788734436035,504.9287803173065,504.9287803173065,504.9287803173065,504.9287803173065,504.9287803173065,504.9287803173065,504.9287803173065,505.93008255958557,2,1.1477744579315186,None,,,,,,,,,,,,,,,,,,72,3,2025-02-21_10h56.42.167,comp,2024.2.4,61.81958067725414,2025-02-21 10h56.50.511119 -0500,
70,70,0,catch,None,None,None,None,None,None,None,None,None,None,2,1.1551482677459717,None,,,,,0,0,0,0,0,70,70,122,505.94542932510376,,,,,,,,,,,,,,,,,,,,,,,,,,,,,,,,,,,,,,,,,,,,,,,,,,,,,,,,,,,,,,,,,,,,,,,,,,,,,,,,,117,73,147,178,95,95,4.0,4.2,-222,-18,0,-264,232,8,505.9310851097107,505.93112540245056,505.93316769599915,505.94542932510376,506.09541845321655,506.09541845321655,506.09541845321655,506.09541845321655,506.09541845321655,506.09541845321655,506.09541845321655,507.11304092407227,2,1.1551482677459717,None,,,,,,,,,,,,,,,,,,72,3,2025-02-21_10h56.42.167,comp,2024.2.4,61.81958067725414,2025-02-21 10h56.50.511119 -0500,
71,71,0,critical,hdw,20.0,2.1,upper,200.0,125.0,141.0,141.0,125.0,200.0,1,3.276853084564209,None,,,,,0,0,0,0,0,71,71,23,507.1285183429718,,,,,,,,,,,,,,,,,,,,,,,,,,,,,,,,,,,,,,,,,,,,,,,,,,,,,,,,,,,,,,,,,,,,,,,,,,,,,,,,,200.0,125.0,141.0,141.0,125.0,200.0,2.1,2.12,-229,-287,0,-278,266,284,507.1138515472412,507.11389112472534,507.1162085533142,507.1285183429718,507.27880692481995,507.27880692481995,507.27880692481995,507.27880692481995,507.27880692481995,507.27880692481995,507.27880692481995,510.41331672668457,1,3.276853084564209,None,,,,,,,,,,,,,,,,,,72,3,2025-02-21_10h56.42.167,comp,2024.2.4,61.81958067725414,2025-02-21 10h56.50.511119 -0500,
72,72,0,filler_square,None,None,None,None,None,None,None,None,None,None,3,0.9928159713745117,None,,,,,0,0,0,0,0,72,72,195,510.42881298065186,,,,,,,,,,,,,,,,,,,,,,,,,,,,,,,,,,,,,,,,,,,,,,,,,,,,,,,,,,,,,,,,,,,,,,,,,,,,,,,,,63.18407228174616,109.97157977624927,153.50605322057234,103.65913903519373,155.23319002846378,155.23319002846378,1.0,1.2,-203,-1,0,17,225,-8,510.41426706314087,510.41430735588074,510.41641306877136,510.42881298065186,510.5786290168762,510.5786290168762,510.5786290168762,510.5786290168762,510.5786290168762,510.5786290168762,510.5786290168762,511.4300036430359,3,0.9928159713745117,None,,,,,,,,,,,,,,,,,,72,3,2025-02-21_10h56.42.167,comp,2024.2.4,61.81958067725414,2025-02-21 10h56.50.511119 -0500,
73,73,0,filler_random,None,None,None,None,None,None,None,None,None,None,3,1.2166974544525146,None,,,,,0,0,0,0,0,73,73,145,511.4457013607025,,,,,,,,,,,,,,,,,,,,,,,,,,,,,,,,,,,,,,,,,,,,,,,,,,,,,,,,,,,,,,,,,,,,,,,,,,,,,,,,,187.15311839634035,60.756615010162385,120.47797860879987,147.9436066570102,144.59955635069102,199.4532084247151,4.0,4.2,-200,6,0,-259,270,17,511.4309024810791,511.4309434890747,511.4345328807831,511.4457013607025,511.59553265571594,511.59553265571594,511.59553265571594,511.59553265571594,511.59553265571594,511.59553265571594,511.59553265571594,512.67991065979,3,1.2166974544525146,None,,,,,,,,,,,,,,,,,,72,3,2025-02-21_10h56.42.167,comp,2024.2.4,61.81958067725414,2025-02-21 10h56.50.511119 -0500,
74,74,0,critical,hdw,35.0,1.0,lower,133.0,57.0,70.0,70.0,57.0,133.0,1,1.774604320526123,None,,,,,0,0,0,0,0,74,74,108,512.6951072216034,,,,,,,,,,,,,,,,,,,,,,,,,,,,,,,,,,,,,,,,,,,,,,,,,,,,,,,,,,,,,,,,,,,,,,,,,,,,,,,,,133.0,57.0,70.0,70.0,57.0,133.0,1.0,1.2,-160,-17,0,20,198,-3,512.680718421936,512.6807589530945,512.6833271980286,512.6951072216034,512.8452591896057,512.8452591896057,512.8452591896057,512.8452591896057,512.8452591896057,512.8452591896057,512.8452591896057,514.4796485900879,1,1.774604320526123,None,,,,,,,,,,,,,,,,,,72,3,2025-02-21_10h56.42.167,comp,2024.2.4,61.81958067725414,2025-02-21 10h56.50.511119 -0500,
75,75,0,critical,hwd,20.0,2.1,lower,133.0,57.0,57.0,133.0,78.0,78.0,1,1.8533499240875244,None,,,,,0,0,0,0,0,75,75,18,514.4953391551971,,,,,,,,,,,,,,,,,,,,,,,,,,,,,,,,,,,,,,,,,,,,,,,,,,,,,,,,,,,,,,,,,,,,,,,,,,,,,,,,,133.0,57.0,57.0,133.0,78.0,78.0,2.1,2.12,-191,-275,0,-278,202,286,514.4804570674896,514.4804980754852,514.4828951358795,514.4953391551971,514.6452529430389,514.6452529430389,514.6452529430389,514.6452529430389,514.6452529430389,514.6452529430389,514.6452529430389,516.3629641532898,1,1.8533499240875244,None,,,,,,,,,,,,,,,,,,72,3,2025-02-21_10h56.42.167,comp,2024.2.4,61.81958067725414,2025-02-21 10h56.50.511119 -0500,
76,76,0,filler_random,None,None,None,None,None,None,None,None,None,None,3,1.09130859375,None,,,,,0,0,0,0,0,76,76,132,516.3784720897675,,,,,,,,,,,,,,,,,,,,,,,,,,,,,,,,,,,,,,,,,,,,,,,,,,,,,,,,,,,,,,,,,,,,,,,,,,,,,,,,,167.86895371224023,88.20556755373201,163.2062731089735,91.92277679105847,183.10567209173246,174.56670801723288,3.0,3.1,-186,256,0,7,229,-275,516.3638701438904,516.3639113903046,516.3664946556091,516.3784720897675,516.5287764072418,516.5287764072418,516.5287764072418,516.5287764072418,516.5287764072418,516.5287764072418,516.5287764072418,517.4798374176025,3,1.09130859375,None,,,,,,,,,,,,,,,,,,72,3,2025-02-21_10h56.42.167,comp,2024.2.4,61.81958067725414,2025-02-21 10h56.50.511119 -0500,
77,77,0,critical,dhw,20.0,2.1,lower,78.0,78.0,133.0,57.0,57.0,133.0,2,2.3891379833221436,None,,,,,0,0,0,0,0,77,77,2,517.4953503608704,,,,,,,,,,,,,,,,,,,,,,,,,,,,,,,,,,,,,,,,,,,,,,,,,,,,,,,,,,,,,,,,,,,,,,,,,,,,,,,,,78.0,78.0,133.0,57.0,57.0,133.0,2.1,2.11,-164,286,0,264,191,-258,517.4806399345398,517.480681180954,517.4831421375275,517.4953503608704,517.6452422142029,517.6452422142029,517.6452422142029,517.6452422142029,517.6452422142029,517.6452422142029,517.6452422142029,519.8967416286469,2,2.3891379833221436,None,,,,,,,,,,,,,,,,,,72,3,2025-02-21_10h56.42.167,comp,2024.2.4,61.81958067725414,2025-02-21 10h56.50.511119 -0500,
78,78,0,critical,wdh,20.0,2.1,lower,57.0,133.0,78.0,78.0,133.0,57.0,3,1.8775830268859863,None,,,,,0,0,0,0,0,78,78,10,519.9117302894592,,,,,,,,,,,,,,,,,,,,,,,,,,,,,,,,,,,,,,,,,,,,,,,,,,,,,,,,,,,,,,,,,,,,,,,,,,,,,,,,,57.0,133.0,78.0,78.0,133.0,57.0,2.1,2.12,-202,-262,0,-288,164,261,519.8975696563721,519.8976120948792,519.900191783905,519.9117302894592,520.0619323253632,520.0619323253632,520.0619323253632,520.0619323253632,520.0619323253632,520.0619323253632,520.0619323253632,521.7961852550507,3,1.8775830268859863,None,,,,,,,,,,,,,,,,,,72,3,2025-02-21_10h56.42.167,comp,2024.2.4,61.81958067725414,2025-02-21 10h56.50.511119 -0500,
79,79,0,critical,wdh,20.0,3.0,upper,125.0,200.0,141.0,141.0,200.0,125.0,1,1.6411302089691162,None,,,,,0,0,0,0,0,79,79,81,521.8123407363892,,,,,,,,,,,,,,,,,,,,,,,,,,,,,,,,,,,,,,,,,,,,,,,,,,,,,,,,,,,,,,,,,,,,,,,,,,,,,,,,,125.0,200.0,141.0,141.0,200.0,125.0,3.0,3.2,-266,-277,0,-13,229,262,521.7969555854797,521.7969965934753,521.7991557121277,521.8123407363892,521.9621164798737,521.9621164798737,521.9621164798737,521.9621164798737,521.9621164798737,521.9621164798737,521.9621164798737,523.4632225036621,1,1.6411302089691162,None,,,,,,,,,,,,,,,,,,72,3,2025-02-21_10h56.42.167,comp,2024.2.4,61.81958067725414,2025-02-21 10h56.50.511119 -0500,
80,80,0,critical,whd,20.0,1.0,upper,125.0,200.0,200.0,125.0,141.0,141.0,1,2.2543911933898926,None,,,,,0,0,0,0,0,80,80,91,523.4787995815277,,,,,,,,,,,,,,,,,,,,,,,,,,,,,,,,,,,,,,,,,,,,,,,,,,,,,,,,,,,,,,,,,,,,,,,,,,,,,,,,,125.0,200.0,200.0,125.0,141.0,141.0,1.0,1.1,-738,253,-480,277,-251,273,523.4640114307404,523.4640519618988,523.46617603302,523.4787995815277,523.6287474632263,523.6287474632263,523.6287474632263,523.6287474632263,523.6287474632263,523.6287474632263,523.6287474632263,525.7465093135834,1,2.2543911933898926,None,,,,,,,,,,,,,,,,,,72,3,2025-02-21_10h56.42.167,comp,2024.2.4,61.81958067725414,2025-02-21 10h56.50.511119 -0500,
81,81,0,filler_square,None,None,None,None,None,None,None,None,None,None,1,1.883636236190796,None,,,,,0,0,0,0,0,81,81,172,525.7782983779907,,,,,,,,,,,,,,,,,,,,,,,,,,,,,,,,,,,,,,,,,,,,,,,,,,,,,,,,,,,,,,,,,,,,,,,,,,,,,,,,,116.35187105216401,116.35187105216401,111.85840874144006,79.59702681577778,76.63435747248569,70.45987826072138,4.0,4.1,-194,-259,0,2,171,-270,525.747480392456,525.7475199699402,525.7499611377716,525.7782983779907,525.9117288589478,525.9117288589478,525.9117288589478,525.9117288589478,525.9117288589478,525.9117288589478,525.9117288589478,527.6795740127563,1,1.883636236190796,None,,,,,,,,,,,,,,,,,,72,3,2025-02-21_10h56.42.167,comp,2024.2.4,61.81958067725414,2025-02-21 10h56.50.511119 -0500,
82,82,0,filler_square,None,None,None,None,None,None,None,None,None,None,2,0.989398717880249,None,,,,,0,0,0,0,0,82,82,188,527.6950268745422,,,,,,,,,,,,,,,,,,,,,,,,,,,,,,,,,,,,,,,,,,,,,,,,,,,,,,,,,,,,,,,,,,,,,,,,,,,,,,,,,137.59470896285464,87.7303161530833,191.6009786436009,191.6009786436009,65.1510865201183,178.71620177117626,2.2,2.21,-236,-264,0,274,281,250,527.6806130409241,527.6806538105011,527.6832814216614,527.6950268745422,527.8452858924866,527.8452858924866,527.8452858924866,527.8452858924866,527.8452858924866,527.8452858924866,527.8452858924866,528.6968076229095,2,0.989398717880249,None,,,,,,,,,,,,,,,,,,72,3,2025-02-21_10h56.42.167,comp,2024.2.4,61.81958067725414,2025-02-21 10h56.50.511119 -0500,
83,83,0,filler_random,None,None,None,None,None,None,None,None,None,None,1,1.4367849826812744,None,,,,,0,0,0,0,0,83,83,140,528.7117512226105,,,,,,,,,,,,,,,,,,,,,,,,,,,,,,,,,,,,,,,,,,,,,,,,,,,,,,,,,,,,,,,,,,,,,,,,,,,,,,,,,123.26248121555976,194.0804228209146,131.58091894034925,139.9114816747226,135.86680294277926,133.182001107936,3.0,3.2,-263,-261,0,-18,233,278,528.6977169513702,528.697756767273,528.7002875804901,528.7117512226105,528.8619656562805,528.8619656562805,528.8619656562805,528.8619656562805,528.8619656562805,528.8619656562805,528.8619656562805,530.1629943847656,1,1.4367849826812744,None,,,,,,,,,,,,,,,,,,72,3,2025-02-21_10h56.42.167,comp,2024.2.4,61.81958067725414,2025-02-21 10h56.50.511119 -0500,
84,84,0,filler_square,None,None,None,None,None,None,None,None,None,None,2,1.4913923740386963,None,,,,,0,0,0,0,0,84,84,183,530.1783182621002,,,,,,,,,,,,,,,,,,,,,,,,,,,,,,,,,,,,,,,,,,,,,,,,,,,,,,,,,,,,,,,,,,,,,,,,,,,,,,,,,66.48038115819736,113.75678808094966,116.67738263515085,116.67738263515085,93.01745132131484,113.8171789985285,2.1,2.12,-211,-286,0,-271,211,279,530.1639447212219,530.163984298706,530.1660416126251,530.1783182621002,530.3285102844238,530.3285102844238,530.3285102844238,530.3285102844238,530.3285102844238,530.3285102844238,530.3285102844238,531.6795859336853,2,1.4913923740386963,None,,,,,,,,,,,,,,,,,,72,3,2025-02-21_10h56.42.167,comp,2024.2.4,61.81958067725414,2025-02-21 10h56.50.511119 -0500,
85,85,0,critical,dhw,35.0,4.0,upper,127.0,127.0,200.0,125.0,125.0,200.0,2,1.358236312866211,None,,,,,0,0,0,0,0,85,85,53,531.6952562332153,,,,,,,,,,,,,,,,,,,,,,,,,,,,,,,,,,,,,,,,,,,,,,,,,,,,,,,,,,,,,,,,,,,,,,,,,,,,,,,,,127.0,127.0,200.0,125.0,125.0,200.0,4.0,4.1,-222,-266,0,-16,258,-275,531.6803758144379,531.6804156303406,531.6825151443481,531.6952562332153,531.8456256389618,531.8456256389618,531.8456256389618,531.8456256389618,531.8456256389618,531.8456256389618,531.8456256389618,533.0631918907166,2,1.358236312866211,None,,,,,,,,,,,,,,,,,,72,3,2025-02-21_10h56.42.167,comp,2024.2.4,61.81958067725414,2025-02-21 10h56.50.511119 -0500,
86,86,0,critical,wdh,20.0,2.1,upper,125.0,200.0,141.0,141.0,200.0,125.0,3,2.205632209777832,None,,,,,0,0,0,0,0,86,86,35,533.0787596702576,,,,,,,,,,,,,,,,,,,,,,,,,,,,,,,,,,,,,,,,,,,,,,,,,,,,,,,,,,,,,,,,,,,,,,,,,,,,,,,,,125.0,200.0,141.0,141.0,200.0,125.0,2.1,2.11,-266,254,0,266,229,-258,533.0639863014221,533.0640273094177,533.0661289691925,533.0787596702576,533.2285385131836,533.2285385131836,533.2285385131836,533.2285385131836,533.2285385131836,533.2285385131836,533.2285385131836,535.2968573570251,3,2.205632209777832,None,,,,,,,,,,,,,,,,,,72,3,2025-02-21_10h56.42.167,comp,2024.2.4,61.81958067725414,2025-02-21 10h56.50.511119 -0500,
87,87,0,critical,dhw,20.0,2.1,upper,141.0,141.0,200.0,125.0,125.0,200.0,3,1.4456610679626465,None,,,,,0,0,0,0,0,87,87,27,535.3116252422333,,,,,,,,,,,,,,,,,,,,,,,,,,,,,,,,,,,,,,,,,,,,,,,,,,,,,,,,,,,,,,,,,,,,,,,,,,,,,,,,,141.0,141.0,200.0,125.0,125.0,200.0,2.1,2.11,-229,256,0,272,258,-270,535.2976725101471,535.2977149486542,535.3001368045807,535.3116252422333,535.4621706008911,535.4621706008911,535.4621706008911,535.4621706008911,535.4621706008911,535.4621706008911,535.4621706008911,536.7631332874298,3,1.4456610679626465,None,,,,,,,,,,,,,,,,,,72,3,2025-02-21_10h56.42.167,comp,2024.2.4,61.81958067725414,2025-02-21 10h56.50.511119 -0500,
88,88,0,critical,wdh,35.0,4.0,upper,125.0,200.0,127.0,127.0,200.0,125.0,3,2.148449182510376,None,,,,,0,0,0,0,0,88,88,77,536.7784805297852,,,,,,,,,,,,,,,,,,,,,,,,,,,,,,,,,,,,,,,,,,,,,,,,,,,,,,,,,,,,,,,,,,,,,,,,,,,,,,,,,125.0,200.0,127.0,127.0,200.0,125.0,4.0,4.1,-260,-273,0,2,222,-253,536.7639226913452,536.7639617919922,536.7662341594696,536.7784805297852,536.9285626411438,536.9285626411438,536.9285626411438,536.9285626411438,536.9285626411438,536.9285626411438,536.9285626411438,538.9298305511475,3,2.148449182510376,None,,,,,,,,,,,,,,,,,,72,3,2025-02-21_10h56.42.167,comp,2024.2.4,61.81958067725414,2025-02-21 10h56.50.511119 -0500,
89,89,0,critical,dwh,35.0,2.1,upper,127.0,127.0,125.0,200.0,200.0,125.0,3,1.1656434535980225,None,,,,,0,0,0,0,0,89,89,5,538.9451441764832,,,,,,,,,,,,,,,,,,,,,,,,,,,,,,,,,,,,,,,,,,,,,,,,,,,,,,,,,,,,,,,,,,,,,,,,,,,,,,,,,127.0,127.0,125.0,200.0,200.0,125.0,2.1,2.11,-260,257,0,250,258,-264,538.9306287765503,538.9306700229645,538.9328136444092,538.9451441764832,539.0952496528625,539.0952496528625,539.0952496528625,539.0952496528625,539.0952496528625,539.0952496528625,539.0952496528625,540.1131739616394,3,1.1656434535980225,None,,,,,,,,,,,,,,,,,,72,3,2025-02-21_10h56.42.167,comp,2024.2.4,61.81958067725414,2025-02-21 10h56.50.511119 -0500,
90,90,0,critical,wdh,20.0,2.1,upper,125.0,200.0,141.0,141.0,200.0,125.0,3,1.2680914402008057,None,,,,,0,0,0,0,0,90,90,11,540.1284091472626,,,,,,,,,,,,,,,,,,,,,,,,,,,,,,,,,,,,,,,,,,,,,,,,,,,,,,,,,,,,,,,,,,,,,,,,,,,,,,,,,125.0,200.0,141.0,141.0,200.0,125.0,2.1,2.11,-266,283,0,253,229,-259,540.1139719486237,540.1140115261078,540.1161532402039,540.1284091472626,540.2789449691772,540.2789449691772,540.2789449691772,540.2789449691772,540.2789449691772,540.2789449691772,540.2789449691772,541.4131300449371,3,1.2680914402008057,None,,,,,,,,,,,,,,,,,,72,3,2025-02-21_10h56.42.167,comp,2024.2.4,61.81958067725414,2025-02-21 10h56.50.511119 -0500,
91,91,0,filler_random,None,None,None,None,None,None,None,None,None,None,3,1.1928915977478027,None,,,,,0,0,0,0,0,91,91,167,541.428346157074,,,,,,,,,,,,,,,,,,,,,,,,,,,,,,,,,,,,,,,,,,,,,,,,,,,,,,,,,,,,,,,,,,,,,,,,,,,,,,,,,177.92514260534614,165.56766519067725,94.68404184119683,176.8426455917609,170.44119159497603,169.88403934174238,4.0,4.2,-267,-17,0,-275,269,-16,541.41401720047,541.4140689373016,541.4161367416382,541.428346157074,541.5786421298981,541.5786421298981,541.5786421298981,541.5786421298981,541.5786421298981,541.5786421298981,541.5786421298981,542.629819393158,3,1.1928915977478027,None,,,,,,,,,,,,,,,,,,72,3,2025-02-21_10h56.42.167,comp,2024.2.4,61.81958067725414,2025-02-21 10h56.50.511119 -0500,
92,92,0,critical,whd,20.0,1.0,lower,57.0,133.0,133.0,57.0,78.0,78.0,2,2.408334970474243,None,,,,,0,0,0,0,0,92,92,90,542.6452212333679,,,,,,,,,,,,,,,,,,,,,,,,,,,,,,,,,,,,,,,,,,,,,,,,,,,,,,,,,,,,,,,,,,,,,,,,,,,,,,,,,57.0,133.0,133.0,57.0,78.0,78.0,1.0,1.2,-191,18,0,-7,164,-5,542.6305928230286,542.6306335926056,542.6333343982697,542.6452212333679,542.7951829433441,542.7951829433441,542.7951829433441,542.7951829433441,542.7951829433441,542.7951829433441,542.7951829433441,545.0628128051758,2,2.408334970474243,None,,,,,,,,,,,,,,,,,,72,3,2025-02-21_10h56.42.167,comp,2024.2.4,61.81958067725414,2025-02-21 10h56.50.511119 -0500,
93,93,0,filler_random,None,None,None,None,None,None,None,None,None,None,1,3.2216992378234863,None,,,,,0,0,0,0,0,93,93,169,545.0785467624664,,,,,,,,,,,,,,,,,,,,,,,,,,,,,,,,,,,,,,,,,,,,,,,,,,,,,,,,,,,,,,,,,,,,,,,,,,,,,,,,,122.77438205359634,76.7912577849167,138.695053108163,62.53964390135316,112.22041357402114,105.11667703026458,1.0,1.2,-166,-19,0,-10,180,-2,545.0637004375458,545.0637412071228,545.0662546157837,545.0785467624664,545.228343963623,545.228343963623,545.228343963623,545.228343963623,545.228343963623,545.228343963623,545.228343963623,548.312844991684,1,3.2216992378234863,None,,,,,,,,,,,,,,,,,,72,3,2025-02-21_10h56.42.167,comp,2024.2.4,61.81958067725414,2025-02-21 10h56.50.511119 -0500,
94,94,0,filler_square,None,None,None,None,None,None,None,None,None,None,2,1.2770183086395264,None,,,,,0,0,0,0,0,94,94,190,548.3281924724579,,,,,,,,,,,,,,,,,,,,,,,,,,,,,,,,,,,,,,,,,,,,,,,,,,,,,,,,,,,,,,,,,,,,,,,,,,,,,,,,,58.290885307395804,64.15690666415544,74.54585831786028,74.54585831786028,73.94940095034866,69.18894238241147,1.0,1.2,-165,11,0,-16,168,15,548.3137755393982,548.3138155937195,548.3158922195435,548.3281924724579,548.4785308837891,548.4785308837891,548.4785308837891,548.4785308837891,548.4785308837891,548.4785308837891,548.4785308837891,549.6126194000244,2,1.2770183086395264,None,,,,,,,,,,,,,,,,,,72,3,2025-02-21_10h56.42.167,comp,2024.2.4,61.81958067725414,2025-02-21 10h56.50.511119 -0500,
95,95,0,filler_square,None,None,None,None,None,None,None,None,None,None,2,1.0827186107635498,None,,,,,0,0,0,0,0,95,95,206,549.6284573078156,,,,,,,,,,,,,,,,,,,,,,,,,,,,,,,,,,,,,,,,,,,,,,,,,,,,,,,,,,,,,,,,,,,,,,,,,,,,,,,,,67.99999802575608,57.53174859291235,92.97119165177108,92.97119165177108,58.66094604476329,83.05221259026258,1.0,1.3,309,-269,480,-275,664,-275,549.6135971546173,549.6136384010315,549.6161103248596,549.6284573078156,549.7781748771667,549.7781748771667,549.7781748771667,549.7781748771667,549.7781748771667,549.7781748771667,549.7781748771667,550.7292807102203,2,1.0827186107635498,None,,,,,,,,,,,,,,,,,,72,3,2025-02-21_10h56.42.167,comp,2024.2.4,61.81958067725414,2025-02-21 10h56.50.511119 -0500,
96,96,0,filler_square,None,None,None,None,None,None,None,None,None,None,2,1.8122124671936035,None,,,,,0,0,0,0,0,96,96,201,550.7449352741241,,,,,,,,,,,,,,,,,,,,,,,,,,,,,,,,,,,,,,,,,,,,,,,,,,,,,,,,,,,,,,,,,,,,,,,,,,,,,,,,,70.50595628698397,67.56846690944428,68.24185296149935,68.142902050606,72.09814403975213,72.09814403975213,3.0,3.2,-164,-252,0,-9,166,251,550.730224609375,550.7302649021149,550.7326700687408,550.7449352741241,550.8950700759888,550.8950700759888,550.8950700759888,550.8950700759888,550.8950700759888,550.8950700759888,550.8950700759888,552.5629706382751,2,1.8122124671936035,None,,,,,,,,,,,,,,,,,,72,3,2025-02-21_10h56.42.167,comp,2024.2.4,61.81958067725414,2025-02-21 10h56.50.511119 -0500,
97,97,0,critical,hdw,20.0,2.1,lower,133.0,57.0,78.0,78.0,57.0,133.0,2,1.937859296798706,None,,,,,0,0,0,0,0,97,97,22,552.5784368515015,,,,,,,,,,,,,,,,,,,,,,,,,,,,,,,,,,,,,,,,,,,,,,,,,,,,,,,,,,,,,,,,,,,,,,,,,,,,,,,,,133.0,57.0,78.0,78.0,57.0,133.0,2.1,2.11,-164,272,0,252,202,-276,552.5637488365173,552.5637888908386,552.5662839412689,552.5784368515015,552.7286660671234,552.7286660671234,552.7286660671234,552.7286660671234,552.7286660671234,552.7286660671234,552.7286660671234,554.5293452739716,2,1.937859296798706,None,,,,,,,,,,,,,,,,,,72,3,2025-02-21_10h56.42.167,comp,2024.2.4,61.81958067725414,2025-02-21 10h56.50.511119 -0500,
98,98,0,critical,dhw,35.0,4.0,lower,70.0,70.0,133.0,57.0,57.0,133.0,3,1.750025749206543,None,,,,,0,0,0,0,0,98,98,52,554.5448184013367,,,,,,,,,,,,,,,,,,,,,,,,,,,,,,,,,,,,,,,,,,,,,,,,,,,,,,,,,,,,,,,,,,,,,,,,,,,,,,,,,70.0,70.0,133.0,57.0,57.0,133.0,4.0,4.2,-160,10,0,-281,191,12,554.5301496982574,554.5301899909973,554.5326600074768,554.5448184013367,554.6949470043182,554.6949470043182,554.6949470043182,554.6949470043182,554.6949470043182,554.6949470043182,554.6949470043182,556.312760591507,3,1.750025749206543,None,,,,,,,,,,,,,,,,,,72,3,2025-02-21_10h56.42.167,comp,2024.2.4,61.81958067725414,2025-02-21 10h56.50.511119 -0500,
99,99,0,critical,dwh,20.0,3.0,upper,141.0,141.0,125.0,200.0,200.0,125.0,2,1.3666727542877197,None,,,,,0,0,0,0,0,99,99,69,556.3281152248383,,,,,,,,,,,,,,,,,,,,,,,,,,,,,,,,,,,,,,,,,,,,,,,,,,,,,,,,,,,,,,,,,,,,,,,,,,,,,,,,,141.0,141.0,125.0,200.0,200.0,125.0,3.0,3.1,-266,273,0,-8,258,-253,556.3135590553284,556.3135993480682,556.3161101341248,556.3281152248383,556.4784321784973,556.4784321784973,556.4784321784973,556.4784321784973,556.4784321784973,556.4784321784973,556.4784321784973,557.7129590511322,2,1.3666727542877197,None,,,,,,,,,,,,,,,,,,72,3,2025-02-21_10h56.42.167,comp,2024.2.4,61.81958067725414,2025-02-21 10h56.50.511119 -0500,
100,100,0,critical,whd,35.0,2.1,upper,125.0,200.0,200.0,125.0,127.0,127.0,1,1.636190414428711,None,,,,,0,0,0,0,0,100,100,13,557.7281675338745,,,,,,,,,,,,,,,,,,,,,,,,,,,,,,,,,,,,,,,,,,,,,,,,,,,,,,,,,,,,,,,,,,,,,,,,,,,,,,,,,125.0,200.0,200.0,125.0,127.0,127.0,2.1,2.11,-258,277,0,274,222,-270,557.7137620449066,557.7138006687164,557.7172710895538,557.7281675338745,557.8785045146942,557.8785045146942,557.8785045146942,557.8785045146942,557.8785045146942,557.8785045146942,557.8785045146942,559.3794693946838,1,1.636190414428711,None,,,,,,,,,,,,,,,,,,72,3,2025-02-21_10h56.42.167,comp,2024.2.4,61.81958067725414,2025-02-21 10h56.50.511119 -0500,
101,101,0,filler_square,None,None,None,None,None,None,None,None,None,None,3,0.931771993637085,None,,,,,0,0,0,0,0,101,101,171,559.3949029445648,,,,,,,,,,,,,,,,,,,,,,,,,,,,,,,,,,,,,,,,,,,,,,,,,,,,,,,,,,,,,,,,,,,,,,,,,,,,,,,,,64.65783584460411,70.47069435958454,99.0511216822304,73.49545649796542,129.9721517324482,129.9721517324482,2.2,2.21,-168,-285,0,279,198,260,559.3804337978363,559.3804738521576,559.3829545974731,559.3949029445648,559.5450050830841,559.5450050830841,559.5450050830841,559.5450050830841,559.5450050830841,559.5450050830841,559.5450050830841,560.3297154903412,3,0.931771993637085,None,,,,,,,,,,,,,,,,,,72,3,2025-02-21_10h56.42.167,comp,2024.2.4,61.81958067725414,2025-02-21 10h56.50.511119 -0500,
102,102,0,critical,hwd,20.0,1.0,upper,200.0,125.0,125.0,200.0,141.0,141.0,2,2.611889362335205,None,,,,,0,0,0,0,0,102,102,103,560.3451905250549,,,,,,,,,,,,,,,,,,,,,,,,,,,,,,,,,,,,,,,,,,,,,,,,,,,,,,,,,,,,,,,,,,,,,,,,,,,,,,,,,200.0,125.0,125.0,200.0,141.0,141.0,1.0,1.1,-738,285,-480,254,-214,265,560.330516576767,560.3305568695068,560.3329637050629,560.3451905250549,560.4950003623962,560.4950003623962,560.4950003623962,560.4950003623962,560.4950003623962,560.4950003623962,560.4950003623962,562.9629192352295,2,2.611889362335205,None,,,,,,,,,,,,,,,,,,72,3,2025-02-21_10h56.42.167,comp,2024.2.4,61.81958067725414,2025-02-21 10h56.50.511119 -0500,
103,103,0,filler_random,None,None,None,None,None,None,None,None,None,None,3,2.1946911811828613,None,,,,,0,0,0,0,0,103,103,141,562.9783840179443,,,,,,,,,,,,,,,,,,,,,,,,,,,,,,,,,,,,,,,,,,,,,,,,,,,,,,,,,,,,,,,,,,,,,,,,,,,,,,,,,105.12441026775284,150.69338875497616,168.28615050972024,88.79611489200906,100.70554698850839,179.92372514994258,2.2,2.21,-216,-282,0,287,230,274,562.9638433456421,562.9638850688934,562.9663789272308,562.9783840179443,563.1283578872681,563.1283578872681,563.1283578872681,563.1283578872681,563.1283578872681,563.1283578872681,563.1283578872681,565.1794490814209,3,2.1946911811828613,None,,,,,,,,,,,,,,,,,,72,3,2025-02-21_10h56.42.167,comp,2024.2.4,61.81958067725414,2025-02-21 10h56.50.511119 -0500,
104,104,0,critical,whd,35.0,1.0,lower,57.0,133.0,133.0,57.0,70.0,70.0,1,2.833564519882202,None,,,,,0,0,0,0,0,104,104,84,565.1950297355652,,,,,,,,,,,,,,,,,,,,,,,,,,,,,,,,,,,,,,,,,,,,,,,,,,,,,,,,,,,,,,,,,,,,,,,,,,,,,,,,,57.0,133.0,133.0,57.0,70.0,70.0,1.0,1.1,-671,283,-480,289,-320,264,565.1802408695221,565.1802802085876,565.1827447414398,565.1950297355652,565.3449110984802,565.3449110984802,565.3449110984802,565.3449110984802,565.3449110984802,565.3449110984802,565.3449110984802,568.0459554195404,1,2.833564519882202,None,,,,,,,,,,,,,,,,,,72,3,2025-02-21_10h56.42.167,comp,2024.2.4,61.81958067725414,2025-02-21 10h56.50.511119 -0500,
105,105,0,critical,dwh,20.0,4.0,lower,78.0,78.0,57.0,133.0,133.0,57.0,2,2.208094358444214,None,,,,,0,0,0,0,0,105,105,70,568.0614473819733,,,,,,,,,,,,,,,,,,,,,,,,,,,,,,,,,,,,,,,,,,,,,,,,,,,,,,,,,,,,,,,,,,,,,,,,,,,,,,,,,78.0,78.0,57.0,133.0,133.0,57.0,4.0,4.1,-202,-257,0,8,191,-279,568.0467598438263,568.0468001365662,568.0493855476379,568.0614473819733,568.2114670276642,568.2114670276642,568.2114670276642,568.2114670276642,568.2114670276642,568.2114670276642,568.2114670276642,570.2792928218842,2,2.208094358444214,None,,,,,,,,,,,,,,,,,,72,3,2025-02-21_10h56.42.167,comp,2024.2.4,61.81958067725414,2025-02-21 10h56.50.511119 -0500,
106,106,0,critical,whd,20.0,3.0,lower,57.0,133.0,133.0,57.0,78.0,78.0,2,1.8161718845367432,None,,,,,0,0,0,0,0,106,106,92,570.2949910163879,,,,,,,,,,,,,,,,,,,,,,,,,,,,,,,,,,,,,,,,,,,,,,,,,,,,,,,,,,,,,,,,,,,,,,,,,,,,,,,,,57.0,133.0,133.0,57.0,78.0,78.0,3.0,3.2,-191,-252,0,12,164,286,570.2800936698914,570.2801339626312,570.2824852466583,570.2949910163879,570.4447793960571,570.4447793960571,570.4447793960571,570.4447793960571,570.4447793960571,570.4447793960571,570.4447793960571,572.1130871772766,2,1.8161718845367432,None,,,,,,,,,,,,,,,,,,72,3,2025-02-21_10h56.42.167,comp,2024.2.4,61.81958067725414,2025-02-21 10h56.50.511119 -0500,
107,107,0,critical,dhw,20.0,2.1,upper,141.0,141.0,200.0,125.0,125.0,200.0,3,2.787963390350342,None,,,,,0,0,0,0,0,107,107,3,572.1282458305359,,,,,,,,,,,,,,,,,,,,,,,,,,,,,,,,,,,,,,,,,,,,,,,,,,,,,,,,,,,,,,,,,,,,,,,,,,,,,,,,,141.0,141.0,200.0,125.0,125.0,200.0,2.1,2.11,-229,288,0,254,258,-277,572.1138882637024,572.1139290332794,572.116016626358,572.1282458305359,572.2783803939819,572.2783803939819,572.2783803939819,572.2783803939819,572.2783803939819,572.2783803939819,572.2783803939819,574.9294891357422,3,2.787963390350342,None,,,,,,,,,,,,,,,,,,72,3,2025-02-21_10h56.42.167,comp,2024.2.4,61.81958067725414,2025-02-21 10h56.50.511119 -0500,
108,108,0,critical,hdw,20.0,3.0,upper,200.0,125.0,141.0,141.0,125.0,200.0,3,2.366572141647339,None,,,,,0,0,0,0,0,108,108,117,574.9446496963501,,,,,,,,,,,,,,,,,,,,,,,,,,,,,,,,,,,,,,,,,,,,,,,,,,,,,,,,,,,,,,,,,,,,,,,,,,,,,,,,,200.0,125.0,141.0,141.0,125.0,200.0,3.0,3.2,-229,-259,0,-6,266,272,574.930269241333,574.9303102493286,574.9326696395874,574.9446496963501,575.0949909687042,575.0949909687042,575.0949909687042,575.0949909687042,575.0949909687042,575.0949909687042,575.0949909687042,577.329363822937,3,2.366572141647339,None,,,,,,,,,,,,,,,,,,72,3,2025-02-21_10h56.42.167,comp,2024.2.4,61.81958067725414,2025-02-21 10h56.50.511119 -0500,
109,109,0,filler_random,None,None,None,None,None,None,None,None,None,None,2,3.3394923210144043,None,,,,,0,0,0,0,0,109,109,151,577.3445956707001,,,,,,,,,,,,,,,,,,,,,,,,,,,,,,,,,,,,,,,,,,,,,,,,,,,,,,,,,,,,,,,,,,,,,,,,,,,,,,,,,136.6528345664662,64.93343732527993,126.33168109593589,99.38285069161498,87.3014995520159,192.135593160159,4.0,4.2,-178,14,0,-259,242,4,577.330244064331,577.330283164978,577.332686662674,577.3445956707001,577.4951024055481,577.4951024055481,577.4951024055481,577.4951024055481,577.4951024055481,577.4951024055481,577.4951024055481,580.6961619853973,2,3.3394923210144043,None,,,,,,,,,,,,,,,,,,72,3,2025-02-21_10h56.42.167,comp,2024.2.4,61.81958067725414,2025-02-21 10h56.50.511119 -0500,
110,110,0,critical,whd,35.0,4.0,upper,125.0,200.0,200.0,125.0,127.0,127.0,2,2.068948268890381,None,,,,,0,0,0,0,0,110,110,89,580.711353302002,,,,,,,,,,,,,,,,,,,,,,,,,,,,,,,,,,,,,,,,,,,,,,,,,,,,,,,,,,,,,,,,,,,,,,,,,,,,,,,,,125.0,200.0,200.0,125.0,127.0,127.0,4.0,4.2,-258,-16,0,-272,222,18,580.6969418525696,580.6969826221466,580.6990673542023,580.711353302002,580.8616790771484,580.8616790771484,580.8616790771484,580.8616790771484,580.8616790771484,580.8616790771484,580.8616790771484,582.7961542606354,2,2.068948268890381,None,,,,,,,,,,,,,,,,,,72,3,2025-02-21_10h56.42.167,comp,2024.2.4,61.81958067725414,2025-02-21 10h56.50.511119 -0500,
111,111,0,critical,hwd,35.0,2.1,upper,200.0,125.0,125.0,200.0,127.0,127.0,2,1.8996546268463135,None,,,,,0,0,0,0,0,111,111,17,582.8113079071045,,,,,,,,,,,,,,,,,,,,,,,,,,,,,,,,,,,,,,,,,,,,,,,,,,,,,,,,,,,,,,,,,,,,,,,,,,,,,,,,,200.0,125.0,125.0,200.0,127.0,127.0,2.1,2.12,-258,-267,0,-271,260,270,582.7969465255737,582.7969870567322,582.8002800941467,582.8113079071045,582.9615607261658,582.9615607261658,582.9615607261658,582.9615607261658,582.9615607261658,582.9615607261658,582.9615607261658,584.7296724319458,2,1.8996546268463135,None,,,,,,,,,,,,,,,,,,72,3,2025-02-21_10h56.42.167,comp,2024.2.4,61.81958067725414,2025-02-21 10h56.50.511119 -0500,
112,112,0,filler_square,None,None,None,None,None,None,None,None,None,None,3,1.0923075675964355,None,,,,,0,0,0,0,0,112,112,174,584.7446737289429,,,,,,,,,,,,,,,,,,,,,,,,,,,,,,,,,,,,,,,,,,,,,,,,,,,,,,,,,,,,,,,,,,,,,,,,,,,,,,,,,182.07991890312377,90.76738477387332,109.4283841051061,67.6701702812666,197.73328386819244,197.73328386819244,1.0,1.3,305,-282,480,-283,709,-265,584.7306551933289,584.7306957244873,584.73313164711,584.7446737289429,584.8950819969177,584.8950819969177,584.8950819969177,584.8950819969177,584.8950819969177,584.8950819969177,584.8950819969177,585.8459732532501,3,1.0923075675964355,None,,,,,,,,,,,,,,,,,,72,3,2025-02-21_10h56.42.167,comp,2024.2.4,61.81958067725414,2025-02-21 10h56.50.511119 -0500,
113,113,0,critical,hwd,35.0,4.0,upper,200.0,125.0,125.0,200.0,127.0,127.0,1,1.718721866607666,None,,,,,0,0,0,0,0,113,113,101,585.8615310192108,,,,,,,,,,,,,,,,,,,,,,,,,,,,,,,,,,,,,,,,,,,,,,,,,,,,,,,,,,,,,,,,,,,,,,,,,,,,,,,,,200.0,125.0,125.0,200.0,127.0,127.0,4.0,4.1,-258,-285,0,8,260,-252,585.8468065261841,585.8468482494354,585.8489768505096,585.8615310192108,586.0116078853607,586.0116078853607,586.0116078853607,586.0116078853607,586.0116078853607,586.0116078853607,586.0116078853607,587.5960476398468,1,1.718721866607666,None,,,,,,,,,,,,,,,,,,72,3,2025-02-21_10h56.42.167,comp,2024.2.4,61.81958067725414,2025-02-21 10h56.50.511119 -0500,
114,114,0,critical,whd,20.0,3.0,upper,125.0,200.0,200.0,125.0,141.0,141.0,2,1.8505289554595947,None,,,,,0,0,0,0,0,114,114,93,587.611245393753,,,,,,,,,,,,,,,,,,,,,,,,,,,,,,,,,,,,,,,,,,,,,,,,,,,,,,,,,,,,,,,,,,,,,,,,,,,,,,,,,125.0,200.0,200.0,125.0,141.0,141.0,3.0,3.2,-258,-290,0,13,229,287,587.5968351364136,587.5968751907349,587.5991756916046,587.611245393753,587.7616584300995,587.7616584300995,587.7616584300995,587.7616584300995,587.7616584300995,587.7616584300995,587.7616584300995,589.4793419837952,2,1.8505289554595947,None,,,,,,,,,,,,,,,,,,72,3,2025-02-21_10h56.42.167,comp,2024.2.4,61.81958067725414,2025-02-21 10h56.50.511119 -0500,
115,115,0,critical,whd,35.0,1.0,upper,125.0,200.0,200.0,125.0,127.0,127.0,2,1.4696569442749023,None,,,,,0,0,0,0,0,115,115,85,589.4945747852325,,,,,,,,,,,,,,,,,,,,,,,,,,,,,,,,,,,,,,,,,,,,,,,,,,,,,,,,,,,,,,,,,,,,,,,,,,,,,,,,,125.0,200.0,200.0,125.0,127.0,127.0,1.0,1.2,-258,16,0,-17,222,-15,589.4800841808319,589.4801223278046,589.4825465679169,589.4945747852325,589.6449811458588,589.6449811458588,589.6449811458588,589.6449811458588,589.6449811458588,589.6449811458588,589.6449811458588,590.9794147014618,2,1.4696569442749023,None,,,,,,,,,,,,,,,,,,72,3,2025-02-21_10h56.42.167,comp,2024.2.4,61.81958067725414,2025-02-21 10h56.50.511119 -0500,
116,116,0,filler_square,None,None,None,None,None,None,None,None,None,None,1,1.3535857200622559,None,,,,,0,0,0,0,0,116,116,187,590.9945464134216,,,,,,,,,,,,,,,,,,,,,,,,,,,,,,,,,,,,,,,,,,,,,,,,,,,,,,,,,,,,,,,,,,,,,,,,,,,,,,,,,171.4743776071714,171.4743776071714,64.51404020918206,170.18687383940605,87.30044050270797,74.77505924008345,2.1,2.12,-267,-266,0,-253,218,273,590.9803757667542,590.9804158210754,590.9827773571014,590.9945464134216,591.1447637081146,591.1447637081146,591.1447637081146,591.1447637081146,591.1447637081146,591.1447637081146,591.1447637081146,592.3624608516693,1,1.3535857200622559,None,,,,,,,,,,,,,,,,,,72,3,2025-02-21_10h56.42.167,comp,2024.2.4,61.81958067725414,2025-02-21 10h56.50.511119 -0500,
117,117,0,critical,dwh,20.0,3.0,lower,78.0,78.0,57.0,133.0,133.0,57.0,3,1.386232614517212,None,,,,,0,0,0,0,0,117,117,68,592.3778648376465,,,,,,,,,,,,,,,,,,,,,,,,,,,,,,,,,,,,,,,,,,,,,,,,,,,,,,,,,,,,,,,,,,,,,,,,,,,,,,,,,78.0,78.0,57.0,133.0,133.0,57.0,3.0,3.2,-202,-286,0,10,191,256,592.3632655143738,592.3633058071136,592.3657584190369,592.3778648376465,592.52809882164,592.52809882164,592.52809882164,592.52809882164,592.52809882164,592.52809882164,592.52809882164,593.7791414260864,3,1.386232614517212,None,,,,,,,,,,,,,,,,,,72,3,2025-02-21_10h56.42.167,comp,2024.2.4,61.81958067725414,2025-02-21 10h56.50.511119 -0500,
118,118,0,filler_random,None,None,None,None,None,None,None,None,None,None,1,1.24241042137146,None,,,,,0,0,0,0,0,118,118,138,593.7945122718811,,,,,,,,,,,,,,,,,,,,,,,,,,,,,,,,,,,,,,,,,,,,,,,,,,,,,,,,,,,,,,,,,,,,,,,,,,,,,,,,,178.37799324821412,120.07857222044166,124.2965167191434,127.61731288942636,127.64073248692662,132.55421792945896,1.0,1.3,260,-267,480,-267,706,-272,593.7800006866455,593.7800395488739,593.7823505401611,593.7945122718811,593.944718837738,593.944718837738,593.944718837738,593.944718837738,593.944718837738,593.944718837738,593.944718837738,595.0459005832672,1,1.24241042137146,None,,,,,,,,,,,,,,,,,,72,3,2025-02-21_10h56.42.167,comp,2024.2.4,61.81958067725414,2025-02-21 10h56.50.511119 -0500,
119,119,0,critical,dwh,20.0,2.1,upper,141.0,141.0,125.0,200.0,200.0,125.0,3,1.2168595790863037,None,,,,,0,0,0,0,0,119,119,7,595.0614397525787,,,,,,,,,,,,,,,,,,,,,,,,,,,,,,,,,,,,,,,,,,,,,,,,,,,,,,,,,,,,,,,,,,,,,,,,,,,,,,,,,141.0,141.0,125.0,200.0,200.0,125.0,2.1,2.12,-266,-283,0,-275,258,260,595.0466833114624,595.046722650528,595.0491743087769,595.0614397525787,595.2115836143494,595.2115836143494,595.2115836143494,595.2115836143494,595.2115836143494,595.2115836143494,595.2115836143494,596.2796311378479,3,1.2168595790863037,None,,,,,,,,,,,,,,,,,,72,3,2025-02-21_10h56.42.167,comp,2024.2.4,61.81958067725414,2025-02-21 10h56.50.511119 -0500,
120,120,0,filler_square,None,None,None,None,None,None,None,None,None,None,3,1.037947416305542,None,,,,,0,0,0,0,0,120,120,196,596.2948191165924,,,,,,,,,,,,,,,,,,,,,,,,,,,,,,,,,,,,,,,,,,,,,,,,,,,,,,,,,,,,,,,,,,,,,,,,,,,,,,,,,94.35139257830048,76.43885473915971,155.34358685048542,77.35230621669531,167.50465480786534,167.50465480786534,1.0,1.3,307,-268,480,-274,698,-264,596.280647277832,596.2806890010834,596.282838344574,596.2948191165924,596.444798707962,596.444798707962,596.444798707962,596.444798707962,596.444798707962,596.444798707962,596.444798707962,597.3459477424622,3,1.037947416305542,None,,,,,,,,,,,,,,,,,,72,3,2025-02-21_10h56.42.167,comp,2024.2.4,61.81958067725414,2025-02-21 10h56.50.511119 -0500,
121,121,0,filler_random,None,None,None,None,None,None,None,None,None,None,2,1.500335454940796,None,,,,,0,0,0,0,0,121,121,147,597.3611676692963,,,,,,,,,,,,,,,,,,,,,,,,,,,,,,,,,,,,,,,,,,,,,,,,,,,,,,,,,,,,,,,,,,,,,,,,,,,,,,,,,59.66250137617739,180.1322246279807,74.24750266355954,148.1032180436506,60.34925641920681,162.44022068684026,1.0,1.2,-260,9,0,0,251,8,597.3467960357666,597.3468339443207,597.3493733406067,597.3611676692963,597.5115056037903,597.5115056037903,597.5115056037903,597.5115056037903,597.5115056037903,597.5115056037903,597.5115056037903,598.8790786266327,2,1.500335454940796,None,,,,,,,,,,,,,,,,,,72,3,2025-02-21_10h56.42.167,comp,2024.2.4,61.81958067725414,2025-02-21 10h56.50.511119 -0500,
122,122,0,critical,wdh,35.0,3.0,upper,125.0,200.0,127.0,127.0,200.0,125.0,1,1.9014270305633545,None,,,,,0,0,0,0,0,122,122,75,598.8945469856262,,,,,,,,,,,,,,,,,,,,,,,,,,,,,,,,,,,,,,,,,,,,,,,,,,,,,,,,,,,,,,,,,,,,,,,,,,,,,,,,,125.0,200.0,127.0,127.0,200.0,125.0,3.0,3.1,-260,276,0,-11,222,-265,598.8798828125,598.8799221515656,598.8822462558746,598.8945469856262,599.0448417663574,599.0448417663574,599.0448417663574,599.0448417663574,599.0448417663574,599.0448417663574,599.0448417663574,600.8126776218414,1,1.9014270305633545,None,,,,,,,,,,,,,,,,,,72,3,2025-02-21_10h56.42.167,comp,2024.2.4,61.81958067725414,2025-02-21 10h56.50.511119 -0500,
123,123,0,critical,hdw,20.0,4.0,lower,133.0,57.0,78.0,78.0,57.0,133.0,3,2.066633939743042,None,,,,,0,0,0,0,0,123,123,118,600.8279349803925,,,,,,,,,,,,,,,,,,,,,,,,,,,,,,,,,,,,,,,,,,,,,,,,,,,,,,,,,,,,,,,,,,,,,,,,,,,,,,,,,133.0,57.0,78.0,78.0,57.0,133.0,4.0,4.1,-164,-254,0,-14,202,-271,600.8134431838989,600.8134813308716,600.8159518241882,600.8279349803925,600.9780683517456,600.9780683517456,600.9780683517456,600.9780683517456,600.9780683517456,600.9780683517456,600.9780683517456,602.8959648609161,3,2.066633939743042,None,,,,,,,,,,,,,,,,,,72,3,2025-02-21_10h56.42.167,comp,2024.2.4,61.81958067725414,2025-02-21 10h56.50.511119 -0500,
124,124,0,critical,wdh,35.0,1.0,upper,125.0,200.0,127.0,127.0,200.0,125.0,3,1.2454643249511719,None,,,,,0,0,0,0,0,124,124,73,602.9114060401917,,,,,,,,,,,,,,,,,,,,,,,,,,,,,,,,,,,,,,,,,,,,,,,,,,,,,,,,,,,,,,,,,,,,,,,,,,,,,,,,,125.0,200.0,127.0,127.0,200.0,125.0,1.0,1.1,-740,277,-480,280,-258,267,602.8967907428741,602.8968322277069,602.8990015983582,602.9114060401917,603.0615937709808,603.0615937709808,603.0615937709808,603.0615937709808,603.0615937709808,603.0615937709808,603.0615937709808,604.1626489162445,3,1.2454643249511719,None,,,,,,,,,,,,,,,,,,72,3,2025-02-21_10h56.42.167,comp,2024.2.4,61.81958067725414,2025-02-21 10h56.50.511119 -0500,
125,125,0,critical,dwh,35.0,2.1,upper,127.0,127.0,125.0,200.0,200.0,125.0,3,1.4107933044433594,None,,,,,0,0,0,0,0,125,125,29,604.1781063079834,,,,,,,,,,,,,,,,,,,,,,,,,,,,,,,,,,,,,,,,,,,,,,,,,,,,,,,,,,,,,,,,,,,,,,,,,,,,,,,,,127.0,127.0,125.0,200.0,200.0,125.0,2.1,2.11,-260,284,0,269,258,-279,604.1635510921478,604.1635913848877,604.166101694107,604.1781063079834,604.3281199932098,604.3281199932098,604.3281199932098,604.3281199932098,604.3281199932098,604.3281199932098,604.3281199932098,605.5958960056305,3,1.4107933044433594,None,,,,,,,,,,,,,,,,,,72,3,2025-02-21_10h56.42.167,comp,2024.2.4,61.81958067725414,2025-02-21 10h56.50.511119 -0500,
126,126,0,filler_random,None,None,None,None,None,None,None,None,None,None,3,0.9212791919708252,None,,,,,0,0,0,0,0,126,126,165,605.6113789081573,,,,,,,,,,,,,,,,,,,,,,,,,,,,,,,,,,,,,,,,,,,,,,,,,,,,,,,,,,,,,,,,,,,,,,,,,,,,,,,,,73.48057888723623,74.69679237225645,123.5234872428283,84.97004182387046,115.66654126436865,190.72425089239323,3.0,3.2,-176,-261,0,-15,234,271,605.5967917442322,605.5968317985535,605.5993132591248,605.6113789081573,605.7612681388855,605.7612681388855,605.7612681388855,605.7612681388855,605.7612681388855,605.7612681388855,605.7612681388855,606.5456762313843,3,0.9212791919708252,None,,,,,,,,,,,,,,,,,,72,3,2025-02-21_10h56.42.167,comp,2024.2.4,61.81958067725414,2025-02-21 10h56.50.511119 -0500,
127,127,0,critical,whd,35.0,4.0,lower,57.0,133.0,133.0,57.0,70.0,70.0,2,1.475949764251709,None,,,,,0,0,0,0,0,127,127,88,606.5611069202423,,,,,,,,,,,,,,,,,,,,,,,,,,,,,,,,,,,,,,,,,,,,,,,,,,,,,,,,,,,,,,,,,,,,,,,,,,,,,,,,,57.0,133.0,133.0,57.0,70.0,70.0,4.0,4.1,-191,-275,0,-13,160,-284,606.5464611053467,606.5465009212494,606.5490343570709,606.5611069202423,606.7111556529999,606.7111556529999,606.7111556529999,606.7111556529999,606.7111556529999,606.7111556529999,606.7111556529999,608.0455965995789,2,1.475949764251709,None,,,,,,,,,,,,,,,,,,72,3,2025-02-21_10h56.42.167,comp,2024.2.4,61.81958067725414,2025-02-21 10h56.50.511119 -0500,
128,128,0,filler_square,None,None,None,None,None,None,None,None,None,None,2,1.071239948272705,None,,,,,0,0,0,0,0,128,128,207,608.0613856315613,,,,,,,,,,,,,,,,,,,,,,,,,,,,,,,,,,,,,,,,,,,,,,,,,,,,,,,,,,,,,,,,,,,,,,,,,,,,,,,,,79.80893142570194,98.95318642529065,105.57349246840766,105.57349246840766,76.85837322005436,68.08401667479461,2.2,2.21,-198,-262,0,289,183,265,608.0465424060822,608.0465812683105,608.048623085022,608.0613856315613,608.2112483978271,608.2112483978271,608.2112483978271,608.2112483978271,608.2112483978271,608.2112483978271,608.2112483978271,609.1456294059753,2,1.071239948272705,None,,,,,,,,,,,,,,,,,,72,3,2025-02-21_10h56.42.167,comp,2024.2.4,61.81958067725414,2025-02-21 10h56.50.511119 -0500,
129,129,0,critical,dhw,20.0,1.0,upper,141.0,141.0,200.0,125.0,125.0,200.0,2,1.2349798679351807,None,,,,,0,0,0,0,0,129,129,55,609.1610682010651,,,,,,,,,,,,,,,,,,,,,,,,,,,,,,,,,,,,,,,,,,,,,,,,,,,,,,,,,,,,,,,,,,,,,,,,,,,,,,,,,141.0,141.0,200.0,125.0,125.0,200.0,1.0,1.1,-709,286,-480,255,-222,258,609.1465435028076,609.1465842723846,609.1491842269897,609.1610682010651,609.3113465309143,609.3113465309143,609.3113465309143,609.3113465309143,609.3113465309143,609.3113465309143,609.3113465309143,610.4126989841461,2,1.2349798679351807,None,,,,,,,,,,,,,,,,,,72,3,2025-02-21_10h56.42.167,comp,2024.2.4,61.81958067725414,2025-02-21 10h56.50.511119 -0500,
130,130,0,critical,whd,20.0,2.1,lower,57.0,133.0,133.0,57.0,78.0,78.0,1,1.466562271118164,None,,,,,0,0,0,0,0,130,130,14,610.4278767108917,,,,,,,,,,,,,,,,,,,,,,,,,,,,,,,,,,,,,,,,,,,,,,,,,,,,,,,,,,,,,,,,,,,,,,,,,,,,,,,,,57.0,133.0,133.0,57.0,78.0,78.0,2.1,2.11,-191,289,0,252,164,-268,610.4134995937347,610.4135398864746,610.4159960746765,610.4278767108917,610.5778765678406,610.5778765678406,610.5778765678406,610.5778765678406,610.5778765678406,610.5778765678406,610.5778765678406,611.8958995342255,1,1.466562271118164,None,,,,,,,,,,,,,,,,,,72,3,2025-02-21_10h56.42.167,comp,2024.2.4,61.81958067725414,2025-02-21 10h56.50.511119 -0500,
131,131,0,critical,whd,20.0,4.0,lower,57.0,133.0,133.0,57.0,78.0,78.0,1,1.9010343551635742,None,,,,,0,0,0,0,0,131,131,94,611.9112482070923,,,,,,,,,,,,,,,,,,,,,,,,,,,,,,,,,,,,,,,,,,,,,,,,,,,,,,,,,,,,,,,,,,,,,,,,,,,,,,,,,57.0,133.0,133.0,57.0,78.0,78.0,4.0,4.1,-191,-275,0,-2,164,-277,611.896703004837,611.8967440128326,611.8993899822235,611.9112482070923,612.0611548423767,612.0611548423767,612.0611548423767,612.0611548423767,612.0611548423767,612.0611548423767,612.0611548423767,613.8295619487762,1,1.9010343551635742,None,,,,,,,,,,,,,,,,,,72,3,2025-02-21_10h56.42.167,comp,2024.2.4,61.81958067725414,2025-02-21 10h56.50.511119 -0500,
132,132,0,filler_square,None,None,None,None,None,None,None,None,None,None,1,1.4654524326324463,None,,,,,0,0,0,0,0,132,132,175,613.8451678752899,,,,,,,,,,,,,,,,,,,,,,,,,,,,,,,,,,,,,,,,,,,,,,,,,,,,,,,,,,,,,,,,,,,,,,,,,,,,,,,,,57.02340629706808,57.439664785851136,57.388933644426174,57.313077657878964,57.52787049669013,57.52787049669013,4.0,4.1,-153,-276,0,-2,153,-278,613.8304874897003,613.8305289745331,613.832560300827,613.8451678752899,613.9953684806824,613.9953684806824,613.9953684806824,613.9953684806824,613.9953684806824,613.9953684806824,613.9953684806824,615.3124277591705,1,1.4654524326324463,None,,,,,,,,,,,,,,,,,,72,3,2025-02-21_10h56.42.167,comp,2024.2.4,61.81958067725414,2025-02-21 10h56.50.511119 -0500,
133,133,0,critical,hwd,35.0,1.0,lower,133.0,57.0,57.0,133.0,70.0,70.0,2,2.01995587348938,None,,,,,0,0,0,0,0,133,133,96,615.3280713558197,,,,,,,,,,,,,,,,,,,,,,,,,,,,,,,,,,,,,,,,,,,,,,,,,,,,,,,,,,,,,,,,,,,,,,,,,,,,,,,,,133.0,57.0,57.0,133.0,70.0,70.0,1.0,1.2,-191,-14,0,-13,198,9,615.3132016658783,615.3132424354553,615.3153688907623,615.3280713558197,615.462194442749,615.462194442749,615.462194442749,615.462194442749,615.462194442749,615.462194442749,615.462194442749,617.3622300624847,2,2.01995587348938,None,,,,,,,,,,,,,,,,,,72,3,2025-02-21_10h56.42.167,comp,2024.2.4,61.81958067725414,2025-02-21 10h56.50.511119 -0500,
134,134,0,critical,dwh,35.0,2.1,lower,70.0,70.0,57.0,133.0,133.0,57.0,2,1.0355467796325684,None,,,,,0,0,0,0,0,134,134,28,617.3776769638062,,,,,,,,,,,,,,,,,,,,,,,,,,,,,,,,,,,,,,,,,,,,,,,,,,,,,,,,,,,,,,,,,,,,,,,,,,,,,,,,,70.0,70.0,57.0,133.0,133.0,57.0,2.1,2.12,-198,-264,0,-267,191,271,617.3630423545837,617.363094329834,617.3654298782349,617.3776769638062,617.52800989151,617.52800989151,617.52800989151,617.52800989151,617.52800989151,617.52800989151,617.52800989151,618.4290063381195,2,1.0355467796325684,None,,,,,,,,,,,,,,,,,,72,3,2025-02-21_10h56.42.167,comp,2024.2.4,61.81958067725414,2025-02-21 10h56.50.511119 -0500,
135,135,0,critical,hdw,35.0,4.0,upper,200.0,125.0,127.0,127.0,125.0,200.0,3,1.583939552307129,None,,,,,0,0,0,0,0,135,135,113,618.4444234371185,,,,,,,,,,,,,,,,,,,,,,,,,,,,,,,,,,,,,,,,,,,,,,,,,,,,,,,,,,,,,,,,,,,,,,,,,,,,,,,,,200.0,125.0,127.0,127.0,125.0,200.0,4.0,4.1,-222,-255,0,-6,260,-256,618.4298141002655,618.4298553466797,618.4324417114258,618.4444234371185,618.5947880744934,618.5947880744934,618.5947880744934,618.5947880744934,618.5947880744934,618.5947880744934,618.5947880744934,620.0458545684814,3,1.583939552307129,None,,,,,,,,,,,,,,,,,,72,3,2025-02-21_10h56.42.167,comp,2024.2.4,61.81958067725414,2025-02-21 10h56.50.511119 -0500,
136,136,0,critical,hwd,20.0,4.0,lower,133.0,57.0,57.0,133.0,78.0,78.0,1,1.5520339012145996,None,,,,,0,0,0,0,0,136,136,106,620.06112408638,,,,,,,,,,,,,,,,,,,,,,,,,,,,,,,,,,,,,,,,,,,,,,,,,,,,,,,,,,,,,,,,,,,,,,,,,,,,,,,,,133.0,57.0,57.0,133.0,78.0,78.0,4.0,4.2,-191,11,0,-283,202,-10,620.0466635227203,620.0467040538788,620.0491914749146,620.06112408638,620.2115259170532,620.2115259170532,620.2115259170532,620.2115259170532,620.2115259170532,620.2115259170532,620.2115259170532,621.628853559494,1,1.5520339012145996,None,,,,,,,,,,,,,,,,,,72,3,2025-02-21_10h56.42.167,comp,2024.2.4,61.81958067725414,2025-02-21 10h56.50.511119 -0500,
137,137,0,critical,dhw,35.0,3.0,lower,70.0,70.0,133.0,57.0,57.0,133.0,2,1.4882066249847412,None,,,,,0,0,0,0,0,137,137,50,621.6443300247192,,,,,,,,,,,,,,,,,,,,,,,,,,,,,,,,,,,,,,,,,,,,,,,,,,,,,,,,,,,,,,,,,,,,,,,,,,,,,,,,,70.0,70.0,133.0,57.0,57.0,133.0,3.0,3.2,-160,-257,0,17,191,288,621.6296594142914,621.6297001838684,621.6322536468506,621.6443300247192,621.7944693565369,621.7944693565369,621.7944693565369,621.7944693565369,621.7944693565369,621.7944693565369,621.7944693565369,623.1455497741699,2,1.4882066249847412,None,,,,,,,,,,,,,,,,,,72,3,2025-02-21_10h56.42.167,comp,2024.2.4,61.81958067725414,2025-02-21 10h56.50.511119 -0500,
138,138,0,filler_square,None,None,None,None,None,None,None,None,None,None,3,1.4435534477233887,None,,,,,0,0,0,0,0,138,138,197,623.1610233783722,,,,,,,,,,,,,,,,,,,,,,,,,,,,,,,,,,,,,,,,,,,,,,,,,,,,,,,,,,,,,,,,,,,,,,,,,,,,,,,,,57.38014859137587,59.32651850704487,57.666327214171005,57.85115572155898,59.5052431725743,59.5052431725743,2.1,2.12,-155,-268,0,-289,155,259,623.1465406417847,623.146582365036,623.149080991745,623.1610233783722,623.3111562728882,623.3111562728882,623.3111562728882,623.3111562728882,623.3111562728882,623.3111562728882,623.3111562728882,624.6123774051666,3,1.4435534477233887,None,,,,,,,,,,,,,,,,,,72,3,2025-02-21_10h56.42.167,comp,2024.2.4,61.81958067725414,2025-02-21 10h56.50.511119 -0500,
139,139,0,critical,hwd,20.0,2.1,upper,200.0,125.0,125.0,200.0,141.0,141.0,1,2.4715185165405273,None,,,,,0,0,0,0,0,139,139,19,624.6282472610474,,,,,,,,,,,,,,,,,,,,,,,,,,,,,,,,,,,,,,,,,,,,,,,,,,,,,,,,,,,,,,,,,,,,,,,,,,,,,,,,,200.0,125.0,125.0,200.0,141.0,141.0,2.1,2.11,-258,265,0,251,266,-262,624.6131799221039,624.6132209300995,624.6153044700623,624.6282472610474,624.7779319286346,624.7779319286346,624.7779319286346,624.7779319286346,624.7779319286346,624.7779319286346,624.7779319286346,627.1124596595764,1,2.4715185165405273,None,,,,,,,,,,,,,,,,,,72,3,2025-02-21_10h56.42.167,comp,2024.2.4,61.81958067725414,2025-02-21 10h56.50.511119 -0500,
140,140,0,critical,dwh,35.0,4.0,upper,127.0,127.0,125.0,200.0,200.0,125.0,2,2.524892807006836,None,,,,,0,0,0,0,0,140,140,65,627.1277058124542,,,,,,,,,,,,,,,,,,,,,,,,,,,,,,,,,,,,,,,,,,,,,,,,,,,,,,,,,,,,,,,,,,,,,,,,,,,,,,,,,127.0,127.0,125.0,200.0,200.0,125.0,4.0,4.2,-260,-7,0,-264,258,8,627.1132717132568,627.1133108139038,627.1157138347626,627.1277058124542,627.2779784202576,627.2779784202576,627.2779784202576,627.2779784202576,627.2779784202576,627.2779784202576,627.2779784202576,629.6625773906708,2,2.524892807006836,None,,,,,,,,,,,,,,,,,,72,3,2025-02-21_10h56.42.167,comp,2024.2.4,61.81958067725414,2025-02-21 10h56.50.511119 -0500,
