thisN,thisTrialN,thisRepN,effect,order,distance,config,diag,h_1,w_1,h_2,w_2,h_3,w_3,rect_choice.keys,rect_choice.rt,rect_choice.duration,instructions_loop.thisRepN,instructions_loop.thisTrialN,instructions_loop.thisN,instructions_loop.thisIndex,blocks.thisRepN,blocks.thisTrialN,blocks.thisN,blocks.thisIndex,trials.thisRepN,trials.thisTrialN,trials.thisN,trials.thisIndex,thisRow.t,notes,consent.started,agree_button.started,decline_button.started,consent_img.started,mouse.started,consent.stopped,agree_button.numClicks,agree_button.timesOn,agree_button.timesOff,decline_button.numClicks,decline_button.timesOn,decline_button.timesOff,mouse.x,mouse.y,mouse.leftButton,mouse.midButton,mouse.rightButton,mouse.time,mouse.clicked_name,exp_params.started,exp_params.stopped,welcome.started,welcome_text.started,welcome_text.stopped,welcome.stopped,instructions_1.started,instructions_1_text_1.started,instructions_1_text_2.started,key_resp.started,instructions_1.stopped,instructions_loop.key_resp.keys,instructions_loop.key_resp.rt,instructions_loop.key_resp.duration,instructions_2.started,instructions_2_text_1.started,instructions_2_text_2.started,key_resp_2.started,instructions_2.stopped,instructions_loop.key_resp_2.keys,instructions_loop.key_resp_2.rt,instructions_loop.key_resp_2.duration,instructions_3.started,instructions_3_text_1.started,r1_instr3.started,r2_instr3.started,r3_instr3.started,r1_instr3_label.started,r2_instr3_label.started,r3_instr3_label.started,instructions_3_text_3.started,instructions_3_text_4.started,key_resp_3.started,instructions_3.stopped,instructions_loop.key_resp_3.keys,instructions_loop.key_resp_3.rt,instructions_loop.key_resp_3.duration,instructions_4.started,instructions_4_text_1.started,instructions_4_text_3.started,instructions_4_text_2.started,key_resp_4.started,instructions_4.stopped,instructions_loop.key_resp_4.keys,instructions_loop.key_resp_4.rt,instructions_loop.key_resp_4.duration,instructions_5.started,instructions_5_text_1.started,instructions_5_text_2.started,key_resp_5.started,instructions_5.stopped,instructions_loop.key_resp_5.keys,instructions_loop.key_resp_5.rt,instructions_loop.key_resp_5.duration,start_exp.started,start_exp_text.started,key_resp_6.started,start_exp.stopped,key_resp_6.keys,key_resp_6.rt,key_resp_6.duration,h_1_tmp,w_1_tmp,h_2_tmp,w_2_tmp,h_3_tmp,w_3_tmp,config_tmp,config_tmp_1,r_1_x,r_1_y,r_2_x,r_2_y,r_3_x,r_3_y,pre_trial.started,pre_trial.stopped,choice_trial.started,rect_choice.started,r_1.started,r_2.started,r_3.started,r_1_label.started,r_2_label.started,r_3_label.started,prompt.started,choice_trial.stopped,trials.rect_choice.keys,trials.rect_choice.rt,trials.rect_choice.duration,end_block.started,end_block_text.started,end_block.stopped,end.started,end_text.started,key_resp_7.started,end.stopped,key_resp_7.keys,key_resp_7.rt,key_resp_7.duration,debriefing.started,debrief_form.started,end_debrief.started,debriefing.stopped,end_debrief.keys,end_debrief.rt,end_debrief.duration,participant,computer,date,expName,psychopyVersion,frameRate,expStart,
,,,,,,,,,,,,,,,,,,,,,,,,,,,,,,,0.016000986099243164,0.04212164878845215,0.04212164878845215,0.04212164878845215,0.015436172485351562,26.59278130531311,1,[26.549416065216064],[26.549425840377808],0,,,[-44.0],[-495.0],[1],[0],[0],[26.57601237297058],['agree_button'],,,,,,,,,,,,,,,,,,,,,,,,,,,,,,,,,,,,,,,,,,,,,,,,,,,,,,,,,,,,,,,,,,,,,,,,,,,,,,,,,,,,,,,,,,,,,,,,,,,,,,,,,,,,74,5,2025-02-21_11h01.45.038,comp,2024.2.4,61.053970767835594,2025-02-21 11h01.51.846161 -0500,
,,,,,,,,,,,,,,,,,,,,,,,,,,,,,,,,,,,,,,,,,,,,,,,,,,26.59306240081787,26.593097448349,,,,,,,,,,,,,,,,,,,,,,,,,,,,,,,,,,,,,,,,,,,,,,,,,,,,,,,,,,,,,,,,,,,,,,,,,,,,,,,,,,,,,,,,,,,,,,,,,,,,,,,,,,74,5,2025-02-21_11h01.45.038,comp,2024.2.4,61.053970767835594,2025-02-21 11h01.51.846161 -0500,
,,,,,,,,,,,,,,,,,,,,,,,,,,,,,,,,,,,,,,,,,,,,,,,,,,,,26.59312105178833,26.60642409324646,28.609557151794434,28.592830896377563,,,,,,,,,,,,,,,,,,,,,,,,,,,,,,,,,,,,,,,,,,,,,,,,,,,,,,,,,,,,,,,,,,,,,,,,,,,,,,,,,,,,,,,,,,,,,,,,,,,,,,74,5,2025-02-21_11h01.45.038,comp,2024.2.4,61.053970767835594,2025-02-21 11h01.51.846161 -0500,
0,0,0,,,,,,,,,,,,,,,0,0,0,0,,,,,,,,,28.609557151794434,,,,,,,,,,,,,,,,,,,,,,,,,,,28.59336543083191,28.609557151794434,28.609557151794434,30.092745780944824,32.72739887237549,space,2.62580943107605,None,32.72749876976013,32.7434458732605,32.7434458732605,34.24285864830017,45.91051745414734,space,11.659559965133667,None,45.9106011390686,45.9313600063324,45.9313600063324,45.9313600063324,45.9313600063324,45.9313600063324,45.9313600063324,45.9313600063324,45.9313600063324,45.9313600063324,47.40991759300232,57.27777910232544,space,9.860356569290161,None,57.27786993980408,57.29321336746216,57.29321336746216,57.29321336746216,58.792744636535645,70.46069717407227,space,11.661481618881226,None,70.46078515052795,70.47620034217834,70.47620034217834,71.97589802742004,73.47702121734619,space,1.494152545928955,None,73.47712898254395,73.49269795417786,73.49269795417786,75.69347214698792,space,2.184635877609253,None,,,,,,,,,,,,,,,,,,,,,,,,,,,,,,,,,,,,,,,,,,,,,,,74,5,2025-02-21_11h01.45.038,comp,2024.2.4,61.053970767835594,2025-02-21 11h01.51.846161 -0500,
0,0,0,critical,whd,35.0,1.0,upper,125.0,200.0,200.0,125.0,127.0,127.0,1,5.99032187461853,None,,,,,0,0,0,0,0,0,0,85,75.75267910957336,,,,,,,,,,,,,,,,,,,,,,,,,,,,,,,,,,,,,,,,,,,,,,,,,,,,,,,,,,,,,,,,,,,,,,,,,,,,,,,,,,125.0,200.0,200.0,125.0,127.0,127.0,1.0,1.3,222,-254,480,-264,702,-253,75.73879647254944,75.73884463310242,75.74105286598206,75.75267910957336,75.89910078048706,75.89910078048706,75.89910078048706,75.89910078048706,75.89910078048706,75.89910078048706,75.89910078048706,81.76049494743347,1,5.99032187461853,None,,,,,,,,,,,,,,,,,,74,5,2025-02-21_11h01.45.038,comp,2024.2.4,61.053970767835594,2025-02-21 11h01.51.846161 -0500,
1,1,0,critical,dwh,20.0,4.0,lower,78.0,78.0,57.0,133.0,133.0,57.0,1,19.677923679351807,None,,,,,0,0,0,0,0,1,1,70,81.77584028244019,,,,,,,,,,,,,,,,,,,,,,,,,,,,,,,,,,,,,,,,,,,,,,,,,,,,,,,,,,,,,,,,,,,,,,,,,,,,,,,,,,78.0,78.0,57.0,133.0,133.0,57.0,4.0,4.2,-202,16,0,-290,191,20,81.76127910614014,81.76131987571716,81.76343441009521,81.77584028244019,81.92576384544373,81.92576384544373,81.92576384544373,81.92576384544373,81.92576384544373,81.92576384544373,81.92576384544373,101.46017718315125,1,19.677923679351807,None,,,,,,,,,,,,,,,,,,74,5,2025-02-21_11h01.45.038,comp,2024.2.4,61.053970767835594,2025-02-21 11h01.51.846161 -0500,
2,2,0,critical,wdh,35.0,2.1,lower,57.0,133.0,70.0,70.0,133.0,57.0,3,13.25827670097351,None,,,,,0,0,0,0,0,2,2,8,101.47593951225281,,,,,,,,,,,,,,,,,,,,,,,,,,,,,,,,,,,,,,,,,,,,,,,,,,,,,,,,,,,,,,,,,,,,,,,,,,,,,,,,,,57.0,133.0,70.0,70.0,133.0,57.0,2.1,2.11,-198,278,0,267,160,-277,101.46097612380981,101.46101760864258,101.46348643302917,101.47593951225281,101.6256811618805,101.6256811618805,101.6256811618805,101.6256811618805,101.6256811618805,101.6256811618805,101.6256811618805,114.7434458732605,3,13.25827670097351,None,,,,,,,,,,,,,,,,,,74,5,2025-02-21_11h01.45.038,comp,2024.2.4,61.053970767835594,2025-02-21 11h01.51.846161 -0500,
3,3,0,filler_random,None,None,None,None,None,None,None,None,None,None,3,3.9267683029174805,None,,,,,0,0,0,0,0,3,3,168,114.75910377502441,,,,,,,,,,,,,,,,,,,,,,,,,,,,,,,,,,,,,,,,,,,,,,,,,,,,,,,,,,,,,,,,,,,,,,,,,,,,,,,,,,78.12394760456277,108.5139152030658,117.40545152828977,106.61961533450967,196.37935295529113,172.15200103061812,4.0,4.1,-204,-282,0,-17,235,-278,114.74436545372009,114.74441933631897,114.74672245979309,114.75910377502441,114.90907096862793,114.90907096862793,114.90907096862793,114.90907096862793,114.90907096862793,114.90907096862793,114.90907096862793,118.69350695610046,3,3.9267683029174805,None,,,,,,,,,,,,,,,,,,74,5,2025-02-21_11h01.45.038,comp,2024.2.4,61.053970767835594,2025-02-21 11h01.51.846161 -0500,
4,4,0,critical,wdh,35.0,3.0,upper,125.0,200.0,127.0,127.0,200.0,125.0,1,7.7045371532440186,None,,,,,0,0,0,0,0,4,4,75,118.70910501480103,,,,,,,,,,,,,,,,,,,,,,,,,,,,,,,,,,,,,,,,,,,,,,,,,,,,,,,,,,,,,,,,,,,,,,,,,,,,,,,,,,125.0,200.0,127.0,127.0,200.0,125.0,3.0,3.2,-260,-257,0,-19,222,267,118.69429397583008,118.69433665275574,118.69661068916321,118.70910501480103,118.85906553268433,118.85906553268433,118.85906553268433,118.85906553268433,118.85906553268433,118.85906553268433,118.85906553268433,126.42688417434692,1,7.7045371532440186,None,,,,,,,,,,,,,,,,,,74,5,2025-02-21_11h01.45.038,comp,2024.2.4,61.053970767835594,2025-02-21 11h01.51.846161 -0500,
5,5,0,filler_square,None,None,None,None,None,None,None,None,None,None,3,3.1868467330932617,None,,,,,0,0,0,0,0,5,5,174,126.44213509559631,,,,,,,,,,,,,,,,,,,,,,,,,,,,,,,,,,,,,,,,,,,,,,,,,,,,,,,,,,,,,,,,,,,,,,,,,,,,,,,,,,100.01627522361787,62.054208506103286,58.641703582697524,69.22881108673415,184.70627477650368,184.70627477650368,3.0,3.1,-162,261,0,-8,223,-278,126.42782235145569,126.42786145210266,126.43019008636475,126.44213509559631,126.59229850769043,126.59229850769043,126.59229850769043,126.59229850769043,126.59229850769043,126.59229850769043,126.59229850769043,129.64335823059082,3,3.1868467330932617,None,,,,,,,,,,,,,,,,,,74,5,2025-02-21_11h01.45.038,comp,2024.2.4,61.053970767835594,2025-02-21 11h01.51.846161 -0500,
6,6,0,critical,dwh,35.0,2.1,upper,127.0,127.0,125.0,200.0,200.0,125.0,2,7.148457050323486,None,,,,,0,0,0,0,0,6,6,5,129.65865683555603,,,,,,,,,,,,,,,,,,,,,,,,,,,,,,,,,,,,,,,,,,,,,,,,,,,,,,,,,,,,,,,,,,,,,,,,,,,,,,,,,,127.0,127.0,125.0,200.0,200.0,125.0,2.1,2.11,-260,276,0,253,258,-271,129.6441526412964,129.64419221878052,129.64617204666138,129.65865683555603,129.80916547775269,129.80916547775269,129.80916547775269,129.80916547775269,129.80916547775269,129.80916547775269,129.80916547775269,136.81031465530396,2,7.148457050323486,None,,,,,,,,,,,,,,,,,,74,5,2025-02-21_11h01.45.038,comp,2024.2.4,61.053970767835594,2025-02-21 11h01.51.846161 -0500,
7,7,0,critical,wdh,35.0,2.1,upper,125.0,200.0,127.0,127.0,200.0,125.0,1,4.79643988609314,None,,,,,0,0,0,0,0,7,7,9,136.82562351226807,,,,,,,,,,,,,,,,,,,,,,,,,,,,,,,,,,,,,,,,,,,,,,,,,,,,,,,,,,,,,,,,,,,,,,,,,,,,,,,,,,125.0,200.0,127.0,127.0,200.0,125.0,2.1,2.11,-260,274,0,262,222,-282,136.81112051010132,136.81116199493408,136.81321454048157,136.82562351226807,136.97595477104187,136.97595477104187,136.97595477104187,136.97595477104187,136.97595477104187,136.97595477104187,136.97595477104187,141.6271035671234,1,4.79643988609314,None,,,,,,,,,,,,,,,,,,74,5,2025-02-21_11h01.45.038,comp,2024.2.4,61.053970767835594,2025-02-21 11h01.51.846161 -0500,
8,8,0,critical,dwh,20.0,4.0,upper,141.0,141.0,125.0,200.0,200.0,125.0,3,12.754462718963623,None,,,,,0,0,0,0,0,8,8,71,141.6423373222351,,,,,,,,,,,,,,,,,,,,,,,,,,,,,,,,,,,,,,,,,,,,,,,,,,,,,,,,,,,,,,,,,,,,,,,,,,,,,,,,,,141.0,141.0,125.0,200.0,200.0,125.0,4.0,4.1,-266,-289,0,-5,258,-263,141.62792086601257,141.6279616355896,141.63002562522888,141.6423373222351,141.79242300987244,141.79242300987244,141.79242300987244,141.79242300987244,141.79242300987244,141.79242300987244,141.79242300987244,154.41003727912903,3,12.754462718963623,None,,,,,,,,,,,,,,,,,,74,5,2025-02-21_11h01.45.038,comp,2024.2.4,61.053970767835594,2025-02-21 11h01.51.846161 -0500,
9,9,0,critical,dwh,35.0,4.0,lower,70.0,70.0,57.0,133.0,133.0,57.0,2,6.1082985401153564,None,,,,,0,0,0,0,0,9,9,64,154.42527174949646,,,,,,,,,,,,,,,,,,,,,,,,,,,,,,,,,,,,,,,,,,,,,,,,,,,,,,,,,,,,,,,,,,,,,,,,,,,,,,,,,,70.0,70.0,57.0,133.0,133.0,57.0,4.0,4.1,-198,-263,0,16,191,-264,154.41085529327393,154.41089725494385,154.41333317756653,154.42527174949646,154.57532286643982,154.57532286643982,154.57532286643982,154.57532286643982,154.57532286643982,154.57532286643982,154.57532286643982,160.54300355911255,2,6.1082985401153564,None,,,,,,,,,,,,,,,,,,74,5,2025-02-21_11h01.45.038,comp,2024.2.4,61.053970767835594,2025-02-21 11h01.51.846161 -0500,
10,10,0,critical,whd,20.0,1.0,lower,57.0,133.0,133.0,57.0,78.0,78.0,1,7.710811614990234,None,,,,,0,0,0,0,0,10,10,90,160.55876326560974,,,,,,,,,,,,,,,,,,,,,,,,,,,,,,,,,,,,,,,,,,,,,,,,,,,,,,,,,,,,,,,,,,,,,,,,,,,,,,,,,,57.0,133.0,133.0,57.0,78.0,78.0,1.0,1.1,-671,250,-480,253,-316,253,160.54381322860718,160.54385471343994,160.54628038406372,160.55876326560974,160.70861840248108,160.70861840248108,160.70861840248108,160.70861840248108,160.70861840248108,160.70861840248108,160.70861840248108,168.27643132209778,1,7.710811614990234,None,,,,,,,,,,,,,,,,,,74,5,2025-02-21_11h01.45.038,comp,2024.2.4,61.053970767835594,2025-02-21 11h01.51.846161 -0500,
11,11,0,critical,hwd,35.0,2.1,upper,200.0,125.0,125.0,200.0,127.0,127.0,1,5.641659736633301,None,,,,,0,0,0,0,0,11,11,41,168.29200267791748,,,,,,,,,,,,,,,,,,,,,,,,,,,,,,,,,,,,,,,,,,,,,,,,,,,,,,,,,,,,,,,,,,,,,,,,,,,,,,,,,,200.0,125.0,125.0,200.0,127.0,127.0,2.1,2.11,-258,267,0,268,260,-251,168.27721118927002,168.2772524356842,168.27947878837585,168.29200267791748,168.4422252178192,168.4422252178192,168.4422252178192,168.4422252178192,168.4422252178192,168.4422252178192,168.4422252178192,173.94320583343506,1,5.641659736633301,None,,,,,,,,,,,,,,,,,,74,5,2025-02-21_11h01.45.038,comp,2024.2.4,61.053970767835594,2025-02-21 11h01.51.846161 -0500,
12,12,0,critical,dwh,35.0,4.0,upper,127.0,127.0,125.0,200.0,200.0,125.0,2,4.39098048210144,None,,,,,0,0,0,0,0,12,12,65,173.9587323665619,,,,,,,,,,,,,,,,,,,,,,,,,,,,,,,,,,,,,,,,,,,,,,,,,,,,,,,,,,,,,,,,,,,,,,,,,,,,,,,,,,127.0,127.0,125.0,200.0,200.0,125.0,4.0,4.1,-260,-283,0,-19,258,-282,173.94401860237122,173.94405913352966,173.94647097587585,173.9587323665619,174.1087999343872,174.1087999343872,174.1087999343872,174.1087999343872,174.1087999343872,174.1087999343872,174.1087999343872,178.36001586914062,2,4.39098048210144,None,,,,,,,,,,,,,,,,,,74,5,2025-02-21_11h01.45.038,comp,2024.2.4,61.053970767835594,2025-02-21 11h01.51.846161 -0500,
13,13,0,critical,whd,35.0,3.0,lower,57.0,133.0,133.0,57.0,70.0,70.0,1,7.237781763076782,None,,,,,0,0,0,0,0,13,13,86,178.37539410591125,,,,,,,,,,,,,,,,,,,,,,,,,,,,,,,,,,,,,,,,,,,,,,,,,,,,,,,,,,,,,,,,,,,,,,,,,,,,,,,,,,57.0,133.0,133.0,57.0,70.0,70.0,3.0,3.1,-191,251,0,12,160,-286,178.36080932617188,178.3608512878418,178.36334133148193,178.37539410591125,178.5252227783203,178.5252227783203,178.5252227783203,178.5252227783203,178.5252227783203,178.5252227783203,178.5252227783203,185.62619066238403,1,7.237781763076782,None,,,,,,,,,,,,,,,,,,74,5,2025-02-21_11h01.45.038,comp,2024.2.4,61.053970767835594,2025-02-21 11h01.51.846161 -0500,
14,14,0,critical,wdh,35.0,4.0,lower,57.0,133.0,70.0,70.0,133.0,57.0,1,5.771514415740967,None,,,,,0,0,0,0,0,14,14,76,185.6416881084442,,,,,,,,,,,,,,,,,,,,,,,,,,,,,,,,,,,,,,,,,,,,,,,,,,,,,,,,,,,,,,,,,,,,,,,,,,,,,,,,,,57.0,133.0,70.0,70.0,133.0,57.0,4.0,4.1,-198,-261,0,8,160,-287,185.6269919872284,185.62703227996826,185.6295680999756,185.6416881084442,185.79178094863892,185.79178094863892,185.79178094863892,185.79178094863892,185.79178094863892,185.79178094863892,185.79178094863892,191.42619371414185,1,5.771514415740967,None,,,,,,,,,,,,,,,,,,74,5,2025-02-21_11h01.45.038,comp,2024.2.4,61.053970767835594,2025-02-21 11h01.51.846161 -0500,
15,15,0,filler_square,None,None,None,None,None,None,None,None,None,None,2,3.250688076019287,None,,,,,0,0,0,0,0,15,15,190,191.44174551963806,,,,,,,,,,,,,,,,,,,,,,,,,,,,,,,,,,,,,,,,,,,,,,,,,,,,,,,,,,,,,,,,,,,,,,,,,,,,,,,,,,106.91426978816261,86.40221978819508,122.8806352437953,122.8806352437953,122.39773814263792,97.58751482293376,2.1,2.12,-201,-251,0,-283,206,274,191.42718148231506,191.4272243976593,191.4297754764557,191.44174551963806,191.59191179275513,191.59191179275513,191.59191179275513,191.59191179275513,191.59191179275513,191.59191179275513,191.59191179275513,194.70949602127075,2,3.250688076019287,None,,,,,,,,,,,,,,,,,,74,5,2025-02-21_11h01.45.038,comp,2024.2.4,61.053970767835594,2025-02-21 11h01.51.846161 -0500,
16,16,0,filler_random,None,None,None,None,None,None,None,None,None,None,2,2.3675148487091064,None,,,,,0,0,0,0,0,16,16,153,194.72495889663696,,,,,,,,,,,,,,,,,,,,,,,,,,,,,,,,,,,,,,,,,,,,,,,,,,,,,,,,,,,,,,,,,,,,,,,,,,,,,,,,,,119.06073871892173,65.03018493728254,88.32646694179292,192.82050200253727,99.83058207264088,60.2385587472039,2.1,2.12,-225,-276,0,-281,223,282,194.7104570865631,194.71049785614014,194.71283674240112,194.72495889663696,194.87510538101196,194.87510538101196,194.87510538101196,194.87510538101196,194.87510538101196,194.87510538101196,194.87510538101196,197.10999011993408,2,2.3675148487091064,None,,,,,,,,,,,,,,,,,,74,5,2025-02-21_11h01.45.038,comp,2024.2.4,61.053970767835594,2025-02-21 11h01.51.846161 -0500,
17,17,0,critical,hdw,20.0,2.1,upper,200.0,125.0,141.0,141.0,125.0,200.0,3,26.617027282714844,None,,,,,0,0,0,0,0,17,17,47,197.1249964237213,,,,,,,,,,,,,,,,,,,,,,,,,,,,,,,,,,,,,,,,,,,,,,,,,,,,,,,,,,,,,,,,,,,,,,,,,,,,,,,,,,200.0,125.0,141.0,141.0,125.0,200.0,2.1,2.11,-229,290,0,276,266,-251,197.11075973510742,197.11080026626587,197.11309909820557,197.1249964237213,197.27534937858582,197.27534937858582,197.27534937858582,197.27534937858582,197.27534937858582,197.27534937858582,197.27534937858582,223.759526014328,3,26.617027282714844,None,,,,,,,,,,,,,,,,,,74,5,2025-02-21_11h01.45.038,comp,2024.2.4,61.053970767835594,2025-02-21 11h01.51.846161 -0500,
18,18,0,critical,dhw,20.0,2.1,upper,141.0,141.0,200.0,125.0,125.0,200.0,3,3.3891615867614746,None,,,,,0,0,0,0,0,18,18,3,223.7749729156494,,,,,,,,,,,,,,,,,,,,,,,,,,,,,,,,,,,,,,,,,,,,,,,,,,,,,,,,,,,,,,,,,,,,,,,,,,,,,,,,,,141.0,141.0,200.0,125.0,125.0,200.0,2.1,2.11,-229,269,0,278,258,-253,223.7603313922882,223.76037335395813,223.76243686676025,223.7749729156494,223.9250946044922,223.9250946044922,223.9250946044922,223.9250946044922,223.9250946044922,223.9250946044922,223.9250946044922,227.17659211158752,3,3.3891615867614746,None,,,,,,,,,,,,,,,,,,74,5,2025-02-21_11h01.45.038,comp,2024.2.4,61.053970767835594,2025-02-21 11h01.51.846161 -0500,
19,19,0,critical,wdh,20.0,3.0,upper,125.0,200.0,141.0,141.0,200.0,125.0,1,3.3993091583251953,None,,,,,0,0,0,0,0,19,19,81,227.19143962860107,,,,,,,,,,,,,,,,,,,,,,,,,,,,,,,,,,,,,,,,,,,,,,,,,,,,,,,,,,,,,,,,,,,,,,,,,,,,,,,,,,125.0,200.0,141.0,141.0,200.0,125.0,3.0,3.2,-266,-253,0,8,229,288,227.17738938331604,227.17744421958923,227.17951440811157,227.19143962860107,227.34199404716492,227.34199404716492,227.34199404716492,227.34199404716492,227.34199404716492,227.34199404716492,227.34199404716492,230.59320211410522,1,3.3993091583251953,None,,,,,,,,,,,,,,,,,,74,5,2025-02-21_11h01.45.038,comp,2024.2.4,61.053970767835594,2025-02-21 11h01.51.846161 -0500,
20,20,0,critical,hdw,20.0,4.0,upper,200.0,125.0,141.0,141.0,125.0,200.0,1,6.404532194137573,None,,,,,0,0,0,0,0,20,20,119,230.60832977294922,,,,,,,,,,,,,,,,,,,,,,,,,,,,,,,,,,,,,,,,,,,,,,,,,,,,,,,,,,,,,,,,,,,,,,,,,,,,,,,,,,200.0,125.0,141.0,141.0,125.0,200.0,4.0,4.1,-229,-286,0,10,266,-258,230.5939917564392,230.59403276443481,230.59615063667297,230.60832977294922,230.75843620300293,230.75843620300293,230.75843620300293,230.75843620300293,230.75843620300293,230.75843620300293,230.75843620300293,237.02614402770996,1,6.404532194137573,None,,,,,,,,,,,,,,,,,,74,5,2025-02-21_11h01.45.038,comp,2024.2.4,61.053970767835594,2025-02-21 11h01.51.846161 -0500,
21,21,0,critical,dhw,35.0,3.0,lower,70.0,70.0,133.0,57.0,57.0,133.0,2,2.733346462249756,None,,,,,0,0,0,0,0,21,21,50,237.0412859916687,,,,,,,,,,,,,,,,,,,,,,,,,,,,,,,,,,,,,,,,,,,,,,,,,,,,,,,,,,,,,,,,,,,,,,,,,,,,,,,,,,70.0,70.0,133.0,57.0,57.0,133.0,3.0,3.1,-160,262,0,1,191,-260,237.0269808769226,237.02702260017395,237.0295169353485,237.0412859916687,237.19156646728516,237.19156646728516,237.19156646728516,237.19156646728516,237.19156646728516,237.19156646728516,237.19156646728516,239.7762222290039,2,2.733346462249756,None,,,,,,,,,,,,,,,,,,74,5,2025-02-21_11h01.45.038,comp,2024.2.4,61.053970767835594,2025-02-21 11h01.51.846161 -0500,
22,22,0,filler_square,None,None,None,None,None,None,None,None,None,None,3,5.23670506477356,None,,,,,0,0,0,0,0,22,22,175,239.79157996177673,,,,,,,,,,,,,,,,,,,,,,,,,,,,,,,,,,,,,,,,,,,,,,,,,,,,,,,,,,,,,,,,,,,,,,,,,,,,,,,,,,97.35764747494699,162.4255870426802,183.0175448705109,188.4087852209163,192.35488948577026,192.35488948577026,2.1,2.12,-271,-251,0,-257,286,279,239.7771701812744,239.7772114276886,239.7797086238861,239.79157996177673,239.94169211387634,239.94169211387634,239.94169211387634,239.94169211387634,239.94169211387634,239.94169211387634,239.94169211387634,245.0429573059082,3,5.23670506477356,None,,,,,,,,,,,,,,,,,,74,5,2025-02-21_11h01.45.038,comp,2024.2.4,61.053970767835594,2025-02-21 11h01.51.846161 -0500,
23,23,0,critical,hwd,20.0,4.0,lower,133.0,57.0,57.0,133.0,78.0,78.0,2,3.442943811416626,None,,,,,0,0,0,0,0,23,23,106,245.0580599308014,,,,,,,,,,,,,,,,,,,,,,,,,,,,,,,,,,,,,,,,,,,,,,,,,,,,,,,,,,,,,,,,,,,,,,,,,,,,,,,,,,133.0,57.0,57.0,133.0,78.0,78.0,4.0,4.2,-191,-19,0,-278,202,-2,245.04376125335693,245.04380297660828,245.04592776298523,245.0580599308014,245.20833659172058,245.20833659172058,245.20833659172058,245.20833659172058,245.20833659172058,245.20833659172058,245.20833659172058,248.5091302394867,2,3.442943811416626,None,,,,,,,,,,,,,,,,,,74,5,2025-02-21_11h01.45.038,comp,2024.2.4,61.053970767835594,2025-02-21 11h01.51.846161 -0500,
24,24,0,critical,whd,35.0,2.1,upper,125.0,200.0,200.0,125.0,127.0,127.0,1,3.5353004932403564,None,,,,,0,0,0,0,0,24,24,13,248.5249786376953,,,,,,,,,,,,,,,,,,,,,,,,,,,,,,,,,,,,,,,,,,,,,,,,,,,,,,,,,,,,,,,,,,,,,,,,,,,,,,,,,,125.0,200.0,200.0,125.0,127.0,127.0,2.1,2.11,-258,287,0,260,222,-284,248.5099642276764,248.51000571250916,248.51222705841064,248.5249786376953,248.67495822906494,248.67495822906494,248.67495822906494,248.67495822906494,248.67495822906494,248.67495822906494,248.67495822906494,252.07621574401855,1,3.5353004932403564,None,,,,,,,,,,,,,,,,,,74,5,2025-02-21_11h01.45.038,comp,2024.2.4,61.053970767835594,2025-02-21 11h01.51.846161 -0500,
25,25,0,critical,wdh,35.0,1.0,lower,57.0,133.0,70.0,70.0,133.0,57.0,1,3.4336228370666504,None,,,,,0,0,0,0,0,25,25,72,252.09137153625488,,,,,,,,,,,,,,,,,,,,,,,,,,,,,,,,,,,,,,,,,,,,,,,,,,,,,,,,,,,,,,,,,,,,,,,,,,,,,,,,,,57.0,133.0,70.0,70.0,133.0,57.0,1.0,1.2,-198,2,0,10,160,-14,252.07703852653503,252.07707953453064,252.07921051979065,252.09137153625488,252.24133443832397,252.24133443832397,252.24133443832397,252.24133443832397,252.24133443832397,252.24133443832397,252.24133443832397,255.52615904808044,1,3.4336228370666504,None,,,,,,,,,,,,,,,,,,74,5,2025-02-21_11h01.45.038,comp,2024.2.4,61.053970767835594,2025-02-21 11h01.51.846161 -0500,
26,26,0,critical,whd,20.0,2.1,upper,125.0,200.0,200.0,125.0,141.0,141.0,1,3.7506022453308105,None,,,,,0,0,0,0,0,26,26,39,255.54147839546204,,,,,,,,,,,,,,,,,,,,,,,,,,,,,,,,,,,,,,,,,,,,,,,,,,,,,,,,,,,,,,,,,,,,,,,,,,,,,,,,,,125.0,200.0,200.0,125.0,141.0,141.0,2.1,2.12,-258,-260,0,-283,229,272,255.52696108818054,255.52700448036194,255.52958273887634,255.54147839546204,255.69152665138245,255.69152665138245,255.69152665138245,255.69152665138245,255.69152665138245,255.69152665138245,255.69152665138245,259.3092153072357,1,3.7506022453308105,None,,,,,,,,,,,,,,,,,,74,5,2025-02-21_11h01.45.038,comp,2024.2.4,61.053970767835594,2025-02-21 11h01.51.846161 -0500,
27,27,0,critical,dhw,20.0,3.0,lower,78.0,78.0,133.0,57.0,57.0,133.0,2,4.417081117630005,None,,,,,0,0,0,0,0,27,27,56,259.3245384693146,,,,,,,,,,,,,,,,,,,,,,,,,,,,,,,,,,,,,,,,,,,,,,,,,,,,,,,,,,,,,,,,,,,,,,,,,,,,,,,,,,78.0,78.0,133.0,57.0,57.0,133.0,3.0,3.2,-164,-253,0,-15,191,267,259.3101260662079,259.3101670742035,259.3126599788666,259.3245384693146,259.4745624065399,259.4745624065399,259.4745624065399,259.4745624065399,259.4745624065399,259.4745624065399,259.4745624065399,263.7591688632965,2,4.417081117630005,None,,,,,,,,,,,,,,,,,,74,5,2025-02-21_11h01.45.038,comp,2024.2.4,61.053970767835594,2025-02-21 11h01.51.846161 -0500,
28,28,0,critical,whd,35.0,1.0,lower,57.0,133.0,133.0,57.0,70.0,70.0,2,6.9585065841674805,None,,,,,0,0,0,0,0,28,28,84,263.7745621204376,,,,,,,,,,,,,,,,,,,,,,,,,,,,,,,,,,,,,,,,,,,,,,,,,,,,,,,,,,,,,,,,,,,,,,,,,,,,,,,,,,57.0,133.0,133.0,57.0,70.0,70.0,1.0,1.3,289,-284,480,-287,640,-271,263.7600018978119,263.7600431442261,263.76254868507385,263.7745621204376,263.9245934486389,263.9245934486389,263.9245934486389,263.9245934486389,263.9245934486389,263.9245934486389,263.9245934486389,270.7424521446228,2,6.9585065841674805,None,,,,,,,,,,,,,,,,,,74,5,2025-02-21_11h01.45.038,comp,2024.2.4,61.053970767835594,2025-02-21 11h01.51.846161 -0500,
29,29,0,critical,hwd,35.0,2.1,upper,200.0,125.0,125.0,200.0,127.0,127.0,1,4.469839334487915,None,,,,,0,0,0,0,0,29,29,17,270.75815629959106,,,,,,,,,,,,,,,,,,,,,,,,,,,,,,,,,,,,,,,,,,,,,,,,,,,,,,,,,,,,,,,,,,,,,,,,,,,,,,,,,,200.0,125.0,125.0,200.0,127.0,127.0,2.1,2.11,-258,267,0,250,260,-282,270.74327754974365,270.7433190345764,270.7461881637573,270.75815629959106,270.9081618785858,270.9081618785858,270.9081618785858,270.9081618785858,270.9081618785858,270.9081618785858,270.9081618785858,275.2425603866577,1,4.469839334487915,None,,,,,,,,,,,,,,,,,,74,5,2025-02-21_11h01.45.038,comp,2024.2.4,61.053970767835594,2025-02-21 11h01.51.846161 -0500,
30,30,0,critical,hdw,20.0,1.0,upper,200.0,125.0,141.0,141.0,125.0,200.0,1,2.1948039531707764,None,,,,,0,0,0,0,0,30,30,115,275.2578706741333,,,,,,,,,,,,,,,,,,,,,,,,,,,,,,,,,,,,,,,,,,,,,,,,,,,,,,,,,,,,,,,,,,,,,,,,,,,,,,,,,,200.0,125.0,141.0,141.0,125.0,200.0,1.0,1.1,-709,270,-480,287,-214,270,275.2433614730835,275.24340319633484,275.24664640426636,275.2578706741333,275.40848541259766,275.40848541259766,275.40848541259766,275.40848541259766,275.40848541259766,275.40848541259766,275.40848541259766,277.4592852592468,1,2.1948039531707764,None,,,,,,,,,,,,,,,,,,74,5,2025-02-21_11h01.45.038,comp,2024.2.4,61.053970767835594,2025-02-21 11h01.51.846161 -0500,
31,31,0,critical,dhw,35.0,2.1,upper,127.0,127.0,200.0,125.0,125.0,200.0,3,4.1464011669158936,None,,,,,0,0,0,0,0,31,31,25,277.47471928596497,,,,,,,,,,,,,,,,,,,,,,,,,,,,,,,,,,,,,,,,,,,,,,,,,,,,,,,,,,,,,,,,,,,,,,,,,,,,,,,,,,127.0,127.0,200.0,125.0,125.0,200.0,2.1,2.12,-222,-282,0,-285,258,265,277.4601035118103,277.46014499664307,277.4626622200012,277.47471928596497,277.6246907711029,277.6246907711029,277.6246907711029,277.6246907711029,277.6246907711029,277.6246907711029,277.6246907711029,281.62584829330444,3,4.1464011669158936,None,,,,,,,,,,,,,,,,,,74,5,2025-02-21_11h01.45.038,comp,2024.2.4,61.053970767835594,2025-02-21 11h01.51.846161 -0500,
32,32,0,catch,None,None,None,None,None,None,None,None,None,None,2,2.09153151512146,None,,,,,0,0,0,0,0,32,32,122,281.6413223743439,,,,,,,,,,,,,,,,,,,,,,,,,,,,,,,,,,,,,,,,,,,,,,,,,,,,,,,,,,,,,,,,,,,,,,,,,,,,,,,,,,66,124,181,144,67,123,2.2,2.21,-230,-287,0,270,230,282,281.62689757347107,281.62693977355957,281.6290092468262,281.6413223743439,281.791405916214,281.791405916214,281.791405916214,281.791405916214,281.791405916214,281.791405916214,281.791405916214,283.742338180542,2,2.09153151512146,None,,,,,,,,,,,,,,,,,,74,5,2025-02-21_11h01.45.038,comp,2024.2.4,61.053970767835594,2025-02-21 11h01.51.846161 -0500,
33,33,0,critical,whd,20.0,2.1,lower,57.0,133.0,133.0,57.0,78.0,78.0,1,5.350267648696899,None,,,,,0,0,0,0,0,33,33,38,283.7579073905945,,,,,,,,,,,,,,,,,,,,,,,,,,,,,,,,,,,,,,,,,,,,,,,,,,,,,,,,,,,,,,,,,,,,,,,,,,,,,,,,,,57.0,133.0,133.0,57.0,78.0,78.0,2.1,2.11,-191,284,0,283,164,-263,283.7431674003601,283.7432076931,283.7454352378845,283.7579073905945,283.90801191329956,283.90801191329956,283.90801191329956,283.90801191329956,283.90801191329956,283.90801191329956,283.90801191329956,289.12552881240845,1,5.350267648696899,None,,,,,,,,,,,,,,,,,,74,5,2025-02-21_11h01.45.038,comp,2024.2.4,61.053970767835594,2025-02-21 11h01.51.846161 -0500,
34,34,0,filler_random,None,None,None,None,None,None,None,None,None,None,3,2.071697235107422,None,,,,,0,0,0,0,0,34,34,165,289.1408689022064,,,,,,,,,,,,,,,,,,,,,,,,,,,,,,,,,,,,,,,,,,,,,,,,,,,,,,,,,,,,,,,,,,,,,,,,,,,,,,,,,,107.65721881786517,96.08676776126437,152.32504333062053,139.08791951191972,180.49335328291758,165.96962371601475,2.1,2.11,-214,283,0,285,249,-258,289.1264443397522,289.12648463249207,289.12881302833557,289.1408689022064,289.29145431518555,289.29145431518555,289.29145431518555,289.29145431518555,289.29145431518555,289.29145431518555,289.29145431518555,291.2257537841797,3,2.071697235107422,None,,,,,,,,,,,,,,,,,,74,5,2025-02-21_11h01.45.038,comp,2024.2.4,61.053970767835594,2025-02-21 11h01.51.846161 -0500,
35,35,0,critical,hdw,20.0,4.0,lower,133.0,57.0,78.0,78.0,57.0,133.0,1,5.859827041625977,None,,,,,0,0,0,0,0,35,35,118,291.24090242385864,,,,,,,,,,,,,,,,,,,,,,,,,,,,,,,,,,,,,,,,,,,,,,,,,,,,,,,,,,,,,,,,,,,,,,,,,,,,,,,,,,133.0,57.0,78.0,78.0,57.0,133.0,4.0,4.1,-164,-285,0,8,202,-281,291.2265269756317,291.2265660762787,291.2288579940796,291.24090242385864,291.3911373615265,291.3911373615265,291.3911373615265,291.3911373615265,291.3911373615265,291.3911373615265,291.3911373615265,297.10881757736206,1,5.859827041625977,None,,,,,,,,,,,,,,,,,,74,5,2025-02-21_11h01.45.038,comp,2024.2.4,61.053970767835594,2025-02-21 11h01.51.846161 -0500,
36,36,0,catch,None,None,None,None,None,None,None,None,None,None,2,1.2496099472045898,None,,,,,0,0,0,0,0,36,36,129,297.12452507019043,,,,,,,,,,,,,,,,,,,,,,,,,,,,,,,,,,,,,,,,,,,,,,,,,,,,,,,,,,,,,,,,,,,,,,,,,,,,,,,,,,79,111,194,131,71,119,2.2,2.21,-217,-286,0,275,221,270,297.109867811203,297.1099102497101,297.1124029159546,297.12452507019043,297.2745532989502,297.2745532989502,297.2745532989502,297.2745532989502,297.2745532989502,297.2745532989502,297.2745532989502,298.37576818466187,2,1.2496099472045898,None,,,,,,,,,,,,,,,,,,74,5,2025-02-21_11h01.45.038,comp,2024.2.4,61.053970767835594,2025-02-21 11h01.51.846161 -0500,
37,37,0,critical,wdh,20.0,1.0,upper,125.0,200.0,141.0,141.0,200.0,125.0,1,3.493701934814453,None,,,,,0,0,0,0,0,37,37,79,298.39116072654724,,,,,,,,,,,,,,,,,,,,,,,,,,,,,,,,,,,,,,,,,,,,,,,,,,,,,,,,,,,,,,,,,,,,,,,,,,,,,,,,,,125.0,200.0,141.0,141.0,200.0,125.0,1.0,1.2,-266,-15,0,16,229,6,298.37655210494995,298.3765940666199,298.3789460659027,298.39116072654724,298.5413091182709,298.5413091182709,298.5413091182709,298.5413091182709,298.5413091182709,298.5413091182709,298.5413091182709,301.89245438575745,1,3.493701934814453,None,,,,,,,,,,,,,,,,,,74,5,2025-02-21_11h01.45.038,comp,2024.2.4,61.053970767835594,2025-02-21 11h01.51.846161 -0500,
38,38,0,critical,dwh,20.0,2.1,upper,141.0,141.0,125.0,200.0,200.0,125.0,3,3.3136236667633057,None,,,,,0,0,0,0,0,38,38,7,301.90783047676086,,,,,,,,,,,,,,,,,,,,,,,,,,,,,,,,,,,,,,,,,,,,,,,,,,,,,,,,,,,,,,,,,,,,,,,,,,,,,,,,,,141.0,141.0,125.0,200.0,200.0,125.0,2.1,2.11,-266,286,0,257,258,-272,301.89325642585754,301.8932981491089,301.8954246044159,301.90783047676086,302.0578987598419,302.0578987598419,302.0578987598419,302.0578987598419,302.0578987598419,302.0578987598419,302.0578987598419,305.225777387619,3,3.3136236667633057,None,,,,,,,,,,,,,,,,,,74,5,2025-02-21_11h01.45.038,comp,2024.2.4,61.053970767835594,2025-02-21 11h01.51.846161 -0500,
39,39,0,critical,dhw,35.0,4.0,upper,127.0,127.0,200.0,125.0,125.0,200.0,2,3.107715368270874,None,,,,,0,0,0,0,0,39,39,53,305.24119424819946,,,,,,,,,,,,,,,,,,,,,,,,,,,,,,,,,,,,,,,,,,,,,,,,,,,,,,,,,,,,,,,,,,,,,,,,,,,,,,,,,,127.0,127.0,200.0,125.0,125.0,200.0,4.0,4.1,-222,-256,0,8,258,-266,305.22657012939453,305.2266118526459,305.2290859222412,305.24119424819946,305.3912229537964,305.3912229537964,305.3912229537964,305.3912229537964,305.3912229537964,305.3912229537964,305.3912229537964,308.3589599132538,2,3.107715368270874,None,,,,,,,,,,,,,,,,,,74,5,2025-02-21_11h01.45.038,comp,2024.2.4,61.053970767835594,2025-02-21 11h01.51.846161 -0500,
40,40,0,critical,hdw,35.0,2.1,lower,133.0,57.0,70.0,70.0,57.0,133.0,3,2.710136890411377,None,,,,,0,0,0,0,0,40,40,44,308.3744480609894,,,,,,,,,,,,,,,,,,,,,,,,,,,,,,,,,,,,,,,,,,,,,,,,,,,,,,,,,,,,,,,,,,,,,,,,,,,,,,,,,,133.0,57.0,70.0,70.0,57.0,133.0,2.1,2.11,-160,252,0,251,198,-278,308.35975074768066,308.3597922325134,308.3622376918793,308.3744480609894,308.5244724750519,308.5244724750519,308.5244724750519,308.5244724750519,308.5244724750519,308.5244724750519,308.5244724750519,311.0920660495758,3,2.710136890411377,None,,,,,,,,,,,,,,,,,,74,5,2025-02-21_11h01.45.038,comp,2024.2.4,61.053970767835594,2025-02-21 11h01.51.846161 -0500,
41,41,0,critical,wdh,20.0,2.1,lower,57.0,133.0,78.0,78.0,133.0,57.0,3,4.5199668407440186,None,,,,,0,0,0,0,0,41,41,34,311.1077518463135,,,,,,,,,,,,,,,,,,,,,,,,,,,,,,,,,,,,,,,,,,,,,,,,,,,,,,,,,,,,,,,,,,,,,,,,,,,,,,,,,,57.0,133.0,78.0,78.0,133.0,57.0,2.1,2.11,-202,286,0,265,164,-275,311.09285378456116,311.0928952693939,311.0953071117401,311.1077518463135,311.2576036453247,311.2576036453247,311.2576036453247,311.2576036453247,311.2576036453247,311.2576036453247,311.2576036453247,315.64202666282654,3,4.5199668407440186,None,,,,,,,,,,,,,,,,,,74,5,2025-02-21_11h01.45.038,comp,2024.2.4,61.053970767835594,2025-02-21 11h01.51.846161 -0500,
42,42,0,critical,dwh,20.0,2.1,lower,78.0,78.0,57.0,133.0,133.0,57.0,2,4.443016052246094,None,,,,,0,0,0,0,0,42,42,6,315.6574800014496,,,,,,,,,,,,,,,,,,,,,,,,,,,,,,,,,,,,,,,,,,,,,,,,,,,,,,,,,,,,,,,,,,,,,,,,,,,,,,,,,,78.0,78.0,57.0,133.0,133.0,57.0,2.1,2.12,-202,-252,0,-253,191,260,315.6428642272949,315.64290404319763,315.64542961120605,315.6574800014496,315.8078534603119,315.8078534603119,315.8078534603119,315.8078534603119,315.8078534603119,315.8078534603119,315.8078534603119,320.1086003780365,2,4.443016052246094,None,,,,,,,,,,,,,,,,,,74,5,2025-02-21_11h01.45.038,comp,2024.2.4,61.053970767835594,2025-02-21 11h01.51.846161 -0500,
43,43,0,filler_random,None,None,None,None,None,None,None,None,None,None,3,1.8497865200042725,None,,,,,0,0,0,0,0,43,43,133,320.1243600845337,,,,,,,,,,,,,,,,,,,,,,,,,,,,,,,,,,,,,,,,,,,,,,,,,,,,,,,,,,,,,,,,,,,,,,,,,,,,,,,,,,184.168093856308,57.803502806175345,157.37624878385736,83.66251573475198,167.52623190895804,142.05770475991238,4.0,4.2,-167,-17,0,-290,209,-14,320.10950565338135,320.1095473766327,320.11187076568604,320.1243600845337,320.27432560920715,320.27432560920715,320.27432560920715,320.27432560920715,320.27432560920715,320.27432560920715,320.27432560920715,321.975732088089,3,1.8497865200042725,None,,,,,,,,,,,,,,,,,,74,5,2025-02-21_11h01.45.038,comp,2024.2.4,61.053970767835594,2025-02-21 11h01.51.846161 -0500,
44,44,0,catch,None,None,None,None,None,None,None,None,None,None,3,1.3414828777313232,None,,,,,0,0,0,0,0,44,44,123,321.9909608364105,,,,,,,,,,,,,,,,,,,,,,,,,,,,,,,,,,,,,,,,,,,,,,,,,,,,,,,,,,,,,,,,,,,,,,,,,,,,,,,,,,73,117,132,58,157,168,1.0,1.1,-664,254,-480,253,-271,284,321.97678422927856,321.97682547569275,321.97920083999634,321.9909608364105,322.1410617828369,322.1410617828369,322.1410617828369,322.1410617828369,322.1410617828369,322.1410617828369,322.1410617828369,323.34203720092773,3,1.3414828777313232,None,,,,,,,,,,,,,,,,,,74,5,2025-02-21_11h01.45.038,comp,2024.2.4,61.053970767835594,2025-02-21 11h01.51.846161 -0500,
45,45,0,filler_random,None,None,None,None,None,None,None,None,None,None,3,1.3426966667175293,None,,,,,0,0,0,0,0,45,45,134,323.3577468395233,,,,,,,,,,,,,,,,,,,,,,,,,,,,,,,,,,,,,,,,,,,,,,,,,,,,,,,,,,,,,,,,,,,,,,,,,,,,,,,,,,64.67196182131978,78.90715355951957,90.6577413095557,76.05039199382209,136.57884708919502,183.04494890312685,1.0,1.2,-173,0,0,6,226,-15,323.34293603897095,323.3429763317108,323.3453629016876,323.3577468395233,323.50751852989197,323.50751852989197,323.50751852989197,323.50751852989197,323.50751852989197,323.50751852989197,323.50751852989197,324.70864605903625,3,1.3426966667175293,None,,,,,,,,,,,,,,,,,,74,5,2025-02-21_11h01.45.038,comp,2024.2.4,61.053970767835594,2025-02-21 11h01.51.846161 -0500,
46,46,0,critical,hdw,35.0,2.1,lower,133.0,57.0,70.0,70.0,57.0,133.0,3,5.039087295532227,None,,,,,0,0,0,0,0,46,46,20,324.72436571121216,,,,,,,,,,,,,,,,,,,,,,,,,,,,,,,,,,,,,,,,,,,,,,,,,,,,,,,,,,,,,,,,,,,,,,,,,,,,,,,,,,133.0,57.0,70.0,70.0,57.0,133.0,2.1,2.11,-160,279,0,257,198,-287,324.70946311950684,324.7095036506653,324.71182680130005,324.72436571121216,324.874142408371,324.874142408371,324.874142408371,324.874142408371,324.874142408371,324.874142408371,324.874142408371,329.77568912506104,3,5.039087295532227,None,,,,,,,,,,,,,,,,,,74,5,2025-02-21_11h01.45.038,comp,2024.2.4,61.053970767835594,2025-02-21 11h01.51.846161 -0500,
47,47,0,filler_square,None,None,None,None,None,None,None,None,None,None,1,5.404878616333008,None,,,,,0,0,0,0,0,47,47,200,329.79069423675537,,,,,,,,,,,,,,,,,,,,,,,,,,,,,,,,,,,,,,,,,,,,,,,,,,,,,,,,,,,,,,,,,,,,,,,,,,,,,,,,,,57.71379956922581,57.39178323545295,58.33160303630277,58.33160303630277,58.193436903886514,57.95091928539737,2.2,2.21,-154,-272,0,255,154,286,329.77665543556213,329.77669739723206,329.7790515422821,329.79069423675537,329.9411246776581,329.9411246776581,329.9411246776581,329.9411246776581,329.9411246776581,329.9411246776581,329.9411246776581,335.2085385322571,1,5.404878616333008,None,,,,,,,,,,,,,,,,,,74,5,2025-02-21_11h01.45.038,comp,2024.2.4,61.053970767835594,2025-02-21 11h01.51.846161 -0500,
48,48,0,critical,dhw,35.0,2.1,lower,70.0,70.0,133.0,57.0,57.0,133.0,2,2.9970240592956543,None,,,,,0,0,0,0,0,48,48,24,335.223979473114,,,,,,,,,,,,,,,,,,,,,,,,,,,,,,,,,,,,,,,,,,,,,,,,,,,,,,,,,,,,,,,,,,,,,,,,,,,,,,,,,,70.0,70.0,133.0,57.0,57.0,133.0,2.1,2.12,-160,-270,0,-261,191,251,335.20931577682495,335.209356546402,335.2116222381592,335.223979473114,335.37436032295227,335.37436032295227,335.37436032295227,335.37436032295227,335.37436032295227,335.37436032295227,335.37436032295227,338.22526383399963,2,2.9970240592956543,None,,,,,,,,,,,,,,,,,,74,5,2025-02-21_11h01.45.038,comp,2024.2.4,61.053970767835594,2025-02-21 11h01.51.846161 -0500,
49,49,0,critical,wdh,35.0,2.1,upper,125.0,200.0,127.0,127.0,200.0,125.0,1,4.386679410934448,None,,,,,0,0,0,0,0,49,49,33,338.2409977912903,,,,,,,,,,,,,,,,,,,,,,,,,,,,,,,,,,,,,,,,,,,,,,,,,,,,,,,,,,,,,,,,,,,,,,,,,,,,,,,,,,125.0,200.0,127.0,127.0,200.0,125.0,2.1,2.12,-260,-286,0,-284,222,280,338.2261016368866,338.22614192962646,338.22870802879333,338.2409977912903,338.3909831047058,338.3909831047058,338.3909831047058,338.3909831047058,338.3909831047058,338.3909831047058,338.3909831047058,342.64227652549744,1,4.386679410934448,None,,,,,,,,,,,,,,,,,,74,5,2025-02-21_11h01.45.038,comp,2024.2.4,61.053970767835594,2025-02-21 11h01.51.846161 -0500,
50,50,0,critical,hwd,35.0,3.0,lower,133.0,57.0,57.0,133.0,70.0,70.0,1,3.506023645401001,None,,,,,0,0,0,0,0,50,50,98,342.6573805809021,,,,,,,,,,,,,,,,,,,,,,,,,,,,,,,,,,,,,,,,,,,,,,,,,,,,,,,,,,,,,,,,,,,,,,,,,,,,,,,,,,133.0,57.0,57.0,133.0,70.0,70.0,3.0,3.2,-191,-285,0,-4,198,272,342.64308619499207,342.64312839508057,342.6456124782562,342.6573805809021,342.8075475692749,342.8075475692749,342.8075475692749,342.8075475692749,342.8075475692749,342.8075475692749,342.8075475692749,346.1755106449127,1,3.506023645401001,None,,,,,,,,,,,,,,,,,,74,5,2025-02-21_11h01.45.038,comp,2024.2.4,61.053970767835594,2025-02-21 11h01.51.846161 -0500,
51,51,0,critical,hdw,35.0,1.0,lower,133.0,57.0,70.0,70.0,57.0,133.0,1,3.8935866355895996,None,,,,,0,0,0,0,0,51,51,108,346.1906645298004,,,,,,,,,,,,,,,,,,,,,,,,,,,,,,,,,,,,,,,,,,,,,,,,,,,,,,,,,,,,,,,,,,,,,,,,,,,,,,,,,,133.0,57.0,70.0,70.0,57.0,133.0,1.0,1.3,320,-283,480,-280,678,-252,346.1763029098511,346.1763427257538,346.1786198616028,346.1906645298004,346.34079933166504,346.34079933166504,346.34079933166504,346.34079933166504,346.34079933166504,346.34079933166504,346.34079933166504,350.09175992012024,1,3.8935866355895996,None,,,,,,,,,,,,,,,,,,74,5,2025-02-21_11h01.45.038,comp,2024.2.4,61.053970767835594,2025-02-21 11h01.51.846161 -0500,
52,52,0,critical,dhw,20.0,1.0,lower,78.0,78.0,133.0,57.0,57.0,133.0,2,4.3132946491241455,None,,,,,0,0,0,0,0,52,52,54,350.1075918674469,,,,,,,,,,,,,,,,,,,,,,,,,,,,,,,,,,,,,,,,,,,,,,,,,,,,,,,,,,,,,,,,,,,,,,,,,,,,,,,,,,78.0,78.0,133.0,57.0,57.0,133.0,1.0,1.3,316,-264,480,-271,671,-266,350.09257459640503,350.09263706207275,350.09502387046814,350.1075918674469,350.2578053474426,350.2578053474426,350.2578053474426,350.2578053474426,350.2578053474426,350.2578053474426,350.2578053474426,354.42520809173584,2,4.3132946491241455,None,,,,,,,,,,,,,,,,,,74,5,2025-02-21_11h01.45.038,comp,2024.2.4,61.053970767835594,2025-02-21 11h01.51.846161 -0500,
53,53,0,filler_square,None,None,None,None,None,None,None,None,None,None,1,1.6112914085388184,None,,,,,0,0,0,0,0,53,53,185,354.4408633708954,,,,,,,,,,,,,,,,,,,,,,,,,,,,,,,,,,,,,,,,,,,,,,,,,,,,,,,,,,,,,,,,,,,,,,,,,,,,,,,,,,133.53511774869227,133.53511774869227,65.3556398432947,106.50301502059489,82.0872321068841,83.48914219661464,1.0,1.3,264,-274,480,-285,671,-260,354.4261803627014,354.4262216091156,354.428658246994,354.4408633708954,354.59064865112305,354.59064865112305,354.59064865112305,354.59064865112305,354.59064865112305,354.59064865112305,354.59064865112305,356.05849838256836,1,1.6112914085388184,None,,,,,,,,,,,,,,,,,,74,5,2025-02-21_11h01.45.038,comp,2024.2.4,61.053970767835594,2025-02-21 11h01.51.846161 -0500,
54,54,0,filler_square,None,None,None,None,None,None,None,None,None,None,3,1.689018964767456,None,,,,,0,0,0,0,0,54,54,191,356.07417011260986,,,,,,,,,,,,,,,,,,,,,,,,,,,,,,,,,,,,,,,,,,,,,,,,,,,,,,,,,,,,,,,,,,,,,,,,,,,,,,,,,,101.51176303220106,98.72309379381642,60.11561768943056,87.33810977841694,103.46314070129486,103.46314070129486,4.0,4.1,-189,-284,0,14,191,-283,356.059442281723,356.0594849586487,356.0614755153656,356.07417011260986,356.22419238090515,356.22419238090515,356.22419238090515,356.22419238090515,356.22419238090515,356.22419238090515,356.22419238090515,357.77559447288513,3,1.689018964767456,None,,,,,,,,,,,,,,,,,,74,5,2025-02-21_11h01.45.038,comp,2024.2.4,61.053970767835594,2025-02-21 11h01.51.846161 -0500,
55,55,0,filler_square,None,None,None,None,None,None,None,None,None,None,2,1.3828861713409424,None,,,,,0,0,0,0,0,55,55,207,357.79092621803284,,,,,,,,,,,,,,,,,,,,,,,,,,,,,,,,,,,,,,,,,,,,,,,,,,,,,,,,,,,,,,,,,,,,,,,,,,,,,,,,,,93.98918055026834,101.52221437252405,142.83597828513788,142.83597828513788,81.20257953664897,135.64340572261264,3.0,3.1,-218,250,0,15,235,-266,357.7765736579895,357.7766149044037,357.77988600730896,357.79092621803284,357.94078755378723,357.94078755378723,357.94078755378723,357.94078755378723,357.94078755378723,357.94078755378723,357.94078755378723,359.1753170490265,2,1.3828861713409424,None,,,,,,,,,,,,,,,,,,74,5,2025-02-21_11h01.45.038,comp,2024.2.4,61.053970767835594,2025-02-21 11h01.51.846161 -0500,
56,56,0,catch,None,None,None,None,None,None,None,None,None,None,1,1.3501722812652588,None,,,,,0,0,0,0,0,56,56,121,359.1907410621643,,,,,,,,,,,,,,,,,,,,,,,,,,,,,,,,,,,,,,,,,,,,,,,,,,,,,,,,,,,,,,,,,,,,,,,,,,,,,,,,,,170,155,95,95,129,61,2.2,2.21,-221,-284,0,284,174,288,359.17636156082153,359.17640209198,359.1790096759796,359.1907410621643,359.3408224582672,359.3408224582672,359.3408224582672,359.3408224582672,359.3408224582672,359.3408224582672,359.3408224582672,360.55858063697815,1,1.3501722812652588,None,,,,,,,,,,,,,,,,,,74,5,2025-02-21_11h01.45.038,comp,2024.2.4,61.053970767835594,2025-02-21 11h01.51.846161 -0500,
57,57,0,filler_random,None,None,None,None,None,None,None,None,None,None,3,1.3837213516235352,None,,,,,0,0,0,0,0,57,57,141,360.5738344192505,,,,,,,,,,,,,,,,,,,,,,,,,,,,,,,,,,,,,,,,,,,,,,,,,,,,,,,,,,,,,,,,,,,,,,,,,,,,,,,,,,159.7327311428792,92.94409783222042,98.83745233588829,70.10650973062889,196.90225810049358,120.27513277203599,4.0,4.1,-178,-263,0,-16,191,-251,360.5594861507416,360.5595266819,360.5618405342102,360.5738344192505,360.72412371635437,360.72412371635437,360.72412371635437,360.72412371635437,360.72412371635437,360.72412371635437,360.72412371635437,361.9751126766205,3,1.3837213516235352,None,,,,,,,,,,,,,,,,,,74,5,2025-02-21_11h01.45.038,comp,2024.2.4,61.053970767835594,2025-02-21 11h01.51.846161 -0500,
58,58,0,critical,whd,20.0,2.1,upper,125.0,200.0,200.0,125.0,141.0,141.0,2,4.18294358253479,None,,,,,0,0,0,0,0,58,58,15,361.9905757904053,,,,,,,,,,,,,,,,,,,,,,,,,,,,,,,,,,,,,,,,,,,,,,,,,,,,,,,,,,,,,,,,,,,,,,,,,,,,,,,,,,125.0,200.0,200.0,125.0,141.0,141.0,2.1,2.12,-258,-274,0,-257,229,254,361.9759576320648,361.975998878479,361.9784960746765,361.9905757904053,362.141065120697,362.141065120697,362.141065120697,362.141065120697,362.141065120697,362.141065120697,362.141065120697,366.175341129303,2,4.18294358253479,None,,,,,,,,,,,,,,,,,,74,5,2025-02-21_11h01.45.038,comp,2024.2.4,61.053970767835594,2025-02-21 11h01.51.846161 -0500,
59,59,0,filler_random,None,None,None,None,None,None,None,None,None,None,2,1.172327995300293,None,,,,,0,0,0,0,0,59,59,155,366.19077730178833,,,,,,,,,,,,,,,,,,,,,,,,,,,,,,,,,,,,,,,,,,,,,,,,,,,,,,,,,,,,,,,,,,,,,,,,,,,,,,,,,,66.81060536343037,61.290614699892146,169.60535623990143,172.29317793197947,62.828324075001326,112.98796546885265,2.1,2.12,-213,-263,0,-253,239,256,366.17625188827515,366.17629289627075,366.17838644981384,366.19077730178833,366.340763092041,366.340763092041,366.340763092041,366.340763092041,366.340763092041,366.340763092041,366.340763092041,367.3752360343933,2,1.172327995300293,None,,,,,,,,,,,,,,,,,,74,5,2025-02-21_11h01.45.038,comp,2024.2.4,61.053970767835594,2025-02-21 11h01.51.846161 -0500,
60,60,0,filler_square,None,None,None,None,None,None,None,None,None,None,3,1.8368680477142334,None,,,,,0,0,0,0,0,60,60,192,367.3904674053192,,,,,,,,,,,,,,,,,,,,,,,,,,,,,,,,,,,,,,,,,,,,,,,,,,,,,,,,,,,,,,,,,,,,,,,,,,,,,,,,,,65.94805890546789,60.866244740606604,66.33542432042813,78.65486946974124,79.92697385505818,79.92697385505818,4.0,4.1,-166,-274,0,4,175,-251,367.3761990070343,367.3762421607971,367.3787143230438,367.3904674053192,367.54077649116516,367.54077649116516,367.54077649116516,367.54077649116516,367.54077649116516,367.54077649116516,367.54077649116516,369.2415702342987,3,1.8368680477142334,None,,,,,,,,,,,,,,,,,,74,5,2025-02-21_11h01.45.038,comp,2024.2.4,61.053970767835594,2025-02-21 11h01.51.846161 -0500,
61,61,0,filler_random,None,None,None,None,None,None,None,None,None,None,3,5.770227909088135,None,,,,,0,0,0,0,0,61,61,143,369.25716376304626,,,,,,,,,,,,,,,,,,,,,,,,,,,,,,,,,,,,,,,,,,,,,,,,,,,,,,,,,,,,,,,,,,,,,,,,,,,,,,,,,,182.7094403161057,131.1380978382627,139.64838633290364,78.50238739587707,184.15172328400618,168.64524834038707,3.0,3.2,-201,-274,0,3,220,278,369.2424919605255,369.2425322532654,369.2448778152466,369.25716376304626,369.4075276851654,369.4075276851654,369.4075276851654,369.4075276851654,369.4075276851654,369.4075276851654,369.4075276851654,375.0420153141022,3,5.770227909088135,None,,,,,,,,,,,,,,,,,,74,5,2025-02-21_11h01.45.038,comp,2024.2.4,61.053970767835594,2025-02-21 11h01.51.846161 -0500,
62,62,0,critical,hwd,20.0,1.0,upper,200.0,125.0,125.0,200.0,141.0,141.0,2,13.202012538909912,None,,,,,0,0,0,0,0,62,62,103,375.0573081970215,,,,,,,,,,,,,,,,,,,,,,,,,,,,,,,,,,,,,,,,,,,,,,,,,,,,,,,,,,,,,,,,,,,,,,,,,,,,,,,,,,200.0,125.0,125.0,200.0,141.0,141.0,1.0,1.1,-738,284,-480,256,-214,287,375.0428183078766,375.04285955429077,375.04522490501404,375.0573081970215,375.2076196670532,375.2076196670532,375.2076196670532,375.2076196670532,375.2076196670532,375.2076196670532,375.2076196670532,388.27524518966675,2,13.202012538909912,None,,,,,,,,,,,,,,,,,,74,5,2025-02-21_11h01.45.038,comp,2024.2.4,61.053970767835594,2025-02-21 11h01.51.846161 -0500,
63,63,0,filler_random,None,None,None,None,None,None,None,None,None,None,1,1.977672815322876,None,,,,,0,0,0,0,0,63,63,167,388.29030990600586,,,,,,,,,,,,,,,,,,,,,,,,,,,,,,,,,,,,,,,,,,,,,,,,,,,,,,,,,,,,,,,,,,,,,,,,,,,,,,,,,,156.04754309066146,129.91479191467187,57.044571484911415,188.30156006526488,148.58714096208166,128.33350555493237,4.0,4.2,-255,-8,0,-271,254,-15,388.276150226593,388.2761905193329,388.2786502838135,388.29030990600586,388.4406614303589,388.4406614303589,388.4406614303589,388.4406614303589,388.4406614303589,388.4406614303589,388.4406614303589,390.27503085136414,1,1.977672815322876,None,,,,,,,,,,,,,,,,,,74,5,2025-02-21_11h01.45.038,comp,2024.2.4,61.053970767835594,2025-02-21 11h01.51.846161 -0500,
64,64,0,critical,hdw,35.0,4.0,upper,200.0,125.0,127.0,127.0,125.0,200.0,3,5.530088186264038,None,,,,,0,0,0,0,0,64,64,113,390.2904930114746,,,,,,,,,,,,,,,,,,,,,,,,,,,,,,,,,,,,,,,,,,,,,,,,,,,,,,,,,,,,,,,,,,,,,,,,,,,,,,,,,,200.0,125.0,127.0,127.0,125.0,200.0,4.0,4.2,-222,2,0,-269,260,-2,390.2757761478424,390.27581572532654,390.2781572341919,390.2904930114746,390.4407663345337,390.4407663345337,390.4407663345337,390.4407663345337,390.4407663345337,390.4407663345337,390.4407663345337,395.8251338005066,3,5.530088186264038,None,,,,,,,,,,,,,,,,,,74,5,2025-02-21_11h01.45.038,comp,2024.2.4,61.053970767835594,2025-02-21 11h01.51.846161 -0500,
65,65,0,critical,whd,35.0,3.0,upper,125.0,200.0,200.0,125.0,127.0,127.0,1,2.450770139694214,None,,,,,0,0,0,0,0,65,65,87,395.84049558639526,,,,,,,,,,,,,,,,,,,,,,,,,,,,,,,,,,,,,,,,,,,,,,,,,,,,,,,,,,,,,,,,,,,,,,,,,,,,,,,,,,125.0,200.0,200.0,125.0,127.0,127.0,3.0,3.2,-258,-285,0,-5,222,274,395.8259243965149,395.82596468925476,395.8285219669342,395.84049558639526,395.99059319496155,395.99059319496155,395.99059319496155,395.99059319496155,395.99059319496155,395.99059319496155,395.99059319496155,398.3083996772766,1,2.450770139694214,None,,,,,,,,,,,,,,,,,,74,5,2025-02-21_11h01.45.038,comp,2024.2.4,61.053970767835594,2025-02-21 11h01.51.846161 -0500,
66,66,0,critical,dwh,35.0,2.1,upper,127.0,127.0,125.0,200.0,200.0,125.0,2,2.36739444732666,None,,,,,0,0,0,0,0,66,66,29,398.3237156867981,,,,,,,,,,,,,,,,,,,,,,,,,,,,,,,,,,,,,,,,,,,,,,,,,,,,,,,,,,,,,,,,,,,,,,,,,,,,,,,,,,127.0,127.0,125.0,200.0,200.0,125.0,2.1,2.12,-260,-275,0,-267,258,275,398.30921268463135,398.3092520236969,398.31216955184937,398.3237156867981,398.4738736152649,398.4738736152649,398.4738736152649,398.4738736152649,398.4738736152649,398.4738736152649,398.4738736152649,400.7083086967468,2,2.36739444732666,None,,,,,,,,,,,,,,,,,,74,5,2025-02-21_11h01.45.038,comp,2024.2.4,61.053970767835594,2025-02-21 11h01.51.846161 -0500,
67,67,0,critical,hwd,20.0,4.0,upper,200.0,125.0,125.0,200.0,141.0,141.0,1,3.488081216812134,None,,,,,0,0,0,0,0,67,67,107,400.72365617752075,,,,,,,,,,,,,,,,,,,,,,,,,,,,,,,,,,,,,,,,,,,,,,,,,,,,,,,,,,,,,,,,,,,,,,,,,,,,,,,,,,200.0,125.0,125.0,200.0,141.0,141.0,4.0,4.1,-258,-272,0,-9,266,-252,400.7091133594513,400.709153175354,400.7112274169922,400.72365617752075,400.87417554855347,400.87417554855347,400.87417554855347,400.87417554855347,400.87417554855347,400.87417554855347,400.87417554855347,404.22499895095825,1,3.488081216812134,None,,,,,,,,,,,,,,,,,,74,5,2025-02-21_11h01.45.038,comp,2024.2.4,61.053970767835594,2025-02-21 11h01.51.846161 -0500,
68,68,0,critical,dwh,35.0,2.1,lower,70.0,70.0,57.0,133.0,133.0,57.0,2,4.971430540084839,None,,,,,0,0,0,0,0,68,68,28,404.2403054237366,,,,,,,,,,,,,,,,,,,,,,,,,,,,,,,,,,,,,,,,,,,,,,,,,,,,,,,,,,,,,,,,,,,,,,,,,,,,,,,,,,70.0,70.0,57.0,133.0,133.0,57.0,2.1,2.12,-198,-270,0,-252,191,264,404.22582936286926,404.22587060928345,404.22830152511597,404.2403054237366,404.3903977870941,404.3903977870941,404.3903977870941,404.3903977870941,404.3903977870941,404.3903977870941,404.3903977870941,409.2247769832611,2,4.971430540084839,None,,,,,,,,,,,,,,,,,,74,5,2025-02-21_11h01.45.038,comp,2024.2.4,61.053970767835594,2025-02-21 11h01.51.846161 -0500,
69,69,0,filler_random,None,None,None,None,None,None,None,None,None,None,1,1.6347427368164062,None,,,,,0,0,0,0,0,69,69,149,409.240252494812,,,,,,,,,,,,,,,,,,,,,,,,,,,,,,,,,,,,,,,,,,,,,,,,,,,,,,,,,,,,,,,,,,,,,,,,,,,,,,,,,,190.50028353199997,134.06625948747137,63.95239877851583,67.93850202435802,83.57541061468125,117.91627068869978,2.2,2.22,-197,272,0,-289,189,-262,409.22578167915344,409.2258229255676,409.22838139533997,409.240252494812,409.39033102989197,409.39033102989197,409.39033102989197,409.39033102989197,409.39033102989197,409.39033102989197,409.39033102989197,410.89140367507935,1,1.6347427368164062,None,,,,,,,,,,,,,,,,,,74,5,2025-02-21_11h01.45.038,comp,2024.2.4,61.053970767835594,2025-02-21 11h01.51.846161 -0500,
70,70,0,filler_square,None,None,None,None,None,None,None,None,None,None,1,3.0559234619140625,None,,,,,0,0,0,0,0,70,70,205,410.90688014030457,,,,,,,,,,,,,,,,,,,,,,,,,,,,,,,,,,,,,,,,,,,,,,,,,,,,,,,,,,,,,,,,,,,,,,,,,,,,,,,,,,126.33677967382872,126.33677967382872,107.08363304610555,120.40433448754675,120.95167150964107,81.39993598232053,2.2,2.22,-219,255,0,-287,197,-283,410.89237809181213,410.89243149757385,410.89473485946655,410.90688014030457,411.05723428726196,411.05723428726196,411.05723428726196,411.05723428726196,411.05723428726196,411.05723428726196,411.05723428726196,413.9750943183899,1,3.0559234619140625,None,,,,,,,,,,,,,,,,,,74,5,2025-02-21_11h01.45.038,comp,2024.2.4,61.053970767835594,2025-02-21 11h01.51.846161 -0500,
71,71,0,critical,hwd,35.0,4.0,upper,200.0,125.0,125.0,200.0,127.0,127.0,2,3.1504671573638916,None,,,,,0,0,0,0,0,71,71,101,413.9902238845825,,,,,,,,,,,,,,,,,,,,,,,,,,,,,,,,,,,,,,,,,,,,,,,,,,,,,,,,,,,,,,,,,,,,,,,,,,,,,,,,,,200.0,125.0,125.0,200.0,127.0,127.0,4.0,4.2,-258,15,0,-282,260,-14,413.97589015960693,413.9759294986725,413.9785420894623,413.9902238845825,414.1405100822449,414.1405100822449,414.1405100822449,414.1405100822449,414.1405100822449,414.1405100822449,414.1405100822449,417.15832328796387,2,3.1504671573638916,None,,,,,,,,,,,,,,,,,,74,5,2025-02-21_11h01.45.038,comp,2024.2.4,61.053970767835594,2025-02-21 11h01.51.846161 -0500,
72,72,0,filler_random,None,None,None,None,None,None,None,None,None,None,2,1.7669355869293213,None,,,,,0,0,0,0,0,72,72,137,417.1735517978668,,,,,,,,,,,,,,,,,,,,,,,,,,,,,,,,,,,,,,,,,,,,,,,,,,,,,,,,,,,,,,,,,,,,,,,,,,,,,,,,,,140.84890188933406,60.82164719322255,87.14892388098873,186.80413537597332,139.71215561173244,61.6569247622151,2.1,2.12,-220,-272,0,-286,220,287,417.1592478752136,417.15928840637207,417.1618001461029,417.1735517978668,417.32375717163086,417.32375717163086,417.32375717163086,417.32375717163086,417.32375717163086,417.32375717163086,417.32375717163086,418.94168758392334,2,1.7669355869293213,None,,,,,,,,,,,,,,,,,,74,5,2025-02-21_11h01.45.038,comp,2024.2.4,61.053970767835594,2025-02-21 11h01.51.846161 -0500,
73,73,0,filler_square,None,None,None,None,None,None,None,None,None,None,1,4.669902086257935,None,,,,,0,0,0,0,0,73,73,177,418.9571204185486,,,,,,,,,,,,,,,,,,,,,,,,,,,,,,,,,,,,,,,,,,,,,,,,,,,,,,,,,,,,,,,,,,,,,,,,,,,,,,,,,,60.543303000809345,59.48553525039464,62.754766386849134,62.754766386849134,59.290592718925076,62.41952122466091,2.2,2.21,-157,-281,0,280,159,274,418.94266629219055,418.94270849227905,418.94494891166687,418.9571204185486,419.1069104671478,419.1069104671478,419.1069104671478,419.1069104671478,419.1069104671478,419.1069104671478,419.1069104671478,423.6412887573242,1,4.669902086257935,None,,,,,,,,,,,,,,,,,,74,5,2025-02-21_11h01.45.038,comp,2024.2.4,61.053970767835594,2025-02-21 11h01.51.846161 -0500,
74,74,0,critical,wdh,20.0,4.0,lower,57.0,133.0,78.0,78.0,133.0,57.0,1,5.258881568908691,None,,,,,0,0,0,0,0,74,74,82,423.6568293571472,,,,,,,,,,,,,,,,,,,,,,,,,,,,,,,,,,,,,,,,,,,,,,,,,,,,,,,,,,,,,,,,,,,,,,,,,,,,,,,,,,57.0,133.0,78.0,78.0,133.0,57.0,4.0,4.2,-202,-7,0,-256,164,17,423.6420919895172,423.64213395118713,423.6446671485901,423.6568293571472,423.80686950683594,423.80686950683594,423.80686950683594,423.80686950683594,423.80686950683594,423.80686950683594,423.80686950683594,428.9245057106018,1,5.258881568908691,None,,,,,,,,,,,,,,,,,,74,5,2025-02-21_11h01.45.038,comp,2024.2.4,61.053970767835594,2025-02-21 11h01.51.846161 -0500,
75,75,0,critical,hdw,35.0,4.0,lower,133.0,57.0,70.0,70.0,57.0,133.0,3,4.344446897506714,None,,,,,0,0,0,0,0,75,75,112,428.94023060798645,,,,,,,,,,,,,,,,,,,,,,,,,,,,,,,,,,,,,,,,,,,,,,,,,,,,,,,,,,,,,,,,,,,,,,,,,,,,,,,,,,133.0,57.0,70.0,70.0,57.0,133.0,4.0,4.1,-160,-264,0,-10,198,-260,428.925297498703,428.92533922195435,428.92759823799133,428.94023060798645,429.09021973609924,429.09021973609924,429.09021973609924,429.09021973609924,429.09021973609924,429.09021973609924,429.09021973609924,433.29240345954895,3,4.344446897506714,None,,,,,,,,,,,,,,,,,,74,5,2025-02-21_11h01.45.038,comp,2024.2.4,61.053970767835594,2025-02-21 11h01.51.846161 -0500,
76,76,0,critical,hdw,20.0,3.0,upper,200.0,125.0,141.0,141.0,125.0,200.0,3,2.287766933441162,None,,,,,0,0,0,0,0,76,76,117,433.30714416503906,,,,,,,,,,,,,,,,,,,,,,,,,,,,,,,,,,,,,,,,,,,,,,,,,,,,,,,,,,,,,,,,,,,,,,,,,,,,,,,,,,200.0,125.0,141.0,141.0,125.0,200.0,3.0,3.1,-229,266,0,20,266,-265,433.29322695732117,433.293270111084,433.2954182624817,433.30714416503906,433.4571440219879,433.4571440219879,433.4571440219879,433.4571440219879,433.4571440219879,433.4571440219879,433.4571440219879,435.60819816589355,3,2.287766933441162,None,,,,,,,,,,,,,,,,,,74,5,2025-02-21_11h01.45.038,comp,2024.2.4,61.053970767835594,2025-02-21 11h01.51.846161 -0500,
77,77,0,filler_random,None,None,None,None,None,None,None,None,None,None,2,1.349940299987793,None,,,,,0,0,0,0,0,77,77,140,435.62327337265015,,,,,,,,,,,,,,,,,,,,,,,,,,,,,,,,,,,,,,,,,,,,,,,,,,,,,,,,,,,,,,,,,,,,,,,,,,,,,,,,,,108.75787587580807,129.4218279594922,189.71433024856645,123.92280708530595,68.02861236776181,100.50679549364582,3.0,3.1,-223,265,0,8,208,-276,435.6090507507324,435.60908818244934,435.61154341697693,435.62327337265015,435.77375841140747,435.77375841140747,435.77375841140747,435.77375841140747,435.77375841140747,435.77375841140747,435.77375841140747,436.9749348163605,2,1.349940299987793,None,,,,,,,,,,,,,,,,,,74,5,2025-02-21_11h01.45.038,comp,2024.2.4,61.053970767835594,2025-02-21 11h01.51.846161 -0500,
78,78,0,filler_random,None,None,None,None,None,None,None,None,None,None,1,2.2300262451171875,None,,,,,0,0,0,0,0,78,78,169,436.99015712738037,,,,,,,,,,,,,,,,,,,,,,,,,,,,,,,,,,,,,,,,,,,,,,,,,,,,,,,,,,,,,,,,,,,,,,,,,,,,,,,,,,189.13504046536923,93.31270550800036,145.75928089238414,91.65155543838137,71.85955355370727,153.59307220200873,4.0,4.2,-188,-7,0,-257,219,0,436.97577953338623,436.97581791877747,436.9782338142395,436.99015712738037,437.14025235176086,437.14025235176086,437.14025235176086,437.14025235176086,437.14025235176086,437.14025235176086,437.14025235176086,439.22469329833984,1,2.2300262451171875,None,,,,,,,,,,,,,,,,,,74,5,2025-02-21_11h01.45.038,comp,2024.2.4,61.053970767835594,2025-02-21 11h01.51.846161 -0500,
79,79,0,critical,hdw,35.0,1.0,upper,200.0,125.0,127.0,127.0,125.0,200.0,1,2.979706287384033,None,,,,,0,0,0,0,0,79,79,109,439.24020862579346,,,,,,,,,,,,,,,,,,,,,,,,,,,,,,,,,,,,,,,,,,,,,,,,,,,,,,,,,,,,,,,,,,,,,,,,,,,,,,,,,,200.0,125.0,127.0,127.0,125.0,200.0,1.0,1.2,-222,-11,0,-4,260,12,439.22550654411316,439.2255494594574,439.22762274742126,439.24020862579346,439.3903605937958,439.3903605937958,439.3903605937958,439.3903605937958,439.3903605937958,439.3903605937958,439.3903605937958,442.22479128837585,1,2.979706287384033,None,,,,,,,,,,,,,,,,,,74,5,2025-02-21_11h01.45.038,comp,2024.2.4,61.053970767835594,2025-02-21 11h01.51.846161 -0500,
80,80,0,critical,hdw,20.0,3.0,lower,133.0,57.0,78.0,78.0,57.0,133.0,3,5.986727952957153,None,,,,,0,0,0,0,0,80,80,116,442.2401623725891,,,,,,,,,,,,,,,,,,,,,,,,,,,,,,,,,,,,,,,,,,,,,,,,,,,,,,,,,,,,,,,,,,,,,,,,,,,,,,,,,,133.0,57.0,78.0,78.0,57.0,133.0,3.0,3.1,-164,271,0,3,202,-266,442.22558879852295,442.2256305217743,442.22797441482544,442.2401623725891,442.39025950431824,442.39025950431824,442.39025950431824,442.39025950431824,442.39025950431824,442.39025950431824,442.39025950431824,448.2411172389984,3,5.986727952957153,None,,,,,,,,,,,,,,,,,,74,5,2025-02-21_11h01.45.038,comp,2024.2.4,61.053970767835594,2025-02-21 11h01.51.846161 -0500,
81,81,0,critical,hwd,20.0,2.1,upper,200.0,125.0,125.0,200.0,141.0,141.0,2,6.6107752323150635,None,,,,,0,0,0,0,0,81,81,19,448.2567300796509,,,,,,,,,,,,,,,,,,,,,,,,,,,,,,,,,,,,,,,,,,,,,,,,,,,,,,,,,,,,,,,,,,,,,,,,,,,,,,,,,,200.0,125.0,125.0,200.0,141.0,141.0,2.1,2.11,-258,255,0,258,266,-269,448.2419044971466,448.24194383621216,448.2444224357605,448.2567300796509,448.40709114074707,448.40709114074707,448.40709114074707,448.40709114074707,448.40709114074707,448.40709114074707,448.40709114074707,454.8746495246887,2,6.6107752323150635,None,,,,,,,,,,,,,,,,,,74,5,2025-02-21_11h01.45.038,comp,2024.2.4,61.053970767835594,2025-02-21 11h01.51.846161 -0500,
82,82,0,critical,whd,35.0,2.1,upper,125.0,200.0,200.0,125.0,127.0,127.0,2,3.514139413833618,None,,,,,0,0,0,0,0,82,82,37,454.8903982639313,,,,,,,,,,,,,,,,,,,,,,,,,,,,,,,,,,,,,,,,,,,,,,,,,,,,,,,,,,,,,,,,,,,,,,,,,,,,,,,,,,125.0,200.0,200.0,125.0,127.0,127.0,2.1,2.12,-258,-276,0,-275,222,285,454.8754737377167,454.8755159378052,454.8775894641876,454.8903982639313,455.0401566028595,455.0401566028595,455.0401566028595,455.0401566028595,455.0401566028595,455.0401566028595,455.0401566028595,458.4081332683563,2,3.514139413833618,None,,,,,,,,,,,,,,,,,,74,5,2025-02-21_11h01.45.038,comp,2024.2.4,61.053970767835594,2025-02-21 11h01.51.846161 -0500,
83,83,0,filler_random,None,None,None,None,None,None,None,None,None,None,2,2.3492226600646973,None,,,,,0,0,0,0,0,83,83,163,458.42378330230713,,,,,,,,,,,,,,,,,,,,,,,,,,,,,,,,,,,,,,,,,,,,,,,,,,,,,,,,,,,,,,,,,,,,,,,,,,,,,,,,,,59.054339386824076,186.9312582112898,158.67896427735735,111.97947044355774,156.38304523731998,76.41313896351423,3.0,3.1,-245,264,0,-10,190,-281,458.4090111255646,458.4090507030487,458.4110722541809,458.42378330230713,458.57346868515015,458.57346868515015,458.57346868515015,458.57346868515015,458.57346868515015,458.57346868515015,458.57346868515015,460.77493381500244,2,2.3492226600646973,None,,,,,,,,,,,,,,,,,,74,5,2025-02-21_11h01.45.038,comp,2024.2.4,61.053970767835594,2025-02-21 11h01.51.846161 -0500,
84,84,0,critical,dwh,35.0,1.0,lower,70.0,70.0,57.0,133.0,133.0,57.0,2,3.988377571105957,None,,,,,0,0,0,0,0,84,84,60,460.79012751579285,,,,,,,,,,,,,,,,,,,,,,,,,,,,,,,,,,,,,,,,,,,,,,,,,,,,,,,,,,,,,,,,,,,,,,,,,,,,,,,,,,70.0,70.0,57.0,133.0,133.0,57.0,1.0,1.1,-678,255,-480,272,-289,285,460.7757546901703,460.7757956981659,460.7778391838074,460.79012751579285,460.94006299972534,460.94006299972534,460.94006299972534,460.94006299972534,460.94006299972534,460.94006299972534,460.94006299972534,464.7911202907562,2,3.988377571105957,None,,,,,,,,,,,,,,,,,,74,5,2025-02-21_11h01.45.038,comp,2024.2.4,61.053970767835594,2025-02-21 11h01.51.846161 -0500,
85,85,0,filler_random,None,None,None,None,None,None,None,None,None,None,3,1.6048898696899414,None,,,,,0,0,0,0,0,85,85,138,464.8065037727356,,,,,,,,,,,,,,,,,,,,,,,,,,,,,,,,,,,,,,,,,,,,,,,,,,,,,,,,,,,,,,,,,,,,,,,,,,,,,,,,,,105.83175394201422,63.75278934950525,105.1578287327141,139.17902649714523,166.7211802953436,181.2698743022985,4.0,4.2,-197,-19,0,-265,256,-17,464.79201674461365,464.79205775260925,464.7945613861084,464.8065037727356,464.9570372104645,464.9570372104645,464.9570372104645,464.9570372104645,464.9570372104645,464.9570372104645,464.9570372104645,466.4243950843811,3,1.6048898696899414,None,,,,,,,,,,,,,,,,,,74,5,2025-02-21_11h01.45.038,comp,2024.2.4,61.053970767835594,2025-02-21 11h01.51.846161 -0500,
86,86,0,critical,hwd,20.0,1.0,lower,133.0,57.0,57.0,133.0,78.0,78.0,1,6.933478355407715,None,,,,,0,0,0,0,0,86,86,102,466.43983006477356,,,,,,,,,,,,,,,,,,,,,,,,,,,,,,,,,,,,,,,,,,,,,,,,,,,,,,,,,,,,,,,,,,,,,,,,,,,,,,,,,,133.0,57.0,57.0,133.0,78.0,78.0,1.0,1.2,-191,15,0,2,202,-17,466.4251537322998,466.4251928329468,466.42740416526794,466.43983006477356,466.5902738571167,466.5902738571167,466.5902738571167,466.5902738571167,466.5902738571167,466.5902738571167,466.5902738571167,473.374552488327,1,6.933478355407715,None,,,,,,,,,,,,,,,,,,74,5,2025-02-21_11h01.45.038,comp,2024.2.4,61.053970767835594,2025-02-21 11h01.51.846161 -0500,
87,87,0,critical,hdw,20.0,2.1,lower,133.0,57.0,78.0,78.0,57.0,133.0,1,2.8998751640319824,None,,,,,0,0,0,0,0,87,87,46,473.39061188697815,,,,,,,,,,,,,,,,,,,,,,,,,,,,,,,,,,,,,,,,,,,,,,,,,,,,,,,,,,,,,,,,,,,,,,,,,,,,,,,,,,133.0,57.0,78.0,78.0,57.0,133.0,2.1,2.12,-164,-280,0,-280,202,286,473.3753261566162,473.3753683567047,473.37759160995483,473.39061188697815,473.5399227142334,473.5399227142334,473.5399227142334,473.5399227142334,473.5399227142334,473.5399227142334,473.5399227142334,476.30768179893494,1,2.8998751640319824,None,,,,,,,,,,,,,,,,,,74,5,2025-02-21_11h01.45.038,comp,2024.2.4,61.053970767835594,2025-02-21 11h01.51.846161 -0500,
88,88,0,critical,hwd,20.0,2.1,upper,200.0,125.0,125.0,200.0,141.0,141.0,1,2.9674975872039795,None,,,,,0,0,0,0,0,88,88,43,476.323162317276,,,,,,,,,,,,,,,,,,,,,,,,,,,,,,,,,,,,,,,,,,,,,,,,,,,,,,,,,,,,,,,,,,,,,,,,,,,,,,,,,,200.0,125.0,125.0,200.0,141.0,141.0,2.1,2.11,-258,285,0,282,266,-251,476.3084969520569,476.3085427284241,476.3109302520752,476.323162317276,476.4734284877777,476.4734284877777,476.4734284877777,476.4734284877777,476.4734284877777,476.4734284877777,476.4734284877777,479.3078553676605,1,2.9674975872039795,None,,,,,,,,,,,,,,,,,,74,5,2025-02-21_11h01.45.038,comp,2024.2.4,61.053970767835594,2025-02-21 11h01.51.846161 -0500,
89,89,0,filler_square,None,None,None,None,None,None,None,None,None,None,1,1.8553252220153809,None,,,,,0,0,0,0,0,89,89,182,479.3230810165405,,,,,,,,,,,,,,,,,,,,,,,,,,,,,,,,,,,,,,,,,,,,,,,,,,,,,,,,,,,,,,,,,,,,,,,,,,,,,,,,,,95.90271706145208,95.90271706145208,87.38239422616445,76.93305753381006,82.56958662350117,58.594847747729865,2.1,2.11,-182,269,0,276,164,-279,479.3088324069977,479.30887269973755,479.3109529018402,479.3230810165405,479.4731879234314,479.4731879234314,479.4731879234314,479.4731879234314,479.4731879234314,479.4731879234314,479.4731879234314,481.1913163661957,1,1.8553252220153809,None,,,,,,,,,,,,,,,,,,74,5,2025-02-21_11h01.45.038,comp,2024.2.4,61.053970767835594,2025-02-21 11h01.51.846161 -0500,
90,90,0,critical,hdw,20.0,1.0,lower,133.0,57.0,78.0,78.0,57.0,133.0,3,8.100664138793945,None,,,,,0,0,0,0,0,90,90,114,481.206417798996,,,,,,,,,,,,,,,,,,,,,,,,,,,,,,,,,,,,,,,,,,,,,,,,,,,,,,,,,,,,,,,,,,,,,,,,,,,,,,,,,,133.0,57.0,78.0,78.0,57.0,133.0,1.0,1.1,-644,283,-480,255,-278,260,481.192125082016,481.192165851593,481.194776058197,481.206417798996,481.3566098213196,481.3566098213196,481.3566098213196,481.3566098213196,481.3566098213196,481.3566098213196,481.3566098213196,489.3245048522949,3,8.100664138793945,None,,,,,,,,,,,,,,,,,,74,5,2025-02-21_11h01.45.038,comp,2024.2.4,61.053970767835594,2025-02-21 11h01.51.846161 -0500,
91,91,0,filler_random,None,None,None,None,None,None,None,None,None,None,3,1.495528221130371,None,,,,,0,0,0,0,0,91,91,148,489.33969235420227,,,,,,,,,,,,,,,,,,,,,,,,,,,,,,,,,,,,,,,,,,,,,,,,,,,,,,,,,,,,,,,,,,,,,,,,,,,,,,,,,,108.188605865699,113.41013959990377,73.16695265161371,81.62548435679122,133.54433290296282,150.2649627281073,2.2,2.21,-194,-260,0,268,212,252,489.3253974914551,489.3254511356354,489.3277316093445,489.33969235420227,489.4902255535126,489.4902255535126,489.4902255535126,489.4902255535126,489.4902255535126,489.4902255535126,489.4902255535126,490.8409321308136,3,1.495528221130371,None,,,,,,,,,,,,,,,,,,74,5,2025-02-21_11h01.45.038,comp,2024.2.4,61.053970767835594,2025-02-21 11h01.51.846161 -0500,
92,92,0,filler_random,None,None,None,None,None,None,None,None,None,None,3,3.770145893096924,None,,,,,0,0,0,0,0,92,92,157,490.85649943351746,,,,,,,,,,,,,,,,,,,,,,,,,,,,,,,,,,,,,,,,,,,,,,,,,,,,,,,,,,,,,,,,,,,,,,,,,,,,,,,,,,136.6924330171904,58.323795664620434,163.1846304174656,166.9408912922097,172.0982328942136,183.4203389694332,1.0,1.3,271,-280,480,-252,751,-259,490.8418107032776,490.84185218811035,490.84419417381287,490.85649943351746,491.006694316864,491.006694316864,491.006694316864,491.006694316864,491.006694316864,491.006694316864,491.006694316864,494.64099645614624,3,3.770145893096924,None,,,,,,,,,,,,,,,,,,74,5,2025-02-21_11h01.45.038,comp,2024.2.4,61.053970767835594,2025-02-21 11h01.51.846161 -0500,
93,93,0,filler_square,None,None,None,None,None,None,None,None,None,None,3,5.55481219291687,None,,,,,0,0,0,0,0,93,93,187,494.6563239097595,,,,,,,,,,,,,,,,,,,,,,,,,,,,,,,,,,,,,,,,,,,,,,,,,,,,,,,,,,,,,,,,,,,,,,,,,,,,,,,,,,60.842414708628624,59.583319923258934,63.733264547062035,63.733264547062035,60.07164882414956,62.41853121906212,2.2,2.21,-158,-272,0,257,159,260,494.64199113845825,494.64203238487244,494.64445996284485,494.6563239097595,494.8064558506012,494.8064558506012,494.8064558506012,494.8064558506012,494.8064558506012,494.8064558506012,494.8064558506012,500.2240717411041,3,5.55481219291687,None,,,,,,,,,,,,,,,,,,74,5,2025-02-21_11h01.45.038,comp,2024.2.4,61.053970767835594,2025-02-21 11h01.51.846161 -0500,
94,94,0,critical,wdh,20.0,4.0,upper,125.0,200.0,141.0,141.0,200.0,125.0,1,2.6278634071350098,None,,,,,0,0,0,0,0,94,94,83,500.23956823349,,,,,,,,,,,,,,,,,,,,,,,,,,,,,,,,,,,,,,,,,,,,,,,,,,,,,,,,,,,,,,,,,,,,,,,,,,,,,,,,,,125.0,200.0,141.0,141.0,200.0,125.0,4.0,4.2,-266,11,0,-255,229,18,500.2249610424042,500.22500252723694,500.22763204574585,500.23956823349,500.3902499675751,500.3902499675751,500.3902499675751,500.3902499675751,500.3902499675751,500.3902499675751,500.3902499675751,502.8743643760681,1,2.6278634071350098,None,,,,,,,,,,,,,,,,,,74,5,2025-02-21_11h01.45.038,comp,2024.2.4,61.053970767835594,2025-02-21 11h01.51.846161 -0500,
95,95,0,critical,dhw,20.0,1.0,upper,141.0,141.0,200.0,125.0,125.0,200.0,2,3.0723342895507812,None,,,,,0,0,0,0,0,95,95,55,502.88984870910645,,,,,,,,,,,,,,,,,,,,,,,,,,,,,,,,,,,,,,,,,,,,,,,,,,,,,,,,,,,,,,,,,,,,,,,,,,,,,,,,,,141.0,141.0,200.0,125.0,125.0,200.0,1.0,1.1,-709,283,-480,262,-222,288,502.87515687942505,502.87519788742065,502.8772521018982,502.88984870910645,503.03997135162354,503.03997135162354,503.03997135162354,503.03997135162354,503.03997135162354,503.03997135162354,503.03997135162354,505.97451305389404,2,3.0723342895507812,None,,,,,,,,,,,,,,,,,,74,5,2025-02-21_11h01.45.038,comp,2024.2.4,61.053970767835594,2025-02-21 11h01.51.846161 -0500,
96,96,0,filler_square,None,None,None,None,None,None,None,None,None,None,3,3.2151944637298584,None,,,,,0,0,0,0,0,96,96,206,505.98952627182007,,,,,,,,,,,,,,,,,,,,,,,,,,,,,,,,,,,,,,,,,,,,,,,,,,,,,,,,,,,,,,,,,,,,,,,,,,,,,,,,,,75.25682729679062,86.22163656255618,77.44790650302139,68.22826697389783,97.54490313752277,97.54490313752277,2.1,2.11,-173,257,0,272,179,-256,505.9754390716553,505.9754784107208,505.9776921272278,505.98952627182007,506.13976407051086,506.13976407051086,506.13976407051086,506.13976407051086,506.13976407051086,506.13976407051086,506.13976407051086,509.207759141922,3,3.2151944637298584,None,,,,,,,,,,,,,,,,,,74,5,2025-02-21_11h01.45.038,comp,2024.2.4,61.053970767835594,2025-02-21 11h01.51.846161 -0500,
97,97,0,filler_random,None,None,None,None,None,None,None,None,None,None,3,7.70795202255249,None,,,,,0,0,0,0,0,97,97,152,509.22327065467834,,,,,,,,,,,,,,,,,,,,,,,,,,,,,,,,,,,,,,,,,,,,,,,,,,,,,,,,,,,,,,,,,,,,,,,,,,,,,,,,,,103.84142650799029,101.06942189690223,99.8345943988044,191.57314675602657,154.2056441918196,186.4747287689917,2.2,2.21,-242,-261,0,283,285,267,509.2086851596832,509.20872735977173,509.2110130786896,509.22327065467834,509.3731834888458,509.3731834888458,509.3731834888458,509.3731834888458,509.3731834888458,509.3731834888458,509.3731834888458,516.9408392906189,3,7.70795202255249,None,,,,,,,,,,,,,,,,,,74,5,2025-02-21_11h01.45.038,comp,2024.2.4,61.053970767835594,2025-02-21 11h01.51.846161 -0500,
98,98,0,critical,hdw,35.0,3.0,lower,133.0,57.0,70.0,70.0,57.0,133.0,1,6.848236322402954,None,,,,,0,0,0,0,0,98,98,110,516.9563777446747,,,,,,,,,,,,,,,,,,,,,,,,,,,,,,,,,,,,,,,,,,,,,,,,,,,,,,,,,,,,,,,,,,,,,,,,,,,,,,,,,,133.0,57.0,70.0,70.0,57.0,133.0,3.0,3.2,-160,-278,0,-13,198,286,516.9416365623474,516.941677570343,516.9440517425537,516.9563777446747,517.1063196659088,517.1063196659088,517.1063196659088,517.1063196659088,517.1063196659088,517.1063196659088,517.1063196659088,523.8074581623077,1,6.848236322402954,None,,,,,,,,,,,,,,,,,,74,5,2025-02-21_11h01.45.038,comp,2024.2.4,61.053970767835594,2025-02-21 11h01.51.846161 -0500,
99,99,0,critical,wdh,20.0,2.1,lower,57.0,133.0,78.0,78.0,133.0,57.0,3,18.619584560394287,None,,,,,0,0,0,0,0,99,99,10,523.8229846954346,,,,,,,,,,,,,,,,,,,,,,,,,,,,,,,,,,,,,,,,,,,,,,,,,,,,,,,,,,,,,,,,,,,,,,,,,,,,,,,,,,57.0,133.0,78.0,78.0,133.0,57.0,2.1,2.11,-202,259,0,287,164,-269,523.808210849762,523.8082513809204,523.8102343082428,523.8229846954346,523.972950220108,523.972950220108,523.972950220108,523.972950220108,523.972950220108,523.972950220108,523.972950220108,542.4571206569672,3,18.619584560394287,None,,,,,,,,,,,,,,,,,,74,5,2025-02-21_11h01.45.038,comp,2024.2.4,61.053970767835594,2025-02-21 11h01.51.846161 -0500,
100,100,0,critical,hwd,20.0,3.0,lower,133.0,57.0,57.0,133.0,78.0,78.0,2,2.53828763961792,None,,,,,0,0,0,0,0,100,100,104,542.4725782871246,,,,,,,,,,,,,,,,,,,,,,,,,,,,,,,,,,,,,,,,,,,,,,,,,,,,,,,,,,,,,,,,,,,,,,,,,,,,,,,,,,133.0,57.0,57.0,133.0,78.0,78.0,3.0,3.2,-191,-288,0,-8,202,255,542.4578952789307,542.4579365253448,542.459924697876,542.4725782871246,542.6228103637695,542.6228103637695,542.6228103637695,542.6228103637695,542.6228103637695,542.6228103637695,542.6228103637695,545.024041891098,2,2.53828763961792,None,,,,,,,,,,,,,,,,,,74,5,2025-02-21_11h01.45.038,comp,2024.2.4,61.053970767835594,2025-02-21 11h01.51.846161 -0500,
101,101,0,filler_square,None,None,None,None,None,None,None,None,None,None,3,1.6114675998687744,None,,,,,0,0,0,0,0,101,101,189,545.0393626689911,,,,,,,,,,,,,,,,,,,,,,,,,,,,,,,,,,,,,,,,,,,,,,,,,,,,,,,,,,,,,,,,,,,,,,,,,,,,,,,,,,90.58275204872814,69.4867429014327,79.67907656686266,77.25095476608118,97.96354073684276,97.96354073684276,2.2,2.21,-169,-252,0,281,184,259,545.0250232219696,545.025063753128,545.0275294780731,545.0393626689911,545.1894707679749,545.1894707679749,545.1894707679749,545.1894707679749,545.1894707679749,545.1894707679749,545.1894707679749,546.6571848392487,3,1.6114675998687744,None,,,,,,,,,,,,,,,,,,74,5,2025-02-21_11h01.45.038,comp,2024.2.4,61.053970767835594,2025-02-21 11h01.51.846161 -0500,
102,102,0,filler_square,None,None,None,None,None,None,None,None,None,None,1,1.4260904788970947,None,,,,,0,0,0,0,0,102,102,204,546.6728599071503,,,,,,,,,,,,,,,,,,,,,,,,,,,,,,,,,,,,,,,,,,,,,,,,,,,,,,,,,,,,,,,,,,,,,,,,,,,,,,,,,,119.84734963783819,119.84734963783819,90.41324210994537,69.57762721969335,97.27349857674703,82.99636492255725,2.1,2.11,-191,268,0,273,172,-265,546.658141374588,546.6581823825836,546.6607325077057,546.6728599071503,546.822803735733,546.822803735733,546.822803735733,546.822803735733,546.822803735733,546.822803735733,546.822803735733,548.1071047782898,1,1.4260904788970947,None,,,,,,,,,,,,,,,,,,74,5,2025-02-21_11h01.45.038,comp,2024.2.4,61.053970767835594,2025-02-21 11h01.51.846161 -0500,
103,103,0,critical,hdw,35.0,3.0,upper,200.0,125.0,127.0,127.0,125.0,200.0,3,3.2550182342529297,None,,,,,0,0,0,0,0,103,103,111,548.1228692531586,,,,,,,,,,,,,,,,,,,,,,,,,,,,,,,,,,,,,,,,,,,,,,,,,,,,,,,,,,,,,,,,,,,,,,,,,,,,,,,,,,200.0,125.0,127.0,127.0,125.0,200.0,3.0,3.1,-222,261,0,-4,260,-267,548.1079125404358,548.1079535484314,548.1104900836945,548.1228692531586,548.2732880115509,548.2732880115509,548.2732880115509,548.2732880115509,548.2732880115509,548.2732880115509,548.2732880115509,551.3907370567322,3,3.2550182342529297,None,,,,,,,,,,,,,,,,,,74,5,2025-02-21_11h01.45.038,comp,2024.2.4,61.053970767835594,2025-02-21 11h01.51.846161 -0500,
104,104,0,critical,dhw,20.0,2.1,lower,78.0,78.0,133.0,57.0,57.0,133.0,3,2.0523128509521484,None,,,,,0,0,0,0,0,104,104,26,551.4058511257172,,,,,,,,,,,,,,,,,,,,,,,,,,,,,,,,,,,,,,,,,,,,,,,,,,,,,,,,,,,,,,,,,,,,,,,,,,,,,,,,,,78.0,78.0,133.0,57.0,57.0,133.0,2.1,2.11,-164,257,0,266,191,-286,551.3915176391602,551.3915576934814,551.3938992023468,551.4058511257172,551.5560824871063,551.5560824871063,551.5560824871063,551.5560824871063,551.5560824871063,551.5560824871063,551.5560824871063,553.473797082901,3,2.0523128509521484,None,,,,,,,,,,,,,,,,,,74,5,2025-02-21_11h01.45.038,comp,2024.2.4,61.053970767835594,2025-02-21 11h01.51.846161 -0500,
105,105,0,critical,dhw,35.0,2.1,upper,127.0,127.0,200.0,125.0,125.0,200.0,2,2.050556182861328,None,,,,,0,0,0,0,0,105,105,1,553.4892609119415,,,,,,,,,,,,,,,,,,,,,,,,,,,,,,,,,,,,,,,,,,,,,,,,,,,,,,,,,,,,,,,,,,,,,,,,,,,,,,,,,,127.0,127.0,200.0,125.0,125.0,200.0,2.1,2.11,-222,287,0,264,258,-274,553.4745593070984,553.4745984077454,553.4768936634064,553.4892609119415,553.6395990848541,553.6395990848541,553.6395990848541,553.6395990848541,553.6395990848541,553.6395990848541,553.6395990848541,555.5573725700378,2,2.050556182861328,None,,,,,,,,,,,,,,,,,,74,5,2025-02-21_11h01.45.038,comp,2024.2.4,61.053970767835594,2025-02-21 11h01.51.846161 -0500,
106,106,0,filler_random,None,None,None,None,None,None,None,None,None,None,1,2.533914089202881,None,,,,,0,0,0,0,0,106,106,135,555.5727350711823,,,,,,,,,,,,,,,,,,,,,,,,,,,,,,,,,,,,,,,,,,,,,,,,,,,,,,,,,,,,,,,,,,,,,,,,,,,,,,,,,,150.40002988369065,111.8039769572977,144.91414708857627,59.219275027335335,80.2036500601302,199.03774165400603,4.0,4.2,-182,11,0,-290,225,-4,555.558337688446,555.5583798885345,555.5605461597443,555.5727350711823,555.722804069519,555.722804069519,555.722804069519,555.722804069519,555.722804069519,555.722804069519,555.722804069519,558.1238672733307,1,2.533914089202881,None,,,,,,,,,,,,,,,,,,74,5,2025-02-21_11h01.45.038,comp,2024.2.4,61.053970767835594,2025-02-21 11h01.51.846161 -0500,
107,107,0,filler_random,None,None,None,None,None,None,None,None,None,None,3,1.7836337089538574,None,,,,,0,0,0,0,0,107,107,166,558.1393160820007,,,,,,,,,,,,,,,,,,,,,,,,,,,,,,,,,,,,,,,,,,,,,,,,,,,,,,,,,,,,,,,,,,,,,,,,,,,,,,,,,,59.45717909499168,85.92615500902973,77.93511446751782,158.7720396061586,150.79686460143594,145.13971402386545,2.1,2.12,-218,-279,0,-269,248,280,558.1247773170471,558.1248178482056,558.1272022724152,558.1393160820007,558.306223154068,558.306223154068,558.306223154068,558.306223154068,558.306223154068,558.306223154068,558.306223154068,559.9240143299103,3,1.7836337089538574,None,,,,,,,,,,,,,,,,,,74,5,2025-02-21_11h01.45.038,comp,2024.2.4,61.053970767835594,2025-02-21 11h01.51.846161 -0500,
108,108,0,filler_random,None,None,None,None,None,None,None,None,None,None,3,1.918569564819336,None,,,,,0,0,0,0,0,108,108,158,559.9394779205322,,,,,,,,,,,,,,,,,,,,,,,,,,,,,,,,,,,,,,,,,,,,,,,,,,,,,,,,,,,,,,,,,,,,,,,,,,,,,,,,,,59.07799961064904,165.60763403242072,88.12836796261467,100.54609382618443,153.55693190499434,77.53453356957041,4.0,4.2,-229,-12,0,-262,185,15,559.9249289035797,559.9249725341797,559.9270398616791,559.9394779205322,560.089405298233,560.089405298233,560.089405298233,560.089405298233,560.089405298233,560.089405298233,560.089405298233,561.8737833499908,3,1.918569564819336,None,,,,,,,,,,,,,,,,,,74,5,2025-02-21_11h01.45.038,comp,2024.2.4,61.053970767835594,2025-02-21 11h01.51.846161 -0500,
109,109,0,filler_square,None,None,None,None,None,None,None,None,None,None,1,1.9615662097930908,None,,,,,0,0,0,0,0,109,109,202,561.8892061710358,,,,,,,,,,,,,,,,,,,,,,,,,,,,,,,,,,,,,,,,,,,,,,,,,,,,,,,,,,,,,,,,,,,,,,,,,,,,,,,,,,198.11751649022727,198.11751649022727,93.48003412038338,123.92449852799429,136.9543802197977,192.87610094727322,4.0,4.2,-257,-8,0,-265,254,-11,561.8746945858002,561.8747339248657,561.8770887851715,561.8892061710358,562.0398817062378,562.0398817062378,562.0398817062378,562.0398817062378,562.0398817062378,562.0398817062378,562.0398817062378,563.8574633598328,1,1.9615662097930908,None,,,,,,,,,,,,,,,,,,74,5,2025-02-21_11h01.45.038,comp,2024.2.4,61.053970767835594,2025-02-21 11h01.51.846161 -0500,
110,110,0,critical,hwd,20.0,2.1,lower,133.0,57.0,57.0,133.0,78.0,78.0,3,4.033899307250977,None,,,,,0,0,0,0,0,110,110,42,563.8728597164154,,,,,,,,,,,,,,,,,,,,,,,,,,,,,,,,,,,,,,,,,,,,,,,,,,,,,,,,,,,,,,,,,,,,,,,,,,,,,,,,,,133.0,57.0,57.0,133.0,78.0,78.0,2.1,2.11,-191,282,0,263,202,-267,563.8582599163055,563.8583009243011,563.8603649139404,563.8728597164154,564.0227496623993,564.0227496623993,564.0227496623993,564.0227496623993,564.0227496623993,564.0227496623993,564.0227496623993,567.9237377643585,3,4.033899307250977,None,,,,,,,,,,,,,,,,,,74,5,2025-02-21_11h01.45.038,comp,2024.2.4,61.053970767835594,2025-02-21 11h01.51.846161 -0500,
111,111,0,critical,dhw,20.0,4.0,lower,78.0,78.0,133.0,57.0,57.0,133.0,3,3.0714828968048096,None,,,,,0,0,0,0,0,111,111,58,567.9391922950745,,,,,,,,,,,,,,,,,,,,,,,,,,,,,,,,,,,,,,,,,,,,,,,,,,,,,,,,,,,,,,,,,,,,,,,,,,,,,,,,,,78.0,78.0,133.0,57.0,57.0,133.0,4.0,4.2,-164,3,0,-257,191,5,567.92449259758,567.9245312213898,567.9268262386322,567.9391922950745,568.0892934799194,568.0892934799194,568.0892934799194,568.0892934799194,568.0892934799194,568.0892934799194,568.0892934799194,571.0239584445953,3,3.0714828968048096,None,,,,,,,,,,,,,,,,,,74,5,2025-02-21_11h01.45.038,comp,2024.2.4,61.053970767835594,2025-02-21 11h01.51.846161 -0500,
112,112,0,critical,whd,20.0,3.0,upper,125.0,200.0,200.0,125.0,141.0,141.0,1,4.203557729721069,None,,,,,0,0,0,0,0,112,112,93,571.0391538143158,,,,,,,,,,,,,,,,,,,,,,,,,,,,,,,,,,,,,,,,,,,,,,,,,,,,,,,,,,,,,,,,,,,,,,,,,,,,,,,,,,125.0,200.0,200.0,125.0,141.0,141.0,3.0,3.2,-258,-259,0,-2,229,274,571.0247037410736,571.0247414112091,571.0270426273346,571.0391538143158,571.1895771026611,571.1895771026611,571.1895771026611,571.1895771026611,571.1895771026611,571.1895771026611,571.1895771026611,575.2573630809784,1,4.203557729721069,None,,,,,,,,,,,,,,,,,,74,5,2025-02-21_11h01.45.038,comp,2024.2.4,61.053970767835594,2025-02-21 11h01.51.846161 -0500,
113,113,0,catch,None,None,None,None,None,None,None,None,None,None,3,1.3853936195373535,None,,,,,0,0,0,0,0,113,113,126,575.2726707458496,,,,,,,,,,,,,,,,,,,,,,,,,,,,,,,,,,,,,,,,,,,,,,,,,,,,,,,,,,,,,,,,,,,,,,,,,,,,,,,,,,58,132,104,86,134,191,2.1,2.11,-205,273,0,271,234,-268,575.2584359645844,575.2584781646729,575.2610437870026,575.2726707458496,575.4225513935089,575.4225513935089,575.4225513935089,575.4225513935089,575.4225513935089,575.4225513935089,575.4225513935089,576.6737282276154,3,1.3853936195373535,None,,,,,,,,,,,,,,,,,,74,5,2025-02-21_11h01.45.038,comp,2024.2.4,61.053970767835594,2025-02-21 11h01.51.846161 -0500,
114,114,0,filler_random,None,None,None,None,None,None,None,None,None,None,3,8.683236837387085,None,,,,,0,0,0,0,0,114,114,130,576.6891956329346,,,,,,,,,,,,,,,,,,,,,,,,,,,,,,,,,,,,,,,,,,,,,,,,,,,,,,,,,,,,,,,,,,,,,,,,,,,,,,,,,,112.60399706963784,74.72862933002976,60.548603984927574,152.1931437450279,159.87772661434082,68.1993512267094,1.0,1.3,271,-272,480,-260,686,-284,576.6746726036072,576.6747136116028,576.6771464347839,576.6891956329346,576.8395705223083,576.8395705223083,576.8395705223083,576.8395705223083,576.8395705223083,576.8395705223083,576.8395705223083,585.3901700973511,3,8.683236837387085,None,,,,,,,,,,,,,,,,,,74,5,2025-02-21_11h01.45.038,comp,2024.2.4,61.053970767835594,2025-02-21 11h01.51.846161 -0500,
115,115,0,filler_random,None,None,None,None,None,None,None,None,None,None,2,2.398482322692871,None,,,,,0,0,0,0,0,115,115,159,585.4057276248932,,,,,,,,,,,,,,,,,,,,,,,,,,,,,,,,,,,,,,,,,,,,,,,,,,,,,,,,,,,,,,,,,,,,,,,,,,,,,,,,,,181.52552645631732,61.26570010112265,108.23608135547576,191.14587667020172,158.74495372295183,119.93576596602662,2.2,2.21,-222,-288,0,253,252,278,585.3910491466522,585.391087770462,585.3936791419983,585.4057276248932,585.5558986663818,585.5558986663818,585.5558986663818,585.5558986663818,585.5558986663818,585.5558986663818,585.5558986663818,587.8071839809418,2,2.398482322692871,None,,,,,,,,,,,,,,,,,,74,5,2025-02-21_11h01.45.038,comp,2024.2.4,61.053970767835594,2025-02-21 11h01.51.846161 -0500,
116,116,0,filler_square,None,None,None,None,None,None,None,None,None,None,2,1.8920867443084717,None,,,,,0,0,0,0,0,116,116,209,587.8225982189178,,,,,,,,,,,,,,,,,,,,,,,,,,,,,,,,,,,,,,,,,,,,,,,,,,,,,,,,,,,,,,,,,,,,,,,,,,,,,,,,,,88.92757861498751,88.92757861498751,84.49976346826467,84.53118718365495,68.3448665711359,57.35910639279327,4.0,4.2,-183,9,0,-280,167,-18,587.8081300258636,587.8081712722778,587.8107645511627,587.8225982189178,587.9724342823029,587.9724342823029,587.9724342823029,587.9724342823029,587.9724342823029,587.9724342823029,587.9724342823029,589.7235898971558,2,1.8920867443084717,None,,,,,,,,,,,,,,,,,,74,5,2025-02-21_11h01.45.038,comp,2024.2.4,61.053970767835594,2025-02-21 11h01.51.846161 -0500,
117,117,0,filler_random,None,None,None,None,None,None,None,None,None,None,3,2.6222586631774902,None,,,,,0,0,0,0,0,117,117,156,589.7393636703491,,,,,,,,,,,,,,,,,,,,,,,,,,,,,,,,,,,,,,,,,,,,,,,,,,,,,,,,,,,,,,,,,,,,,,,,,,,,,,,,,,85.96021905195505,194.8894170480889,168.6874635309033,79.19213569653843,182.87066431372676,160.13163326168825,1.0,1.3,247,-288,480,-287,696,-256,589.7244873046875,589.7245271205902,589.7265815734863,589.7393636703491,589.889274597168,589.889274597168,589.889274597168,589.889274597168,589.889274597168,589.889274597168,589.889274597168,592.3739068508148,3,2.6222586631774902,None,,,,,,,,,,,,,,,,,,74,5,2025-02-21_11h01.45.038,comp,2024.2.4,61.053970767835594,2025-02-21 11h01.51.846161 -0500,
118,118,0,critical,dwh,35.0,3.0,upper,127.0,127.0,125.0,200.0,200.0,125.0,2,5.909691095352173,None,,,,,0,0,0,0,0,118,118,63,592.3889100551605,,,,,,,,,,,,,,,,,,,,,,,,,,,,,,,,,,,,,,,,,,,,,,,,,,,,,,,,,,,,,,,,,,,,,,,,,,,,,,,,,,127.0,127.0,125.0,200.0,200.0,125.0,3.0,3.2,-260,-261,0,2,258,272,592.3746900558472,592.3747308254242,592.3770606517792,592.3889100551605,592.5395803451538,592.5395803451538,592.5395803451538,592.5395803451538,592.5395803451538,592.5395803451538,592.5395803451538,598.3072421550751,2,5.909691095352173,None,,,,,,,,,,,,,,,,,,74,5,2025-02-21_11h01.45.038,comp,2024.2.4,61.053970767835594,2025-02-21 11h01.51.846161 -0500,
119,119,0,filler_random,None,None,None,None,None,None,None,None,None,None,3,1.5601518154144287,None,,,,,0,0,0,0,0,119,119,162,598.3225882053375,,,,,,,,,,,,,,,,,,,,,,,,,,,,,,,,,,,,,,,,,,,,,,,,,,,,,,,,,,,,,,,,,,,,,,,,,,,,,,,,,,94.99844576856776,174.78868791914536,67.37874180145549,181.0805081085341,199.28731945449002,135.2842128514186,2.1,2.12,-274,-281,0,-259,254,255,598.308167219162,598.3082072734833,598.3105688095093,598.3225882053375,598.472574710846,598.472574710846,598.472574710846,598.472574710846,598.472574710846,598.472574710846,598.472574710846,599.8902645111084,3,1.5601518154144287,None,,,,,,,,,,,,,,,,,,74,5,2025-02-21_11h01.45.038,comp,2024.2.4,61.053970767835594,2025-02-21 11h01.51.846161 -0500,
120,120,0,critical,wdh,20.0,2.1,upper,125.0,200.0,141.0,141.0,200.0,125.0,3,2.287964344024658,None,,,,,0,0,0,0,0,120,120,11,599.9057726860046,,,,,,,,,,,,,,,,,,,,,,,,,,,,,,,,,,,,,,,,,,,,,,,,,,,,,,,,,,,,,,,,,,,,,,,,,,,,,,,,,,125.0,200.0,141.0,141.0,200.0,125.0,2.1,2.11,-266,279,0,280,229,-266,599.8910684585571,599.8911097049713,599.8934302330017,599.9057726860046,600.0558886528015,600.0558886528015,600.0558886528015,600.0558886528015,600.0558886528015,600.0558886528015,600.0558886528015,602.2070369720459,3,2.287964344024658,None,,,,,,,,,,,,,,,,,,74,5,2025-02-21_11h01.45.038,comp,2024.2.4,61.053970767835594,2025-02-21 11h01.51.846161 -0500,
121,121,0,critical,hwd,35.0,4.0,lower,133.0,57.0,57.0,133.0,70.0,70.0,2,4.628120183944702,None,,,,,0,0,0,0,0,121,121,100,602.2222442626953,,,,,,,,,,,,,,,,,,,,,,,,,,,,,,,,,,,,,,,,,,,,,,,,,,,,,,,,,,,,,,,,,,,,,,,,,,,,,,,,,,133.0,57.0,57.0,133.0,70.0,70.0,4.0,4.2,-191,20,0,-271,198,18,602.2078204154968,602.2078604698181,602.2102787494659,602.2222442626953,602.3727698326111,602.3727698326111,602.3727698326111,602.3727698326111,602.3727698326111,602.3727698326111,602.3727698326111,606.8567478656769,2,4.628120183944702,None,,,,,,,,,,,,,,,,,,74,5,2025-02-21_11h01.45.038,comp,2024.2.4,61.053970767835594,2025-02-21 11h01.51.846161 -0500,
122,122,0,critical,whd,20.0,1.0,upper,125.0,200.0,200.0,125.0,141.0,141.0,1,3.2338004112243652,None,,,,,0,0,0,0,0,122,122,91,606.8724436759949,,,,,,,,,,,,,,,,,,,,,,,,,,,,,,,,,,,,,,,,,,,,,,,,,,,,,,,,,,,,,,,,,,,,,,,,,,,,,,,,,,125.0,200.0,200.0,125.0,141.0,141.0,1.0,1.1,-738,287,-480,281,-251,279,606.8575482368469,606.857589006424,606.8599650859833,606.8724436759949,607.022641658783,607.022641658783,607.022641658783,607.022641658783,607.022641658783,607.022641658783,607.022641658783,610.1235022544861,1,3.2338004112243652,None,,,,,,,,,,,,,,,,,,74,5,2025-02-21_11h01.45.038,comp,2024.2.4,61.053970767835594,2025-02-21 11h01.51.846161 -0500,
123,123,0,filler_square,None,None,None,None,None,None,None,None,None,None,2,2.1674177646636963,None,,,,,0,0,0,0,0,123,123,186,610.1388511657715,,,,,,,,,,,,,,,,,,,,,,,,,,,,,,,,,,,,,,,,,,,,,,,,,,,,,,,,,,,,,,,,,,,,,,,,,,,,,,,,,,70.49704246042482,89.38274556508392,94.11966904716905,94.11966904716905,81.62432791729391,71.16374089578595,2.2,2.21,-188,-261,0,276,179,276,610.124472618103,610.1245121955872,610.1268184185028,610.1388511657715,610.2889716625214,610.2889716625214,610.2889716625214,610.2889716625214,610.2889716625214,610.2889716625214,610.2889716625214,612.3233187198639,2,2.1674177646636963,None,,,,,,,,,,,,,,,,,,74,5,2025-02-21_11h01.45.038,comp,2024.2.4,61.053970767835594,2025-02-21 11h01.51.846161 -0500,
124,124,0,critical,wdh,35.0,2.1,lower,57.0,133.0,70.0,70.0,133.0,57.0,1,2.822643995285034,None,,,,,0,0,0,0,0,124,124,32,612.3388872146606,,,,,,,,,,,,,,,,,,,,,,,,,,,,,,,,,,,,,,,,,,,,,,,,,,,,,,,,,,,,,,,,,,,,,,,,,,,,,,,,,,57.0,133.0,70.0,70.0,133.0,57.0,2.1,2.11,-198,286,0,253,160,-289,612.3241219520569,612.3241634368896,612.3263735771179,612.3388872146606,612.4892349243164,612.4892349243164,612.4892349243164,612.4892349243164,612.4892349243164,612.4892349243164,612.4892349243164,615.1736423969269,1,2.822643995285034,None,,,,,,,,,,,,,,,,,,74,5,2025-02-21_11h01.45.038,comp,2024.2.4,61.053970767835594,2025-02-21 11h01.51.846161 -0500,
125,125,0,catch,None,None,None,None,None,None,None,None,None,None,3,1.6454291343688965,None,,,,,0,0,0,0,0,125,125,128,615.1889317035675,,,,,,,,,,,,,,,,,,,,,,,,,,,,,,,,,,,,,,,,,,,,,,,,,,,,,,,,,,,,,,,,,,,,,,,,,,,,,,,,,,129,61,71,119,158,167,3.0,3.2,-186,-286,0,18,239,272,615.1746923923492,615.174733877182,615.1770234107971,615.1889317035675,615.3390414714813,615.3390414714813,615.3390414714813,615.3390414714813,615.3390414714813,615.3390414714813,615.3390414714813,616.8401916027069,3,1.6454291343688965,None,,,,,,,,,,,,,,,,,,74,5,2025-02-21_11h01.45.038,comp,2024.2.4,61.053970767835594,2025-02-21 11h01.51.846161 -0500,
126,126,0,filler_square,None,None,None,None,None,None,None,None,None,None,3,1.7946529388427734,None,,,,,0,0,0,0,0,126,126,170,616.8557600975037,,,,,,,,,,,,,,,,,,,,,,,,,,,,,,,,,,,,,,,,,,,,,,,,,,,,,,,,,,,,,,,,,,,,,,,,,,,,,,,,,,139.7126180119978,146.8079902888628,117.65478330602366,144.0769021891447,162.60149352569542,162.60149352569542,4.0,4.1,-241,-283,0,-14,249,-282,616.8411402702332,616.8411829471588,616.8436670303345,616.8557600975037,617.0057437419891,617.0057437419891,617.0057437419891,617.0057437419891,617.0057437419891,617.0057437419891,617.0057437419891,618.6568057537079,3,1.7946529388427734,None,,,,,,,,,,,,,,,,,,74,5,2025-02-21_11h01.45.038,comp,2024.2.4,61.053970767835594,2025-02-21 11h01.51.846161 -0500,
127,127,0,catch,None,None,None,None,None,None,None,None,None,None,1,1.4995570182800293,None,,,,,0,0,0,0,0,127,127,127,618.6723794937134,,,,,,,,,,,,,,,,,,,,,,,,,,,,,,,,,,,,,,,,,,,,,,,,,,,,,,,,,,,,,,,,,,,,,,,,,,,,,,,,,,169,156,85,105,68,122,3.0,3.1,-226,254,0,-9,210,-253,618.6578168869019,618.6578571796417,618.6602418422699,618.6723794937134,618.8224456310272,618.8224456310272,618.8224456310272,618.8224456310272,618.8224456310272,618.8224456310272,618.8224456310272,620.1735272407532,1,1.4995570182800293,None,,,,,,,,,,,,,,,,,,74,5,2025-02-21_11h01.45.038,comp,2024.2.4,61.053970767835594,2025-02-21 11h01.51.846161 -0500,
128,128,0,filler_square,None,None,None,None,None,None,None,None,None,None,3,2.645718812942505,None,,,,,0,0,0,0,0,128,128,172,620.1889915466309,,,,,,,,,,,,,,,,,,,,,,,,,,,,,,,,,,,,,,,,,,,,,,,,,,,,,,,,,,,,,,,,,,,,,,,,,,,,,,,,,,143.02317384229204,158.3216284159352,169.37478879244048,158.30399536871744,172.83790658247852,172.83790658247852,2.2,2.21,-254,-282,0,277,262,288,620.1744618415833,620.1745018959045,620.1767973899841,620.1889915466309,620.3394868373871,620.3394868373871,620.3394868373871,620.3394868373871,620.3394868373871,620.3394868373871,620.3394868373871,622.8405220508575,3,2.645718812942505,None,,,,,,,,,,,,,,,,,,74,5,2025-02-21_11h01.45.038,comp,2024.2.4,61.053970767835594,2025-02-21 11h01.51.846161 -0500,
129,129,0,filler_random,None,None,None,None,None,None,None,None,None,None,3,2.6912224292755127,None,,,,,0,0,0,0,0,129,129,164,622.855797290802,,,,,,,,,,,,,,,,,,,,,,,,,,,,,,,,,,,,,,,,,,,,,,,,,,,,,,,,,,,,,,,,,,,,,,,,,,,,,,,,,,161.67084007471723,92.64151907285262,115.05045180253026,193.97116913177922,182.3933948703692,153.12879345544766,1.0,1.1,-719,263,-480,284,-210,272,622.8415751457214,622.8416182994843,622.8436942100525,622.855797290802,623.0056793689728,623.0056793689728,623.0056793689728,623.0056793689728,623.0056793689728,623.0056793689728,623.0056793689728,625.556991815567,3,2.6912224292755127,None,,,,,,,,,,,,,,,,,,74,5,2025-02-21_11h01.45.038,comp,2024.2.4,61.053970767835594,2025-02-21 11h01.51.846161 -0500,
130,130,0,critical,hwd,35.0,3.0,upper,200.0,125.0,125.0,200.0,127.0,127.0,2,5.174548149108887,None,,,,,0,0,0,0,0,130,130,99,625.5723922252655,,,,,,,,,,,,,,,,,,,,,,,,,,,,,,,,,,,,,,,,,,,,,,,,,,,,,,,,,,,,,,,,,,,,,,,,,,,,,,,,,,200.0,125.0,125.0,200.0,127.0,127.0,3.0,3.1,-258,285,0,10,260,-275,625.557781457901,625.5578234195709,625.5601246356964,625.5723922252655,625.7224869728088,625.7224869728088,625.7224869728088,625.7224869728088,625.7224869728088,625.7224869728088,625.7224869728088,630.7568926811218,2,5.174548149108887,None,,,,,,,,,,,,,,,,,,74,5,2025-02-21_11h01.45.038,comp,2024.2.4,61.053970767835594,2025-02-21 11h01.51.846161 -0500,
131,131,0,critical,whd,20.0,4.0,lower,57.0,133.0,133.0,57.0,78.0,78.0,1,1.8692574501037598,None,,,,,0,0,0,0,0,131,131,94,630.772433757782,,,,,,,,,,,,,,,,,,,,,,,,,,,,,,,,,,,,,,,,,,,,,,,,,,,,,,,,,,,,,,,,,,,,,,,,,,,,,,,,,,57.0,133.0,133.0,57.0,78.0,78.0,4.0,4.1,-191,-279,0,-17,164,-260,630.7577123641968,630.7577526569366,630.7598075866699,630.772433757782,630.9224700927734,630.9224700927734,630.9224700927734,630.9224700927734,630.9224700927734,630.9224700927734,630.9224700927734,632.6565043926239,1,1.8692574501037598,None,,,,,,,,,,,,,,,,,,74,5,2025-02-21_11h01.45.038,comp,2024.2.4,61.053970767835594,2025-02-21 11h01.51.846161 -0500,
132,132,0,critical,dwh,20.0,2.1,lower,78.0,78.0,57.0,133.0,133.0,57.0,2,1.7156798839569092,None,,,,,0,0,0,0,0,132,132,30,632.6720240116119,,,,,,,,,,,,,,,,,,,,,,,,,,,,,,,,,,,,,,,,,,,,,,,,,,,,,,,,,,,,,,,,,,,,,,,,,,,,,,,,,,78.0,78.0,57.0,133.0,133.0,57.0,2.1,2.12,-202,-256,0,-288,191,269,632.6573915481567,632.657443523407,632.6599507331848,632.6720240116119,632.8221609592438,632.8221609592438,632.8221609592438,632.8221609592438,632.8221609592438,632.8221609592438,632.8221609592438,634.3900377750397,2,1.7156798839569092,None,,,,,,,,,,,,,,,,,,74,5,2025-02-21_11h01.45.038,comp,2024.2.4,61.053970767835594,2025-02-21 11h01.51.846161 -0500,
133,133,0,critical,dwh,35.0,1.0,upper,127.0,127.0,125.0,200.0,200.0,125.0,2,6.166210412979126,None,,,,,0,0,0,0,0,133,133,61,634.4055485725403,,,,,,,,,,,,,,,,,,,,,,,,,,,,,,,,,,,,,,,,,,,,,,,,,,,,,,,,,,,,,,,,,,,,,,,,,,,,,,,,,,127.0,127.0,125.0,200.0,200.0,125.0,1.0,1.3,220,-253,480,-254,738,-259,634.3908479213715,634.3908894062042,634.3929851055145,634.4055485725403,634.5556757450104,634.5556757450104,634.5556757450104,634.5556757450104,634.5556757450104,634.5556757450104,634.5556757450104,640.5900187492371,2,6.166210412979126,None,,,,,,,,,,,,,,,,,,74,5,2025-02-21_11h01.45.038,comp,2024.2.4,61.053970767835594,2025-02-21 11h01.51.846161 -0500,
134,134,0,critical,wdh,20.0,1.0,lower,57.0,133.0,78.0,78.0,133.0,57.0,1,3.420339822769165,None,,,,,0,0,0,0,0,134,134,78,640.6052367687225,,,,,,,,,,,,,,,,,,,,,,,,,,,,,,,,,,,,,,,,,,,,,,,,,,,,,,,,,,,,,,,,,,,,,,,,,,,,,,,,,,57.0,133.0,78.0,78.0,133.0,57.0,1.0,1.2,-202,17,0,-9,164,-18,640.5907833576202,640.5908215045929,640.5932223796844,640.6052367687225,640.7554235458374,640.7554235458374,640.7554235458374,640.7554235458374,640.7554235458374,640.7554235458374,640.7554235458374,644.0398902893066,1,3.420339822769165,None,,,,,,,,,,,,,,,,,,74,5,2025-02-21_11h01.45.038,comp,2024.2.4,61.053970767835594,2025-02-21 11h01.51.846161 -0500,
135,135,0,filler_square,None,None,None,None,None,None,None,None,None,None,3,4.394850254058838,None,,,,,0,0,0,0,0,135,135,178,644.0553135871887,,,,,,,,,,,,,,,,,,,,,,,,,,,,,,,,,,,,,,,,,,,,,,,,,,,,,,,,,,,,,,,,,,,,,,,,,,,,,,,,,,64.06812055422301,82.25692803971559,76.36896029003054,62.3882312587667,83.06687923212624,83.06687923212624,2.1,2.12,-168,-287,0,-280,169,250,644.040825843811,644.0408639907837,644.0432262420654,644.0553135871887,644.2054591178894,644.2054591178894,644.2054591178894,644.2054591178894,644.2054591178894,644.2054591178894,644.2054591178894,648.4564576148987,3,4.394850254058838,None,,,,,,,,,,,,,,,,,,74,5,2025-02-21_11h01.45.038,comp,2024.2.4,61.053970767835594,2025-02-21 11h01.51.846161 -0500,
136,136,0,filler_random,None,None,None,None,None,None,None,None,None,None,3,1.4099719524383545,None,,,,,0,0,0,0,0,136,136,139,648.4722166061401,,,,,,,,,,,,,,,,,,,,,,,,,,,,,,,,,,,,,,,,,,,,,,,,,,,,,,,,,,,,,,,,,,,,,,,,,,,,,,,,,,60.2777575835777,67.13853171129036,144.77201343225752,69.23738548570174,64.86595089543817,198.7653259658841,4.0,4.1,-164,-259,0,-16,230,-280,648.4573283195496,648.4573707580566,648.4595527648926,648.4722166061401,648.6221568584442,648.6221568584442,648.6221568584442,648.6221568584442,648.6221568584442,648.6221568584442,648.6221568584442,649.889726638794,3,1.4099719524383545,None,,,,,,,,,,,,,,,,,,74,5,2025-02-21_11h01.45.038,comp,2024.2.4,61.053970767835594,2025-02-21 11h01.51.846161 -0500,
137,137,0,filler_square,None,None,None,None,None,None,None,None,None,None,3,1.8829023838043213,None,,,,,0,0,0,0,0,137,137,176,649.9054028987885,,,,,,,,,,,,,,,,,,,,,,,,,,,,,,,,,,,,,,,,,,,,,,,,,,,,,,,,,,,,,,,,,,,,,,,,,,,,,,,,,,61.93114005362378,58.422735354688996,62.47854644952536,57.73781196923794,62.931088626454105,62.931088626454105,3.0,3.1,-154,259,0,14,156,-265,649.8906617164612,649.8907012939453,649.8930473327637,649.9054028987885,650.0553708076477,650.0553708076477,650.0553708076477,650.0553708076477,650.0553708076477,650.0553708076477,650.0553708076477,651.806476354599,3,1.8829023838043213,None,,,,,,,,,,,,,,,,,,74,5,2025-02-21_11h01.45.038,comp,2024.2.4,61.053970767835594,2025-02-21 11h01.51.846161 -0500,
138,138,0,filler_random,None,None,None,None,None,None,None,None,None,None,1,1.939281702041626,None,,,,,0,0,0,0,0,138,138,145,651.821918964386,,,,,,,,,,,,,,,,,,,,,,,,,,,,,,,,,,,,,,,,,,,,,,,,,,,,,,,,,,,,,,,,,,,,,,,,,,,,,,,,,,91.22961805682732,122.50754720005449,92.03064770114662,60.370366715589036,74.2287393188821,82.97696912650211,1.0,1.1,-667,252,-480,288,-312,276,651.8073637485504,651.8074040412903,651.8097221851349,651.821918964386,651.9723618030548,651.9723618030548,651.9723618030548,651.9723618030548,651.9723618030548,651.9723618030548,651.9723618030548,653.7734999656677,1,1.939281702041626,None,,,,,,,,,,,,,,,,,,74,5,2025-02-21_11h01.45.038,comp,2024.2.4,61.053970767835594,2025-02-21 11h01.51.846161 -0500,
139,139,0,critical,whd,35.0,4.0,upper,125.0,200.0,200.0,125.0,127.0,127.0,2,2.988640069961548,None,,,,,0,0,0,0,0,139,139,89,653.7886192798615,,,,,,,,,,,,,,,,,,,,,,,,,,,,,,,,,,,,,,,,,,,,,,,,,,,,,,,,,,,,,,,,,,,,,,,,,,,,,,,,,,125.0,200.0,200.0,125.0,127.0,127.0,4.0,4.2,-258,9,0,-265,222,19,653.7742722034454,653.774313211441,653.7766003608704,653.7886192798615,653.9391758441925,653.9391758441925,653.9391758441925,653.9391758441925,653.9391758441925,653.9391758441925,653.9391758441925,656.7900469303131,2,2.988640069961548,None,,,,,,,,,,,,,,,,,,74,5,2025-02-21_11h01.45.038,comp,2024.2.4,61.053970767835594,2025-02-21 11h01.51.846161 -0500,
140,140,0,critical,hdw,35.0,2.1,upper,200.0,125.0,127.0,127.0,125.0,200.0,1,3.3089733123779297,None,,,,,0,0,0,0,0,140,140,21,656.8052339553833,,,,,,,,,,,,,,,,,,,,,,,,,,,,,,,,,,,,,,,,,,,,,,,,,,,,,,,,,,,,,,,,,,,,,,,,,,,,,,,,,,200.0,125.0,127.0,127.0,125.0,200.0,2.1,2.11,-222,259,0,251,260,-267,656.7908809185028,656.7909214496613,656.7933347225189,656.8052339553833,656.9555892944336,656.9555892944336,656.9555892944336,656.9555892944336,656.9555892944336,656.9555892944336,656.9555892944336,660.1233642101288,1,3.3089733123779297,None,,,,,,,,,,,,,,,,,,74,5,2025-02-21_11h01.45.038,comp,2024.2.4,61.053970767835594,2025-02-21 11h01.51.846161 -0500,
