thisN,thisTrialN,thisRepN,effect,order,distance,config,diag,h_1,w_1,h_2,w_2,h_3,w_3,rect_choice.keys,rect_choice.rt,rect_choice.duration,instructions_loop.thisRepN,instructions_loop.thisTrialN,instructions_loop.thisN,instructions_loop.thisIndex,blocks.thisRepN,blocks.thisTrialN,blocks.thisN,blocks.thisIndex,trials.thisRepN,trials.thisTrialN,trials.thisN,trials.thisIndex,thisRow.t,notes,consent.started,agree_button.started,decline_button.started,consent_img.started,mouse.started,consent.stopped,agree_button.numClicks,agree_button.timesOn,agree_button.timesOff,decline_button.numClicks,decline_button.timesOn,decline_button.timesOff,mouse.x,mouse.y,mouse.leftButton,mouse.midButton,mouse.rightButton,mouse.time,mouse.clicked_name,exp_params.started,exp_params.stopped,welcome.started,welcome_text.started,welcome.stopped,instructions_1.started,instructions_1_text_1.started,instructions_1_text_2.started,key_resp.started,instructions_1.stopped,instructions_loop.key_resp.keys,instructions_loop.key_resp.rt,instructions_loop.key_resp.duration,instructions_2.started,instructions_2_text_1.started,instructions_2_text_2.started,key_resp_2.started,instructions_2.stopped,instructions_loop.key_resp_2.keys,instructions_loop.key_resp_2.rt,instructions_loop.key_resp_2.duration,instructions_3.started,instructions_3_text_1.started,r1_instr3.started,r2_instr3.started,r3_instr3.started,r1_instr3_label.started,r2_instr3_label.started,r3_instr3_label.started,instructions_3_text_3.started,instructions_3_text_4.started,key_resp_3.started,instructions_3.stopped,instructions_loop.key_resp_3.keys,instructions_loop.key_resp_3.rt,instructions_loop.key_resp_3.duration,instructions_4.started,instructions_4_text_1.started,instructions_4_text_3.started,instructions_4_text_2.started,key_resp_4.started,instructions_4.stopped,instructions_loop.key_resp_4.keys,instructions_loop.key_resp_4.rt,instructions_loop.key_resp_4.duration,instructions_5.started,instructions_5_text_1.started,instructions_5_text_2.started,key_resp_5.started,instructions_5.stopped,instructions_loop.key_resp_5.keys,instructions_loop.key_resp_5.rt,instructions_loop.key_resp_5.duration,start_exp.started,start_exp_text.started,key_resp_6.started,start_exp.stopped,key_resp_6.keys,key_resp_6.rt,key_resp_6.duration,h_1_tmp,w_1_tmp,h_2_tmp,w_2_tmp,h_3_tmp,w_3_tmp,config_tmp,config_tmp_1,r_1_x,r_1_y,r_2_x,r_2_y,r_3_x,r_3_y,pre_trial.started,pre_trial.stopped,choice_trial.started,rect_choice.started,r_1.started,r_2.started,r_3.started,r_1_label.started,r_2_label.started,r_3_label.started,prompt.started,choice_trial.stopped,trials.rect_choice.keys,trials.rect_choice.rt,trials.rect_choice.duration,end_block.started,end_block_text.started,end_block.stopped,end.started,end_text.started,key_resp_7.started,end.stopped,key_resp_7.keys,key_resp_7.rt,key_resp_7.duration,debriefing.started,debrief_form.started,end_debrief.started,debriefing.stopped,end_debrief.keys,end_debrief.rt,end_debrief.duration,participant,computer,date,expName,psychopyVersion,frameRate,expStart,
,,,,,,,,,,,,,,,,,,,,,,,,,,,,,,,0.015018463134765625,0.0370790958404541,0.0370790958404541,0.0370790958404541,0.014823198318481445,9.412333965301514,1,[9.372952222824097],[9.372974634170532],0,,,[-70.0],[-517.0],[1],[0],[0],[9.396820306777954],['agree_button'],,,,,,,,,,,,,,,,,,,,,,,,,,,,,,,,,,,,,,,,,,,,,,,,,,,,,,,,,,,,,,,,,,,,,,,,,,,,,,,,,,,,,,,,,,,,,,,,,,,,,,,,,,,75,6,2025-02-21_09h42.41.672,comp,2024.2.4,56.53737073102348,2025-02-21 11h02.45.180671 -0500,
,,,,,,,,,,,,,,,,,,,,,,,,,,,,,,,,,,,,,,,,,,,,,,,,,,9.41286826133728,9.412958860397339,,,,,,,,,,,,,,,,,,,,,,,,,,,,,,,,,,,,,,,,,,,,,,,,,,,,,,,,,,,,,,,,,,,,,,,,,,,,,,,,,,,,,,,,,,,,,,,,,,,,,,,,,75,6,2025-02-21_09h42.41.672,comp,2024.2.4,56.53737073102348,2025-02-21 11h02.45.180671 -0500,
,,,,,,,,,,,,,,,,,,,,,,,,,,,,,,,,,,,,,,,,,,,,,,,,,,,,9.413004398345947,9.428455114364624,11.42095160484314,,,,,,,,,,,,,,,,,,,,,,,,,,,,,,,,,,,,,,,,,,,,,,,,,,,,,,,,,,,,,,,,,,,,,,,,,,,,,,,,,,,,,,,,,,,,,,,,,,,,,,75,6,2025-02-21_09h42.41.672,comp,2024.2.4,56.53737073102348,2025-02-21 11h02.45.180671 -0500,
0,0,0,,,,,,,,,,,,,,,0,0,0,0,,,,,,,,,11.43746280670166,,,,,,,,,,,,,,,,,,,,,,,,,,11.421801567077637,11.43746280670166,11.43746280670166,12.921406030654907,15.796242237091064,space,2.857910633087158,None,15.796387910842896,15.811967372894287,15.811967372894287,17.3067409992218,26.410064220428467,space,9.096554040908813,None,26.41021227836609,26.439571619033813,26.439571619033813,26.439571619033813,26.439571619033813,26.439571619033813,26.439571619033813,26.439571619033813,26.439571619033813,26.439571619033813,27.925028085708618,31.798340559005737,space,3.8618991374969482,None,31.798495769500732,31.820043325424194,31.820043325424194,31.820043325424194,33.311028480529785,39.81566643714905,space,6.500971078872681,None,39.815815925598145,39.83097815513611,39.83097815513611,41.33028507232666,45.599374532699585,space,4.264533758163452,None,45.599570512771606,45.61456823348999,45.61456823348999,48.05038619041443,space,2.4200387001037598,None,,,,,,,,,,,,,,,,,,,,,,,,,,,,,,,,,,,,,,,,,,,,,,,75,6,2025-02-21_09h42.41.672,comp,2024.2.4,56.53737073102348,2025-02-21 11h02.45.180671 -0500,
0,0,0,filler_square,None,None,None,None,None,None,None,None,None,None,1,6.90563440322876,None,,,,,0,0,0,0,0,0,0,189,48.1297025680542,,,,,,,,,,,,,,,,,,,,,,,,,,,,,,,,,,,,,,,,,,,,,,,,,,,,,,,,,,,,,,,,,,,,,,,,,,,,,,,,,59.524481779541595,59.524481779541595,58.426448966023216,58.02965566249076,58.99084790601411,57.92013220375594,4.0,4.2,-155,0,0,-268,154,-8,48.11334991455078,48.113378047943115,48.11442971229553,48.1297025680542,48.27667713165283,48.27667713165283,48.27667713165283,48.27667713165283,48.27667713165283,48.27667713165283,48.27667713165283,55.04170274734497,1,6.90563440322876,None,,,,,,,,,,,,,,,,,,75,6,2025-02-21_09h42.41.672,comp,2024.2.4,56.53737073102348,2025-02-21 11h02.45.180671 -0500,
1,1,0,critical,whd,35.0,1.0,lower,57.0,133.0,133.0,57.0,70.0,70.0,2,14.41872763633728,None,,,,,0,0,0,0,0,1,1,84,55.056766748428345,,,,,,,,,,,,,,,,,,,,,,,,,,,,,,,,,,,,,,,,,,,,,,,,,,,,,,,,,,,,,,,,,,,,,,,,,,,,,,,,,57.0,133.0,133.0,57.0,70.0,70.0,1.0,1.1,-671,285,-480,257,-320,288,55.043203592300415,55.04328179359436,55.04609394073486,55.056766748428345,55.2022500038147,55.2022500038147,55.2022500038147,55.2022500038147,55.2022500038147,55.2022500038147,55.2022500038147,69.47798252105713,2,14.41872763633728,None,,,,,,,,,,,,,,,,,,75,6,2025-02-21_09h42.41.672,comp,2024.2.4,56.53737073102348,2025-02-21 11h02.45.180671 -0500,
2,2,0,critical,hdw,20.0,1.0,lower,133.0,57.0,78.0,78.0,57.0,133.0,2,7.645379066467285,None,,,,,0,0,0,0,0,2,2,114,69.49318647384644,,,,,,,,,,,,,,,,,,,,,,,,,,,,,,,,,,,,,,,,,,,,,,,,,,,,,,,,,,,,,,,,,,,,,,,,,,,,,,,,,133.0,57.0,78.0,78.0,57.0,133.0,1.0,1.1,-644,263,-480,261,-278,255,69.47954821586609,69.47962546348572,69.4825508594513,69.49318647384644,69.64002585411072,69.64002585411072,69.64002585411072,69.64002585411072,69.64002585411072,69.64002585411072,69.64002585411072,77.14834213256836,2,7.645379066467285,None,,,,,,,,,,,,,,,,,,75,6,2025-02-21_09h42.41.672,comp,2024.2.4,56.53737073102348,2025-02-21 11h02.45.180671 -0500,
3,3,0,critical,hwd,35.0,3.0,upper,200.0,125.0,125.0,200.0,127.0,127.0,2,5.445716142654419,None,,,,,0,0,0,0,0,3,3,99,77.16487979888916,,,,,,,,,,,,,,,,,,,,,,,,,,,,,,,,,,,,,,,,,,,,,,,,,,,,,,,,,,,,,,,,,,,,,,,,,,,,,,,,,200.0,125.0,125.0,200.0,127.0,127.0,3.0,3.2,-258,-271,0,11,260,285,77.14988780021667,77.14999079704285,77.15327286720276,77.16487979888916,77.31175708770752,77.31175708770752,77.31175708770752,77.31175708770752,77.31175708770752,77.31175708770752,77.31175708770752,82.61255097389221,2,5.445716142654419,None,,,,,,,,,,,,,,,,,,75,6,2025-02-21_09h42.41.672,comp,2024.2.4,56.53737073102348,2025-02-21 11h02.45.180671 -0500,
4,4,0,critical,whd,35.0,3.0,lower,57.0,133.0,133.0,57.0,70.0,70.0,2,12.08690619468689,None,,,,,0,0,0,0,0,4,4,86,82.62814521789551,,,,,,,,,,,,,,,,,,,,,,,,,,,,,,,,,,,,,,,,,,,,,,,,,,,,,,,,,,,,,,,,,,,,,,,,,,,,,,,,,57.0,133.0,133.0,57.0,70.0,70.0,3.0,3.1,-191,273,0,-16,160,-264,82.61423921585083,82.614342212677,82.617511510849,82.62814521789551,82.77698564529419,82.77698564529419,82.77698564529419,82.77698564529419,82.77698564529419,82.77698564529419,82.77698564529419,94.7312741279602,2,12.08690619468689,None,,,,,,,,,,,,,,,,,,75,6,2025-02-21_09h42.41.672,comp,2024.2.4,56.53737073102348,2025-02-21 11h02.45.180671 -0500,
5,5,0,critical,hwd,20.0,4.0,upper,200.0,125.0,125.0,200.0,141.0,141.0,2,4.945455551147461,None,,,,,0,0,0,0,0,5,5,107,94.74510455131531,,,,,,,,,,,,,,,,,,,,,,,,,,,,,,,,,,,,,,,,,,,,,,,,,,,,,,,,,,,,,,,,,,,,,,,,,,,,,,,,,200.0,125.0,125.0,200.0,141.0,141.0,4.0,4.2,-258,-8,0,-269,266,9,94.73276233673096,94.73284006118774,94.73597407341003,94.74510455131531,94.89716053009033,94.89716053009033,94.89716053009033,94.89716053009033,94.89716053009033,94.89716053009033,94.89716053009033,99.70722484588623,2,4.945455551147461,None,,,,,,,,,,,,,,,,,,75,6,2025-02-21_09h42.41.672,comp,2024.2.4,56.53737073102348,2025-02-21 11h02.45.180671 -0500,
6,6,0,critical,whd,35.0,2.1,lower,57.0,133.0,133.0,57.0,70.0,70.0,1,6.60562801361084,None,,,,,0,0,0,0,0,6,6,36,99.72574496269226,,,,,,,,,,,,,,,,,,,,,,,,,,,,,,,,,,,,,,,,,,,,,,,,,,,,,,,,,,,,,,,,,,,,,,,,,,,,,,,,,57.0,133.0,133.0,57.0,70.0,70.0,2.1,2.11,-191,262,0,262,160,-270,99.70867395401001,99.70875144004822,99.71161270141602,99.72574496269226,99.86254048347473,99.86254048347473,99.86254048347473,99.86254048347473,99.86254048347473,99.86254048347473,99.86254048347473,106.33544921875,1,6.60562801361084,None,,,,,,,,,,,,,,,,,,75,6,2025-02-21_09h42.41.672,comp,2024.2.4,56.53737073102348,2025-02-21 11h02.45.180671 -0500,
7,7,0,filler_random,None,None,None,None,None,None,None,None,None,None,3,23.195425510406494,None,,,,,0,0,0,0,0,7,7,156,106.35122275352478,,,,,,,,,,,,,,,,,,,,,,,,,,,,,,,,,,,,,,,,,,,,,,,,,,,,,,,,,,,,,,,,,,,,,,,,,,,,,,,,,102.25973413896247,102.31273645215987,195.72290474366443,125.0537194703585,146.04083211993745,155.08768469331864,2.2,2.21,-210,-288,0,272,236,266,106.33718228340149,106.33726024627686,106.34050965309143,106.35122275352478,106.50153303146362,106.50153303146362,106.50153303146362,106.50153303146362,106.50153303146362,106.50153303146362,106.50153303146362,129.55821681022644,3,23.195425510406494,None,,,,,,,,,,,,,,,,,,75,6,2025-02-21_09h42.41.672,comp,2024.2.4,56.53737073102348,2025-02-21 11h02.45.180671 -0500,
8,8,0,critical,dhw,20.0,3.0,lower,78.0,78.0,133.0,57.0,57.0,133.0,3,3.1058428287506104,None,,,,,0,0,0,0,0,8,8,56,129.57845187187195,,,,,,,,,,,,,,,,,,,,,,,,,,,,,,,,,,,,,,,,,,,,,,,,,,,,,,,,,,,,,,,,,,,,,,,,,,,,,,,,,78.0,78.0,133.0,57.0,57.0,133.0,3.0,3.1,-164,254,0,19,191,-267,129.55974340438843,129.55982208251953,129.56277656555176,129.57845187187195,129.7258276939392,129.7258276939392,129.7258276939392,129.7258276939392,129.7258276939392,129.7258276939392,129.7258276939392,132.69038558006287,3,3.1058428287506104,None,,,,,,,,,,,,,,,,,,75,6,2025-02-21_09h42.41.672,comp,2024.2.4,56.53737073102348,2025-02-21 11h02.45.180671 -0500,
9,9,0,filler_square,None,None,None,None,None,None,None,None,None,None,1,3.2714712619781494,None,,,,,0,0,0,0,0,9,9,180,132.70723509788513,,,,,,,,,,,,,,,,,,,,,,,,,,,,,,,,,,,,,,,,,,,,,,,,,,,,,,,,,,,,,,,,,,,,,,,,,,,,,,,,,170.17917585839893,170.17917585839893,144.5903894189134,95.16358090818758,112.23954578085576,86.24705118430926,2.1,2.12,-229,-270,0,-278,187,263,132.69242477416992,132.69250440597534,132.6956639289856,132.70723509788513,132.84560465812683,132.84560465812683,132.84560465812683,132.84560465812683,132.84560465812683,132.84560465812683,132.84560465812683,135.99167776107788,1,3.2714712619781494,None,,,,,,,,,,,,,,,,,,75,6,2025-02-21_09h42.41.672,comp,2024.2.4,56.53737073102348,2025-02-21 11h02.45.180671 -0500,
10,10,0,critical,whd,20.0,2.1,upper,125.0,200.0,200.0,125.0,141.0,141.0,1,4.258789777755737,None,,,,,0,0,0,0,0,10,10,39,136.00784301757812,,,,,,,,,,,,,,,,,,,,,,,,,,,,,,,,,,,,,,,,,,,,,,,,,,,,,,,,,,,,,,,,,,,,,,,,,,,,,,,,,125.0,200.0,200.0,125.0,141.0,141.0,2.1,2.12,-258,-261,0,-264,229,275,135.99322867393494,135.99330401420593,135.99620866775513,136.00784301757812,136.14568567276,136.14568567276,136.14568567276,136.14568567276,136.14568567276,136.14568567276,136.14568567276,140.28274512290955,1,4.258789777755737,None,,,,,,,,,,,,,,,,,,75,6,2025-02-21_09h42.41.672,comp,2024.2.4,56.53737073102348,2025-02-21 11h02.45.180671 -0500,
11,11,0,critical,hwd,20.0,3.0,lower,133.0,57.0,57.0,133.0,78.0,78.0,2,4.03965950012207,None,,,,,0,0,0,0,0,11,11,104,140.29899716377258,,,,,,,,,,,,,,,,,,,,,,,,,,,,,,,,,,,,,,,,,,,,,,,,,,,,,,,,,,,,,,,,,,,,,,,,,,,,,,,,,133.0,57.0,57.0,133.0,78.0,78.0,3.0,3.1,-191,275,0,-17,202,-258,140.28443312644958,140.2845368385315,140.28777885437012,140.29899716377258,140.44540691375732,140.44540691375732,140.44540691375732,140.44540691375732,140.44540691375732,140.44540691375732,140.44540691375732,144.35096979141235,2,4.03965950012207,None,,,,,,,,,,,,,,,,,,75,6,2025-02-21_09h42.41.672,comp,2024.2.4,56.53737073102348,2025-02-21 11h02.45.180671 -0500,
12,12,0,critical,dwh,35.0,1.0,lower,70.0,70.0,57.0,133.0,133.0,57.0,3,2.6448724269866943,None,,,,,0,0,0,0,0,12,12,60,144.36650729179382,,,,,,,,,,,,,,,,,,,,,,,,,,,,,,,,,,,,,,,,,,,,,,,,,,,,,,,,,,,,,,,,,,,,,,,,,,,,,,,,,70.0,70.0,57.0,133.0,133.0,57.0,1.0,1.3,282,-285,480,-275,671,-254,144.35260605812073,144.3527319431305,144.35602450370789,144.36650729179382,144.5185091495514,144.5185091495514,144.5185091495514,144.5185091495514,144.5185091495514,144.5185091495514,144.5185091495514,147.01726078987122,3,2.6448724269866943,None,,,,,,,,,,,,,,,,,,75,6,2025-02-21_09h42.41.672,comp,2024.2.4,56.53737073102348,2025-02-21 11h02.45.180671 -0500,
13,13,0,critical,hwd,20.0,1.0,upper,200.0,125.0,125.0,200.0,141.0,141.0,2,2.9832518100738525,None,,,,,0,0,0,0,0,13,13,103,147.03550672531128,,,,,,,,,,,,,,,,,,,,,,,,,,,,,,,,,,,,,,,,,,,,,,,,,,,,,,,,,,,,,,,,,,,,,,,,,,,,,,,,,200.0,125.0,125.0,200.0,141.0,141.0,1.0,1.1,-738,257,-480,270,-214,282,147.0189709663391,147.01910734176636,147.022385597229,147.03550672531128,147.18157052993774,147.18157052993774,147.18157052993774,147.18157052993774,147.18157052993774,147.18157052993774,147.18157052993774,150.03223252296448,2,2.9832518100738525,None,,,,,,,,,,,,,,,,,,75,6,2025-02-21_09h42.41.672,comp,2024.2.4,56.53737073102348,2025-02-21 11h02.45.180671 -0500,
14,14,0,critical,hwd,35.0,2.1,lower,133.0,57.0,57.0,133.0,70.0,70.0,1,7.154668807983398,None,,,,,0,0,0,0,0,14,14,16,150.04803276062012,,,,,,,,,,,,,,,,,,,,,,,,,,,,,,,,,,,,,,,,,,,,,,,,,,,,,,,,,,,,,,,,,,,,,,,,,,,,,,,,,133.0,57.0,57.0,133.0,70.0,70.0,2.1,2.12,-191,-284,0,-281,198,277,150.03380870819092,150.03388500213623,150.03782176971436,150.04803276062012,150.20056915283203,150.20056915283203,150.20056915283203,150.20056915283203,150.20056915283203,150.20056915283203,150.20056915283203,157.21649408340454,1,7.154668807983398,None,,,,,,,,,,,,,,,,,,75,6,2025-02-21_09h42.41.672,comp,2024.2.4,56.53737073102348,2025-02-21 11h02.45.180671 -0500,
15,15,0,critical,wdh,20.0,3.0,lower,57.0,133.0,78.0,78.0,133.0,57.0,3,5.139114141464233,None,,,,,0,0,0,0,0,15,15,80,157.2316234111786,,,,,,,,,,,,,,,,,,,,,,,,,,,,,,,,,,,,,,,,,,,,,,,,,,,,,,,,,,,,,,,,,,,,,,,,,,,,,,,,,57.0,133.0,78.0,78.0,133.0,57.0,3.0,3.2,-202,-263,0,-12,164,282,157.2179913520813,157.21806693077087,157.2210612297058,157.2316234111786,157.3852734565735,157.3852734565735,157.3852734565735,157.3852734565735,157.3852734565735,157.3852734565735,157.3852734565735,162.38745141029358,3,5.139114141464233,None,,,,,,,,,,,,,,,,,,75,6,2025-02-21_09h42.41.672,comp,2024.2.4,56.53737073102348,2025-02-21 11h02.45.180671 -0500,
16,16,0,critical,hdw,35.0,2.1,upper,200.0,125.0,127.0,127.0,125.0,200.0,3,2.056265115737915,None,,,,,0,0,0,0,0,16,16,45,162.40257358551025,,,,,,,,,,,,,,,,,,,,,,,,,,,,,,,,,,,,,,,,,,,,,,,,,,,,,,,,,,,,,,,,,,,,,,,,,,,,,,,,,200.0,125.0,127.0,127.0,125.0,200.0,2.1,2.11,-222,289,0,265,260,-256,162.38895559310913,162.38907027244568,162.392352104187,162.40257358551025,162.5517933368683,162.5517933368683,162.5517933368683,162.5517933368683,162.5517933368683,162.5517933368683,162.5517933368683,164.47216248512268,3,2.056265115737915,None,,,,,,,,,,,,,,,,,,75,6,2025-02-21_09h42.41.672,comp,2024.2.4,56.53737073102348,2025-02-21 11h02.45.180671 -0500,
17,17,0,critical,wdh,20.0,2.1,lower,57.0,133.0,78.0,78.0,133.0,57.0,3,5.42608118057251,None,,,,,0,0,0,0,0,17,17,34,164.4886074066162,,,,,,,,,,,,,,,,,,,,,,,,,,,,,,,,,,,,,,,,,,,,,,,,,,,,,,,,,,,,,,,,,,,,,,,,,,,,,,,,,57.0,133.0,78.0,78.0,133.0,57.0,2.1,2.12,-202,-272,0,-285,164,261,164.47385716438293,164.47398257255554,164.47801518440247,164.4886074066162,164.62485122680664,164.62485122680664,164.62485122680664,164.62485122680664,164.62485122680664,164.62485122680664,164.62485122680664,169.92678904533386,3,5.42608118057251,None,,,,,,,,,,,,,,,,,,75,6,2025-02-21_09h42.41.672,comp,2024.2.4,56.53737073102348,2025-02-21 11h02.45.180671 -0500,
18,18,0,critical,whd,20.0,2.1,lower,57.0,133.0,133.0,57.0,78.0,78.0,2,1.6858670711517334,None,,,,,0,0,0,0,0,18,18,38,169.9428517818451,,,,,,,,,,,,,,,,,,,,,,,,,,,,,,,,,,,,,,,,,,,,,,,,,,,,,,,,,,,,,,,,,,,,,,,,,,,,,,,,,57.0,133.0,133.0,57.0,78.0,78.0,2.1,2.11,-191,278,0,257,164,-275,169.92837166786194,169.92844891548157,169.9316759109497,169.9428517818451,170.08832168579102,170.08832168579102,170.08832168579102,170.08832168579102,170.08832168579102,170.08832168579102,170.08832168579102,171.6402566432953,2,1.6858670711517334,None,,,,,,,,,,,,,,,,,,75,6,2025-02-21_09h42.41.672,comp,2024.2.4,56.53737073102348,2025-02-21 11h02.45.180671 -0500,
19,19,0,filler_square,None,None,None,None,None,None,None,None,None,None,3,1.7700607776641846,None,,,,,0,0,0,0,0,19,19,194,171.65677285194397,,,,,,,,,,,,,,,,,,,,,,,,,,,,,,,,,,,,,,,,,,,,,,,,,,,,,,,,,,,,,,,,,,,,,,,,,,,,,,,,,101.49112785086706,110.44245815327857,164.1017531278724,149.69241703301105,189.64393230558028,189.64393230558028,1.0,1.1,-706,284,-480,254,-214,281,171.64228582382202,171.64240217208862,171.64598155021667,171.65677285194397,171.804603099823,171.804603099823,171.804603099823,171.804603099823,171.804603099823,171.804603099823,171.804603099823,173.4403579235077,3,1.7700607776641846,None,,,,,,,,,,,,,,,,,,75,6,2025-02-21_09h42.41.672,comp,2024.2.4,56.53737073102348,2025-02-21 11h02.45.180671 -0500,
20,20,0,filler_square,None,None,None,None,None,None,None,None,None,None,3,5.154675483703613,None,,,,,0,0,0,0,0,20,20,183,173.45630860328674,,,,,,,,,,,,,,,,,,,,,,,,,,,,,,,,,,,,,,,,,,,,,,,,,,,,,,,,,,,,,,,,,,,,,,,,,,,,,,,,,58.31297986862281,58.31297986862281,58.204405455497984,57.17249143262082,58.29505390410717,57.26836372996525,4.0,4.1,-154,-260,0,6,153,-258,173.442036151886,173.44212937355042,173.44609308242798,173.45630860328674,173.60856676101685,173.60856676101685,173.60856676101685,173.60856676101685,173.60856676101685,173.60856676101685,173.60856676101685,178.62786197662354,3,5.154675483703613,None,,,,,,,,,,,,,,,,,,75,6,2025-02-21_09h42.41.672,comp,2024.2.4,56.53737073102348,2025-02-21 11h02.45.180671 -0500,
21,21,0,filler_random,None,None,None,None,None,None,None,None,None,None,3,17.82768201828003,None,,,,,0,0,0,0,0,21,21,159,178.64774441719055,,,,,,,,,,,,,,,,,,,,,,,,,,,,,,,,,,,,,,,,,,,,,,,,,,,,,,,,,,,,,,,,,,,,,,,,,,,,,,,,,119.88256856394815,94.50597343334523,128.3308575375086,92.51389747103933,189.29306096578998,76.51464948223409,3.0,3.1,-190,285,0,9,181,-258,178.62960052490234,178.62970423698425,178.63306784629822,178.64774441719055,178.79037165641785,178.79037165641785,178.79037165641785,178.79037165641785,178.79037165641785,178.79037165641785,178.79037165641785,196.4832010269165,3,17.82768201828003,None,,,,,,,,,,,,,,,,,,75,6,2025-02-21_09h42.41.672,comp,2024.2.4,56.53737073102348,2025-02-21 11h02.45.180671 -0500,
22,22,0,critical,dwh,35.0,4.0,upper,127.0,127.0,125.0,200.0,200.0,125.0,2,3.6600189208984375,None,,,,,0,0,0,0,0,22,22,65,196.50283193588257,,,,,,,,,,,,,,,,,,,,,,,,,,,,,,,,,,,,,,,,,,,,,,,,,,,,,,,,,,,,,,,,,,,,,,,,,,,,,,,,,127.0,127.0,125.0,200.0,200.0,125.0,4.0,4.2,-260,-6,0,-253,258,11,196.4849362373352,196.48507499694824,196.4883234500885,196.50283193588257,196.64529728889465,196.64529728889465,196.64529728889465,196.64529728889465,196.64529728889465,196.64529728889465,196.64529728889465,200.1669306755066,2,3.6600189208984375,None,,,,,,,,,,,,,,,,,,75,6,2025-02-21_09h42.41.672,comp,2024.2.4,56.53737073102348,2025-02-21 11h02.45.180671 -0500,
23,23,0,critical,whd,20.0,2.1,lower,57.0,133.0,133.0,57.0,78.0,78.0,2,2.874467611312866,None,,,,,0,0,0,0,0,23,23,14,200.18504071235657,,,,,,,,,,,,,,,,,,,,,,,,,,,,,,,,,,,,,,,,,,,,,,,,,,,,,,,,,,,,,,,,,,,,,,,,,,,,,,,,,57.0,133.0,133.0,57.0,78.0,78.0,2.1,2.11,-191,268,0,290,164,-272,200.16851377487183,200.16859126091003,200.1718566417694,200.18504071235657,200.33673071861267,200.33673071861267,200.33673071861267,200.33673071861267,200.33673071861267,200.33673071861267,200.33673071861267,203.06561493873596,2,2.874467611312866,None,,,,,,,,,,,,,,,,,,75,6,2025-02-21_09h42.41.672,comp,2024.2.4,56.53737073102348,2025-02-21 11h02.45.180671 -0500,
24,24,0,filler_square,None,None,None,None,None,None,None,None,None,None,1,2.0968286991119385,None,,,,,0,0,0,0,0,24,24,181,203.08219146728516,,,,,,,,,,,,,,,,,,,,,,,,,,,,,,,,,,,,,,,,,,,,,,,,,,,,,,,,,,,,,,,,,,,,,,,,,,,,,,,,,65.86750839198953,65.86750839198953,59.802203478661866,62.01319048652993,64.0908268643287,58.502931083952824,2.1,2.11,-160,283,0,258,156,-253,203.06761074066162,203.06769037246704,203.07120323181152,203.08219146728516,203.23601126670837,203.23601126670837,203.23601126670837,203.23601126670837,203.23601126670837,203.23601126670837,203.23601126670837,205.18179154396057,1,2.0968286991119385,None,,,,,,,,,,,,,,,,,,75,6,2025-02-21_09h42.41.672,comp,2024.2.4,56.53737073102348,2025-02-21 11h02.45.180671 -0500,
25,25,0,critical,wdh,35.0,3.0,upper,125.0,200.0,127.0,127.0,200.0,125.0,1,3.9965693950653076,None,,,,,0,0,0,0,0,25,25,75,205.19874215126038,,,,,,,,,,,,,,,,,,,,,,,,,,,,,,,,,,,,,,,,,,,,,,,,,,,,,,,,,,,,,,,,,,,,,,,,,,,,,,,,,125.0,200.0,127.0,127.0,200.0,125.0,3.0,3.2,-260,-270,0,-12,222,278,205.18327355384827,205.18335151672363,205.18644213676453,205.19874215126038,205.3503541946411,205.3503541946411,205.3503541946411,205.3503541946411,205.3503541946411,205.3503541946411,205.3503541946411,209.20129203796387,1,3.9965693950653076,None,,,,,,,,,,,,,,,,,,75,6,2025-02-21_09h42.41.672,comp,2024.2.4,56.53737073102348,2025-02-21 11h02.45.180671 -0500,
26,26,0,critical,hdw,20.0,1.0,upper,200.0,125.0,141.0,141.0,125.0,200.0,3,2.2499568462371826,None,,,,,0,0,0,0,0,26,26,115,209.216783285141,,,,,,,,,,,,,,,,,,,,,,,,,,,,,,,,,,,,,,,,,,,,,,,,,,,,,,,,,,,,,,,,,,,,,,,,,,,,,,,,,200.0,125.0,141.0,141.0,125.0,200.0,1.0,1.1,-709,285,-480,266,-214,283,209.20280528068542,209.20288228988647,209.20573353767395,209.216783285141,209.35657811164856,209.35657811164856,209.35657811164856,209.35657811164856,209.35657811164856,209.35657811164856,209.35657811164856,211.4842290878296,3,2.2499568462371826,None,,,,,,,,,,,,,,,,,,75,6,2025-02-21_09h42.41.672,comp,2024.2.4,56.53737073102348,2025-02-21 11h02.45.180671 -0500,
27,27,0,filler_random,None,None,None,None,None,None,None,None,None,None,3,1.767108678817749,None,,,,,0,0,0,0,0,27,27,141,211.4999873638153,,,,,,,,,,,,,,,,,,,,,,,,,,,,,,,,,,,,,,,,,,,,,,,,,,,,,,,,,,,,,,,,,,,,,,,,,,,,,,,,,146.15781473227833,127.04121790336177,145.9466692895496,193.62043819111986,184.1162122856169,198.041528630768,4.0,4.2,-256,-10,0,-271,292,-1,211.48584651947021,211.48594045639038,211.48895120620728,211.4999873638153,211.65026354789734,211.65026354789734,211.65026354789734,211.65026354789734,211.65026354789734,211.65026354789734,211.65026354789734,213.26932644844055,3,1.767108678817749,None,,,,,,,,,,,,,,,,,,75,6,2025-02-21_09h42.41.672,comp,2024.2.4,56.53737073102348,2025-02-21 11h02.45.180671 -0500,
28,28,0,filler_random,None,None,None,None,None,None,None,None,None,None,2,2.2849512100219727,None,,,,,0,0,0,0,0,28,28,133,213.28598141670227,,,,,,,,,,,,,,,,,,,,,,,,,,,,,,,,,,,,,,,,,,,,,,,,,,,,,,,,,,,,,,,,,,,,,,,,,,,,,,,,,84.4530862812132,64.67053173357591,67.08532557561671,121.32436996418541,97.00964433239186,69.99328974425458,2.1,2.11,-189,263,0,256,192,-269,213.27108192443848,213.27121806144714,213.27443528175354,213.28598141670227,213.4353723526001,213.4353723526001,213.4353723526001,213.4353723526001,213.4353723526001,213.4353723526001,213.4353723526001,215.57415080070496,2,2.2849512100219727,None,,,,,,,,,,,,,,,,,,75,6,2025-02-21_09h42.41.672,comp,2024.2.4,56.53737073102348,2025-02-21 11h02.45.180671 -0500,
29,29,0,filler_random,None,None,None,None,None,None,None,None,None,None,3,2.0083885192871094,None,,,,,0,0,0,0,0,29,29,144,215.5950174331665,,,,,,,,,,,,,,,,,,,,,,,,,,,,,,,,,,,,,,,,,,,,,,,,,,,,,,,,,,,,,,,,,,,,,,,,,,,,,,,,,189.3130975813221,77.22622262534298,167.87730126776268,99.78603713165339,141.33629253112383,180.7943531062633,2.1,2.12,-185,-253,0,-255,236,268,215.57589530944824,215.57605409622192,215.5792956352234,215.5950174331665,215.73640966415405,215.73640966415405,215.73640966415405,215.73640966415405,215.73640966415405,215.73640966415405,215.73640966415405,217.60570192337036,3,2.0083885192871094,None,,,,,,,,,,,,,,,,,,75,6,2025-02-21_09h42.41.672,comp,2024.2.4,56.53737073102348,2025-02-21 11h02.45.180671 -0500,
30,30,0,filler_random,None,None,None,None,None,None,None,None,None,None,3,1.573340892791748,None,,,,,0,0,0,0,0,30,30,151,217.62208533287048,,,,,,,,,,,,,,,,,,,,,,,,,,,,,,,,,,,,,,,,,,,,,,,,,,,,,,,,,,,,,,,,,,,,,,,,,,,,,,,,,178.26341023963218,75.54722564009217,121.48236806394893,132.72246324726194,144.0254981944752,169.0965821177662,4.0,4.2,-200,-18,0,-251,247,-19,217.60755586624146,217.60763716697693,217.61141753196716,217.62208533287048,217.7699739933014,217.7699739933014,217.7699739933014,217.7699739933014,217.7699739933014,217.7699739933014,217.7699739933014,219.20669507980347,3,1.573340892791748,None,,,,,,,,,,,,,,,,,,75,6,2025-02-21_09h42.41.672,comp,2024.2.4,56.53737073102348,2025-02-21 11h02.45.180671 -0500,
31,31,0,filler_square,None,None,None,None,None,None,None,None,None,None,3,3.6762428283691406,None,,,,,0,0,0,0,0,31,31,199,219.22283744812012,,,,,,,,,,,,,,,,,,,,,,,,,,,,,,,,,,,,,,,,,,,,,,,,,,,,,,,,,,,,,,,,,,,,,,,,,,,,,,,,,57.8156111316202,57.8156111316202,57.502868487741885,57.27156824535109,57.51872554654069,57.649599288738514,2.2,2.22,-154,257,0,-262,153,-269,219.20871806144714,219.20879817008972,219.21216654777527,219.22283744812012,219.37563228607178,219.37563228607178,219.37563228607178,219.37563228607178,219.37563228607178,219.37563228607178,219.37563228607178,222.90401768684387,3,3.6762428283691406,None,,,,,,,,,,,,,,,,,,75,6,2025-02-21_09h42.41.672,comp,2024.2.4,56.53737073102348,2025-02-21 11h02.45.180671 -0500,
32,32,0,catch,None,None,None,None,None,None,None,None,None,None,1,6.89776086807251,None,,,,,0,0,0,0,0,32,32,127,222.9213125705719,,,,,,,,,,,,,,,,,,,,,,,,,,,,,,,,,,,,,,,,,,,,,,,,,,,,,,,,,,,,,,,,,,,,,,,,,,,,,,,,,165,160,98,92,87,103,3.0,3.1,-222,263,0,19,194,-256,222.9062204360962,222.90630102157593,222.90961718559265,222.9213125705719,223.0749945640564,223.0749945640564,223.0749945640564,223.0749945640564,223.0749945640564,223.0749945640564,223.0749945640564,229.82298755645752,1,6.89776086807251,None,,,,,,,,,,,,,,,,,,75,6,2025-02-21_09h42.41.672,comp,2024.2.4,56.53737073102348,2025-02-21 11h02.45.180671 -0500,
33,33,0,filler_random,None,None,None,None,None,None,None,None,None,None,3,2.242410182952881,None,,,,,0,0,0,0,0,33,33,165,229.8425850868225,,,,,,,,,,,,,,,,,,,,,,,,,,,,,,,,,,,,,,,,,,,,,,,,,,,,,,,,,,,,,,,,,,,,,,,,,,,,,,,,,86.84526264802443,136.4125117922601,173.17299334617388,64.03840492952482,143.6428745784665,162.84426765976235,3.0,3.2,-196,-282,0,-10,209,264,229.82467317581177,229.82475090026855,229.82785534858704,229.8425850868225,229.98999857902527,229.98999857902527,229.98999857902527,229.98999857902527,229.98999857902527,229.98999857902527,229.98999857902527,232.09027290344238,3,2.242410182952881,None,,,,,,,,,,,,,,,,,,75,6,2025-02-21_09h42.41.672,comp,2024.2.4,56.53737073102348,2025-02-21 11h02.45.180671 -0500,
34,34,0,critical,hdw,35.0,2.1,lower,133.0,57.0,70.0,70.0,57.0,133.0,1,3.3933157920837402,None,,,,,0,0,0,0,0,34,34,20,232.10567665100098,,,,,,,,,,,,,,,,,,,,,,,,,,,,,,,,,,,,,,,,,,,,,,,,,,,,,,,,,,,,,,,,,,,,,,,,,,,,,,,,,133.0,57.0,70.0,70.0,57.0,133.0,2.1,2.11,-160,256,0,258,198,-251,232.09173560142517,232.09181237220764,232.09472823143005,232.10567665100098,232.2539873123169,232.2539873123169,232.2539873123169,232.2539873123169,232.2539873123169,232.2539873123169,232.2539873123169,235.51036429405212,1,3.3933157920837402,None,,,,,,,,,,,,,,,,,,75,6,2025-02-21_09h42.41.672,comp,2024.2.4,56.53737073102348,2025-02-21 11h02.45.180671 -0500,
35,35,0,critical,wdh,35.0,2.1,upper,125.0,200.0,127.0,127.0,200.0,125.0,1,2.5353591442108154,None,,,,,0,0,0,0,0,35,35,9,235.53139662742615,,,,,,,,,,,,,,,,,,,,,,,,,,,,,,,,,,,,,,,,,,,,,,,,,,,,,,,,,,,,,,,,,,,,,,,,,,,,,,,,,125.0,200.0,127.0,127.0,200.0,125.0,2.1,2.11,-260,281,0,258,222,-286,235.51185011863708,235.51197147369385,235.51571559906006,235.53139662742615,235.67561101913452,235.67561101913452,235.67561101913452,235.67561101913452,235.67561101913452,235.67561101913452,235.67561101913452,238.07648849487305,1,2.5353591442108154,None,,,,,,,,,,,,,,,,,,75,6,2025-02-21_09h42.41.672,comp,2024.2.4,56.53737073102348,2025-02-21 11h02.45.180671 -0500,
36,36,0,filler_square,None,None,None,None,None,None,None,None,None,None,3,12.15860891342163,None,,,,,0,0,0,0,0,36,36,206,238.09211993217468,,,,,,,,,,,,,,,,,,,,,,,,,,,,,,,,,,,,,,,,,,,,,,,,,,,,,,,,,,,,,,,,,,,,,,,,,,,,,,,,,128.38961195210214,136.79332238498725,150.13563392484122,77.87742549360134,151.53900408682205,151.53900408682205,2.1,2.12,-203,-275,0,-273,211,276,238.07860398292542,238.0786862373352,238.08221793174744,238.09211993217468,238.24575543403625,238.24575543403625,238.24575543403625,238.24575543403625,238.24575543403625,238.24575543403625,238.24575543403625,250.26419854164124,3,12.15860891342163,None,,,,,,,,,,,,,,,,,,75,6,2025-02-21_09h42.41.672,comp,2024.2.4,56.53737073102348,2025-02-21 11h02.45.180671 -0500,
37,37,0,critical,whd,20.0,1.0,lower,57.0,133.0,133.0,57.0,78.0,78.0,2,3.5065252780914307,None,,,,,0,0,0,0,0,37,37,90,250.28027772903442,,,,,,,,,,,,,,,,,,,,,,,,,,,,,,,,,,,,,,,,,,,,,,,,,,,,,,,,,,,,,,,,,,,,,,,,,,,,,,,,,57.0,133.0,133.0,57.0,78.0,78.0,1.0,1.2,-191,-18,0,2,164,1,250.26569175720215,250.26576852798462,250.26990270614624,250.28027772903442,250.42927479743958,250.42927479743958,250.42927479743958,250.42927479743958,250.42927479743958,250.42927479743958,250.42927479743958,253.80319952964783,2,3.5065252780914307,None,,,,,,,,,,,,,,,,,,75,6,2025-02-21_09h42.41.672,comp,2024.2.4,56.53737073102348,2025-02-21 11h02.45.180671 -0500,
38,38,0,critical,dhw,20.0,2.1,upper,141.0,141.0,200.0,125.0,125.0,200.0,3,1.280045986175537,None,,,,,0,0,0,0,0,38,38,27,253.81873655319214,,,,,,,,,,,,,,,,,,,,,,,,,,,,,,,,,,,,,,,,,,,,,,,,,,,,,,,,,,,,,,,,,,,,,,,,,,,,,,,,,141.0,141.0,200.0,125.0,125.0,200.0,2.1,2.11,-229,252,0,251,258,-279,253.80468487739563,253.80476212501526,253.80763149261475,253.81873655319214,253.9657483100891,253.9657483100891,253.9657483100891,253.9657483100891,253.9657483100891,253.9657483100891,253.9657483100891,255.11378979682922,3,1.280045986175537,None,,,,,,,,,,,,,,,,,,75,6,2025-02-21_09h42.41.672,comp,2024.2.4,56.53737073102348,2025-02-21 11h02.45.180671 -0500,
39,39,0,critical,hwd,20.0,1.0,lower,133.0,57.0,57.0,133.0,78.0,78.0,1,1.9486398696899414,None,,,,,0,0,0,0,0,39,39,102,255.134596824646,,,,,,,,,,,,,,,,,,,,,,,,,,,,,,,,,,,,,,,,,,,,,,,,,,,,,,,,,,,,,,,,,,,,,,,,,,,,,,,,,133.0,57.0,57.0,133.0,78.0,78.0,1.0,1.1,-671,278,-480,255,-278,288,255.11541199684143,255.11548805236816,255.11869978904724,255.134596824646,255.2659616470337,255.2659616470337,255.2659616470337,255.2659616470337,255.2659616470337,255.2659616470337,255.2659616470337,257.0891845226288,1,1.9486398696899414,None,,,,,,,,,,,,,,,,,,75,6,2025-02-21_09h42.41.672,comp,2024.2.4,56.53737073102348,2025-02-21 11h02.45.180671 -0500,
40,40,0,critical,dwh,35.0,3.0,lower,70.0,70.0,57.0,133.0,133.0,57.0,3,1.8823187351226807,None,,,,,0,0,0,0,0,40,40,62,257.1044945716858,,,,,,,,,,,,,,,,,,,,,,,,,,,,,,,,,,,,,,,,,,,,,,,,,,,,,,,,,,,,,,,,,,,,,,,,,,,,,,,,,70.0,70.0,57.0,133.0,133.0,57.0,3.0,3.2,-198,-254,0,6,191,258,257.0907073020935,257.0907850265503,257.09368991851807,257.1044945716858,257.25001978874207,257.25001978874207,257.25001978874207,257.25001978874207,257.25001978874207,257.25001978874207,257.25001978874207,258.9984622001648,3,1.8823187351226807,None,,,,,,,,,,,,,,,,,,75,6,2025-02-21_09h42.41.672,comp,2024.2.4,56.53737073102348,2025-02-21 11h02.45.180671 -0500,
41,41,0,critical,hwd,20.0,2.1,lower,133.0,57.0,57.0,133.0,78.0,78.0,1,1.4916589260101318,None,,,,,0,0,0,0,0,41,41,18,259.0151352882385,,,,,,,,,,,,,,,,,,,,,,,,,,,,,,,,,,,,,,,,,,,,,,,,,,,,,,,,,,,,,,,,,,,,,,,,,,,,,,,,,133.0,57.0,57.0,133.0,78.0,78.0,2.1,2.11,-191,273,0,258,202,-263,258.9998939037323,259.0000030994415,259.00342988967896,259.0151352882385,259.16559505462646,259.16559505462646,259.16559505462646,259.16559505462646,259.16559505462646,259.16559505462646,259.16559505462646,260.5195138454437,1,1.4916589260101318,None,,,,,,,,,,,,,,,,,,75,6,2025-02-21_09h42.41.672,comp,2024.2.4,56.53737073102348,2025-02-21 11h02.45.180671 -0500,
42,42,0,critical,whd,35.0,2.1,lower,57.0,133.0,133.0,57.0,70.0,70.0,2,1.4214978218078613,None,,,,,0,0,0,0,0,42,42,12,260.5350077152252,,,,,,,,,,,,,,,,,,,,,,,,,,,,,,,,,,,,,,,,,,,,,,,,,,,,,,,,,,,,,,,,,,,,,,,,,,,,,,,,,57.0,133.0,133.0,57.0,70.0,70.0,2.1,2.11,-191,278,0,263,160,-256,260.5211741924286,260.5212619304657,260.5247013568878,260.5350077152252,260.68332147598267,260.68332147598267,260.68332147598267,260.68332147598267,260.68332147598267,260.68332147598267,260.68332147598267,261.9674172401428,2,1.4214978218078613,None,,,,,,,,,,,,,,,,,,75,6,2025-02-21_09h42.41.672,comp,2024.2.4,56.53737073102348,2025-02-21 11h02.45.180671 -0500,
43,43,0,critical,hwd,20.0,3.0,upper,200.0,125.0,125.0,200.0,141.0,141.0,2,4.243747234344482,None,,,,,0,0,0,0,0,43,43,105,261.98309659957886,,,,,,,,,,,,,,,,,,,,,,,,,,,,,,,,,,,,,,,,,,,,,,,,,,,,,,,,,,,,,,,,,,,,,,,,,,,,,,,,,200.0,125.0,125.0,200.0,141.0,141.0,3.0,3.2,-258,-260,0,-17,266,267,261.9689407348633,261.9690282344818,261.97239089012146,261.98309659957886,262.1386208534241,262.1386208534241,262.1386208534241,262.1386208534241,262.1386208534241,262.1386208534241,262.1386208534241,266.24072766304016,2,4.243747234344482,None,,,,,,,,,,,,,,,,,,75,6,2025-02-21_09h42.41.672,comp,2024.2.4,56.53737073102348,2025-02-21 11h02.45.180671 -0500,
44,44,0,critical,hwd,20.0,4.0,lower,133.0,57.0,57.0,133.0,78.0,78.0,1,3.475154161453247,None,,,,,0,0,0,0,0,44,44,106,266.2560865879059,,,,,,,,,,,,,,,,,,,,,,,,,,,,,,,,,,,,,,,,,,,,,,,,,,,,,,,,,,,,,,,,,,,,,,,,,,,,,,,,,133.0,57.0,57.0,133.0,78.0,78.0,4.0,4.2,-191,-19,0,-266,202,5,266.24238204956055,266.2424657344818,266.2456796169281,266.2560865879059,266.4053797721863,266.4053797721863,266.4053797721863,266.4053797721863,266.4053797721863,266.4053797721863,266.4053797721863,269.73940539360046,1,3.475154161453247,None,,,,,,,,,,,,,,,,,,75,6,2025-02-21_09h42.41.672,comp,2024.2.4,56.53737073102348,2025-02-21 11h02.45.180671 -0500,
45,45,0,critical,hdw,20.0,2.1,lower,133.0,57.0,78.0,78.0,57.0,133.0,1,3.164968967437744,None,,,,,0,0,0,0,0,45,45,46,269.75801491737366,,,,,,,,,,,,,,,,,,,,,,,,,,,,,,,,,,,,,,,,,,,,,,,,,,,,,,,,,,,,,,,,,,,,,,,,,,,,,,,,,133.0,57.0,78.0,78.0,57.0,133.0,2.1,2.12,-164,-278,0,-269,202,277,269.7408859729767,269.74099826812744,269.74432015419006,269.75801491737366,269.9115843772888,269.9115843772888,269.9115843772888,269.9115843772888,269.9115843772888,269.9115843772888,269.9115843772888,272.9277415275574,1,3.164968967437744,None,,,,,,,,,,,,,,,,,,75,6,2025-02-21_09h42.41.672,comp,2024.2.4,56.53737073102348,2025-02-21 11h02.45.180671 -0500,
46,46,0,filler_random,None,None,None,None,None,None,None,None,None,None,3,3.6797916889190674,None,,,,,0,0,0,0,0,46,46,158,272.9471900463104,,,,,,,,,,,,,,,,,,,,,,,,,,,,,,,,,,,,,,,,,,,,,,,,,,,,,,,,,,,,,,,,,,,,,,,,,,,,,,,,,71.90335005912776,118.88759234916476,193.8793146046512,105.15868904451742,157.5056892450283,188.5014794357843,4.0,4.2,-208,-6,0,-261,243,11,272.92937755584717,272.92945671081543,272.93245935440063,272.9471900463104,273.08628511428833,273.08628511428833,273.08628511428833,273.08628511428833,273.08628511428833,273.08628511428833,273.08628511428833,276.64183735847473,3,3.6797916889190674,None,,,,,,,,,,,,,,,,,,75,6,2025-02-21_09h42.41.672,comp,2024.2.4,56.53737073102348,2025-02-21 11h02.45.180671 -0500,
47,47,0,filler_square,None,None,None,None,None,None,None,None,None,None,3,1.7703831195831299,None,,,,,0,0,0,0,0,47,47,188,276.65797114372253,,,,,,,,,,,,,,,,,,,,,,,,,,,,,,,,,,,,,,,,,,,,,,,,,,,,,,,,,,,,,,,,,,,,,,,,,,,,,,,,,88.05469945556757,92.38504435472404,69.03583814232198,94.90749243112268,123.09164340048984,123.09164340048984,2.1,2.11,-190,279,0,273,205,-288,276.64397644996643,276.6440589427948,276.64765548706055,276.65797114372253,276.8049600124359,276.8049600124359,276.8049600124359,276.8049600124359,276.8049600124359,276.8049600124359,276.8049600124359,278.44049978256226,3,1.7703831195831299,None,,,,,,,,,,,,,,,,,,75,6,2025-02-21_09h42.41.672,comp,2024.2.4,56.53737073102348,2025-02-21 11h02.45.180671 -0500,
48,48,0,critical,wdh,35.0,2.1,lower,57.0,133.0,70.0,70.0,133.0,57.0,3,5.435420989990234,None,,,,,0,0,0,0,0,48,48,8,278.45585799217224,,,,,,,,,,,,,,,,,,,,,,,,,,,,,,,,,,,,,,,,,,,,,,,,,,,,,,,,,,,,,,,,,,,,,,,,,,,,,,,,,57.0,133.0,70.0,70.0,133.0,57.0,2.1,2.12,-198,-266,0,-270,160,286,278.4420084953308,278.4420998096466,278.44525599479675,278.45585799217224,278.6071848869324,278.6071848869324,278.6071848869324,278.6071848869324,278.6071848869324,278.6071848869324,278.6071848869324,283.8956913948059,3,5.435420989990234,None,,,,,,,,,,,,,,,,,,75,6,2025-02-21_09h42.41.672,comp,2024.2.4,56.53737073102348,2025-02-21 11h02.45.180671 -0500,
49,49,0,critical,hdw,35.0,4.0,upper,200.0,125.0,127.0,127.0,125.0,200.0,1,17.867166996002197,None,,,,,0,0,0,0,0,49,49,113,283.9117343425751,,,,,,,,,,,,,,,,,,,,,,,,,,,,,,,,,,,,,,,,,,,,,,,,,,,,,,,,,,,,,,,,,,,,,,,,,,,,,,,,,200.0,125.0,127.0,127.0,125.0,200.0,4.0,4.1,-222,-271,0,16,260,-290,283.897221326828,283.8973000049591,283.9001567363739,283.9117343425751,284.05780720710754,284.05780720710754,284.05780720710754,284.05780720710754,284.05780720710754,284.05780720710754,284.05780720710754,301.79599833488464,1,17.867166996002197,None,,,,,,,,,,,,,,,,,,75,6,2025-02-21_09h42.41.672,comp,2024.2.4,56.53737073102348,2025-02-21 11h02.45.180671 -0500,
50,50,0,catch,None,None,None,None,None,None,None,None,None,None,1,3.1738178730010986,None,,,,,0,0,0,0,0,50,50,125,301.81308126449585,,,,,,,,,,,,,,,,,,,,,,,,,,,,,,,,,,,,,,,,,,,,,,,,,,,,,,,,,,,,,,,,,,,,,,,,,,,,,,,,,159,166,95,95,107,83,1.0,1.2,-226,12,0,17,185,10,301.79781460762024,301.797892332077,301.8009021282196,301.81308126449585,301.96322560310364,301.96322560310364,301.96322560310364,301.96322560310364,301.96322560310364,301.96322560310364,301.96322560310364,304.99839186668396,1,3.1738178730010986,None,,,,,,,,,,,,,,,,,,75,6,2025-02-21_09h42.41.672,comp,2024.2.4,56.53737073102348,2025-02-21 11h02.45.180671 -0500,
51,51,0,critical,whd,20.0,3.0,upper,125.0,200.0,200.0,125.0,141.0,141.0,1,3.2878875732421875,None,,,,,0,0,0,0,0,51,51,93,305.01958870887756,,,,,,,,,,,,,,,,,,,,,,,,,,,,,,,,,,,,,,,,,,,,,,,,,,,,,,,,,,,,,,,,,,,,,,,,,,,,,,,,,125.0,200.0,200.0,125.0,141.0,141.0,3.0,3.1,-258,256,0,-1,229,-275,304.999902009964,305.0000011920929,305.0031268596649,305.01958870887756,305.16421389579773,305.16421389579773,305.16421389579773,305.16421389579773,305.16421389579773,305.16421389579773,305.16421389579773,308.3152048587799,1,3.2878875732421875,None,,,,,,,,,,,,,,,,,,75,6,2025-02-21_09h42.41.672,comp,2024.2.4,56.53737073102348,2025-02-21 11h02.45.180671 -0500,
52,52,0,filler_square,None,None,None,None,None,None,None,None,None,None,3,0.9119009971618652,None,,,,,0,0,0,0,0,52,52,208,308.33160877227783,,,,,,,,,,,,,,,,,,,,,,,,,,,,,,,,,,,,,,,,,,,,,,,,,,,,,,,,,,,,,,,,,,,,,,,,,,,,,,,,,62.91753267292739,120.70690383670978,96.08341794630005,100.93682828960782,172.4048190599114,172.4048190599114,2.1,2.12,-207,-270,0,-268,233,263,308.3172514438629,308.3173460960388,308.320663690567,308.33160877227783,308.4802231788635,308.4802231788635,308.4802231788635,308.4802231788635,308.4802231788635,308.4802231788635,308.4802231788635,309.2490425109863,3,0.9119009971618652,None,,,,,,,,,,,,,,,,,,75,6,2025-02-21_09h42.41.672,comp,2024.2.4,56.53737073102348,2025-02-21 11h02.45.180671 -0500,
53,53,0,critical,hdw,35.0,1.0,lower,133.0,57.0,70.0,70.0,57.0,133.0,1,6.769489049911499,None,,,,,0,0,0,0,0,53,53,108,309.2658030986786,,,,,,,,,,,,,,,,,,,,,,,,,,,,,,,,,,,,,,,,,,,,,,,,,,,,,,,,,,,,,,,,,,,,,,,,,,,,,,,,,133.0,57.0,70.0,70.0,57.0,133.0,1.0,1.1,-640,264,-480,271,-282,251,309.25067138671875,309.25076723098755,309.25495743751526,309.2658030986786,309.41463327407837,309.41463327407837,309.41463327407837,309.41463327407837,309.41463327407837,309.41463327407837,309.41463327407837,316.05024766921997,1,6.769489049911499,None,,,,,,,,,,,,,,,,,,75,6,2025-02-21_09h42.41.672,comp,2024.2.4,56.53737073102348,2025-02-21 11h02.45.180671 -0500,
54,54,0,critical,wdh,35.0,3.0,lower,57.0,133.0,70.0,70.0,133.0,57.0,3,1.2495319843292236,None,,,,,0,0,0,0,0,54,54,74,316.0658915042877,,,,,,,,,,,,,,,,,,,,,,,,,,,,,,,,,,,,,,,,,,,,,,,,,,,,,,,,,,,,,,,,,,,,,,,,,,,,,,,,,57.0,133.0,70.0,70.0,133.0,57.0,3.0,3.1,-198,279,0,-18,160,-288,316.0516736507416,316.05175161361694,316.05485367774963,316.0658915042877,316.2178387641907,316.2178387641907,316.2178387641907,316.2178387641907,316.2178387641907,316.2178387641907,316.2178387641907,317.3183488845825,3,1.2495319843292236,None,,,,,,,,,,,,,,,,,,75,6,2025-02-21_09h42.41.672,comp,2024.2.4,56.53737073102348,2025-02-21 11h02.45.180671 -0500,
55,55,0,filler_square,None,None,None,None,None,None,None,None,None,None,2,5.139545202255249,None,,,,,0,0,0,0,0,55,55,204,317.3356783390045,,,,,,,,,,,,,,,,,,,,,,,,,,,,,,,,,,,,,,,,,,,,,,,,,,,,,,,,,,,,,,,,,,,,,,,,,,,,,,,,,143.16208599077552,95.0690701671166,152.29660109189007,152.29660109189007,87.92199197832169,93.46887194569052,4.0,4.2,-220,6,0,-261,219,-2,317.32010793685913,317.32018780708313,317.32422256469727,317.3356783390045,317.4884331226349,317.4884331226349,317.4884331226349,317.4884331226349,317.4884331226349,317.4884331226349,317.4884331226349,322.4937496185303,2,5.139545202255249,None,,,,,,,,,,,,,,,,,,75,6,2025-02-21_09h42.41.672,comp,2024.2.4,56.53737073102348,2025-02-21 11h02.45.180671 -0500,
56,56,0,filler_random,None,None,None,None,None,None,None,None,None,None,1,2.5059425830841064,None,,,,,0,0,0,0,0,56,56,166,322.5136387348175,,,,,,,,,,,,,,,,,,,,,,,,,,,,,,,,,,,,,,,,,,,,,,,,,,,,,,,,,,,,,,,,,,,,,,,,,,,,,,,,,134.95634565925516,164.00258655553222,105.55125944972745,155.64078244184492,172.91146967644386,105.90490164777317,2.1,2.12,-256,-275,0,-278,227,279,322.4954252243042,322.49550223350525,322.498370885849,322.5136387348175,322.65308117866516,322.65308117866516,322.65308117866516,322.65308117866516,322.65308117866516,322.65308117866516,322.65308117866516,325.02398562431335,1,2.5059425830841064,None,,,,,,,,,,,,,,,,,,75,6,2025-02-21_09h42.41.672,comp,2024.2.4,56.53737073102348,2025-02-21 11h02.45.180671 -0500,
57,57,0,critical,dwh,35.0,2.1,lower,70.0,70.0,57.0,133.0,133.0,57.0,3,1.1422278881072998,None,,,,,0,0,0,0,0,57,57,28,325.03723526000977,,,,,,,,,,,,,,,,,,,,,,,,,,,,,,,,,,,,,,,,,,,,,,,,,,,,,,,,,,,,,,,,,,,,,,,,,,,,,,,,,70.0,70.0,57.0,133.0,133.0,57.0,2.1,2.12,-198,-266,0,-287,191,265,325.02580523490906,325.025856256485,325.0278675556183,325.03723526000977,325.19114923477173,325.19114923477173,325.19114923477173,325.19114923477173,325.19114923477173,325.19114923477173,325.19114923477173,326.18746280670166,3,1.1422278881072998,None,,,,,,,,,,,,,,,,,,75,6,2025-02-21_09h42.41.672,comp,2024.2.4,56.53737073102348,2025-02-21 11h02.45.180671 -0500,
58,58,0,filler_random,None,None,None,None,None,None,None,None,None,None,2,3.488046646118164,None,,,,,0,0,0,0,0,58,58,140,326.20302987098694,,,,,,,,,,,,,,,,,,,,,,,,,,,,,,,,,,,,,,,,,,,,,,,,,,,,,,,,,,,,,,,,,,,,,,,,,,,,,,,,,157.73937569915643,59.18625021900536,106.22114951298028,154.2869211185348,101.67681190868961,163.74146721951712,2.1,2.12,-203,-288,0,-255,255,286,326.18911814689636,326.1891973018646,326.1925039291382,326.20302987098694,326.3552942276001,326.3552942276001,326.3552942276001,326.3552942276001,326.3552942276001,326.3552942276001,326.3552942276001,329.7064826488495,2,3.488046646118164,None,,,,,,,,,,,,,,,,,,75,6,2025-02-21_09h42.41.672,comp,2024.2.4,56.53737073102348,2025-02-21 11h02.45.180671 -0500,
59,59,0,critical,wdh,35.0,2.1,lower,57.0,133.0,70.0,70.0,133.0,57.0,3,2.8812096118927,None,,,,,0,0,0,0,0,59,59,32,329.7224600315094,,,,,,,,,,,,,,,,,,,,,,,,,,,,,,,,,,,,,,,,,,,,,,,,,,,,,,,,,,,,,,,,,,,,,,,,,,,,,,,,,57.0,133.0,70.0,70.0,133.0,57.0,2.1,2.11,-198,258,0,263,160,-273,329.7079493999481,329.70803570747375,329.712117433548,329.7224600315094,329.8726794719696,329.8726794719696,329.8726794719696,329.8726794719696,329.8726794719696,329.8726794719696,329.8726794719696,332.60769295692444,3,2.8812096118927,None,,,,,,,,,,,,,,,,,,75,6,2025-02-21_09h42.41.672,comp,2024.2.4,56.53737073102348,2025-02-21 11h02.45.180671 -0500,
60,60,0,critical,hwd,35.0,4.0,lower,133.0,57.0,57.0,133.0,70.0,70.0,1,1.8908429145812988,None,,,,,0,0,0,0,0,60,60,100,332.6247863769531,,,,,,,,,,,,,,,,,,,,,,,,,,,,,,,,,,,,,,,,,,,,,,,,,,,,,,,,,,,,,,,,,,,,,,,,,,,,,,,,,133.0,57.0,57.0,133.0,70.0,70.0,4.0,4.1,-191,-285,0,-10,198,-266,332.609258890152,332.60933780670166,332.61254239082336,332.6247863769531,332.7740652561188,332.7740652561188,332.7740652561188,332.7740652561188,332.7740652561188,332.7740652561188,332.7740652561188,334.5208022594452,1,1.8908429145812988,None,,,,,,,,,,,,,,,,,,75,6,2025-02-21_09h42.41.672,comp,2024.2.4,56.53737073102348,2025-02-21 11h02.45.180671 -0500,
61,61,0,critical,dwh,20.0,3.0,lower,78.0,78.0,57.0,133.0,133.0,57.0,3,1.3800549507141113,None,,,,,0,0,0,0,0,61,61,68,334.5368480682373,,,,,,,,,,,,,,,,,,,,,,,,,,,,,,,,,,,,,,,,,,,,,,,,,,,,,,,,,,,,,,,,,,,,,,,,,,,,,,,,,78.0,78.0,57.0,133.0,133.0,57.0,3.0,3.2,-202,-255,0,-13,191,254,334.5222678184509,334.52234649658203,334.5251729488373,334.5368480682373,334.6742489337921,334.6742489337921,334.6742489337921,334.6742489337921,334.6742489337921,334.6742489337921,334.6742489337921,335.92235350608826,3,1.3800549507141113,None,,,,,,,,,,,,,,,,,,75,6,2025-02-21_09h42.41.672,comp,2024.2.4,56.53737073102348,2025-02-21 11h02.45.180671 -0500,
62,62,0,critical,dhw,20.0,4.0,lower,78.0,78.0,133.0,57.0,57.0,133.0,2,2.0971224308013916,None,,,,,0,0,0,0,0,62,62,58,335.9384055137634,,,,,,,,,,,,,,,,,,,,,,,,,,,,,,,,,,,,,,,,,,,,,,,,,,,,,,,,,,,,,,,,,,,,,,,,,,,,,,,,,78.0,78.0,133.0,57.0,57.0,133.0,4.0,4.2,-164,-1,0,-282,191,-2,335.9238166809082,335.9238934516907,335.92674684524536,335.9384055137634,336.0926778316498,336.0926778316498,336.0926778316498,336.0926778316498,336.0926778316498,336.0926778316498,336.0926778316498,338.04129576683044,2,2.0971224308013916,None,,,,,,,,,,,,,,,,,,75,6,2025-02-21_09h42.41.672,comp,2024.2.4,56.53737073102348,2025-02-21 11h02.45.180671 -0500,
63,63,0,filler_random,None,None,None,None,None,None,None,None,None,None,2,5.368955135345459,None,,,,,0,0,0,0,0,63,63,154,338.05801820755005,,,,,,,,,,,,,,,,,,,,,,,,,,,,,,,,,,,,,,,,,,,,,,,,,,,,,,,,,,,,,,,,,,,,,,,,,,,,,,,,,160.0907819374463,67.53446652265603,82.0076651446461,144.0172268715893,93.61233584709171,95.60411507989485,4.0,4.2,-202,6,0,-279,216,13,338.0430965423584,338.0432319641113,338.0473310947418,338.05801820755005,338.2073209285736,338.2073209285736,338.2073209285736,338.2073209285736,338.2073209285736,338.2073209285736,338.2073209285736,343.4403748512268,2,5.368955135345459,None,,,,,,,,,,,,,,,,,,75,6,2025-02-21_09h42.41.672,comp,2024.2.4,56.53737073102348,2025-02-21 11h02.45.180671 -0500,
64,64,0,filler_random,None,None,None,None,None,None,None,None,None,None,2,2.5305168628692627,None,,,,,0,0,0,0,0,64,64,169,343.45702052116394,,,,,,,,,,,,,,,,,,,,,,,,,,,,,,,,,,,,,,,,,,,,,,,,,,,,,,,,,,,,,,,,,,,,,,,,,,,,,,,,,120.18780393233891,138.58983915816452,164.58894897209578,161.51883025545723,127.8362650857258,62.421880738644724,2.2,2.22,-246,275,0,-290,208,-279,343.4421634674072,343.4422929286957,343.44548749923706,343.45702052116394,343.6090679168701,343.6090679168701,343.6090679168701,343.6090679168701,343.6090679168701,343.6090679168701,343.6090679168701,345.9938189983368,2,2.5305168628692627,None,,,,,,,,,,,,,,,,,,75,6,2025-02-21_09h42.41.672,comp,2024.2.4,56.53737073102348,2025-02-21 11h02.45.180671 -0500,
65,65,0,critical,dwh,20.0,4.0,upper,141.0,141.0,125.0,200.0,200.0,125.0,2,5.154091835021973,None,,,,,0,0,0,0,0,65,65,71,346.0096869468689,,,,,,,,,,,,,,,,,,,,,,,,,,,,,,,,,,,,,,,,,,,,,,,,,,,,,,,,,,,,,,,,,,,,,,,,,,,,,,,,,141.0,141.0,125.0,200.0,200.0,125.0,4.0,4.2,-266,20,0,-264,258,-8,345.99528980255127,345.99536776542664,345.9988021850586,346.0096869468689,346.1640155315399,346.1640155315399,346.1640155315399,346.1640155315399,346.1640155315399,346.1640155315399,346.1640155315399,351.16633796691895,2,5.154091835021973,None,,,,,,,,,,,,,,,,,,75,6,2025-02-21_09h42.41.672,comp,2024.2.4,56.53737073102348,2025-02-21 11h02.45.180671 -0500,
66,66,0,critical,dhw,35.0,3.0,upper,127.0,127.0,200.0,125.0,125.0,200.0,3,3.7331349849700928,None,,,,,0,0,0,0,0,66,66,51,351.18248414993286,,,,,,,,,,,,,,,,,,,,,,,,,,,,,,,,,,,,,,,,,,,,,,,,,,,,,,,,,,,,,,,,,,,,,,,,,,,,,,,,,127.0,127.0,200.0,125.0,125.0,200.0,3.0,3.2,-222,-269,0,15,258,266,351.1678297519684,351.16790771484375,351.17139625549316,351.18248414993286,351.3289954662323,351.3289954662323,351.3289954662323,351.3289954662323,351.3289954662323,351.3289954662323,351.3289954662323,354.9209656715393,3,3.7331349849700928,None,,,,,,,,,,,,,,,,,,75,6,2025-02-21_09h42.41.672,comp,2024.2.4,56.53737073102348,2025-02-21 11h02.45.180671 -0500,
67,67,0,critical,whd,20.0,4.0,lower,57.0,133.0,133.0,57.0,78.0,78.0,2,3.1781275272369385,None,,,,,0,0,0,0,0,67,67,94,354.936851978302,,,,,,,,,,,,,,,,,,,,,,,,,,,,,,,,,,,,,,,,,,,,,,,,,,,,,,,,,,,,,,,,,,,,,,,,,,,,,,,,,57.0,133.0,133.0,57.0,78.0,78.0,4.0,4.1,-191,-289,0,-2,164,-275,354.92243671417236,354.9225137233734,354.9257836341858,354.936851978302,355.0774419307709,355.0774419307709,355.0774419307709,355.0774419307709,355.0774419307709,355.0774419307709,355.0774419307709,358.13067984580994,2,3.1781275272369385,None,,,,,,,,,,,,,,,,,,75,6,2025-02-21_09h42.41.672,comp,2024.2.4,56.53737073102348,2025-02-21 11h02.45.180671 -0500,
68,68,0,critical,hdw,35.0,1.0,upper,200.0,125.0,127.0,127.0,125.0,200.0,3,3.3049633502960205,None,,,,,0,0,0,0,0,68,68,109,358.14600896835327,,,,,,,,,,,,,,,,,,,,,,,,,,,,,,,,,,,,,,,,,,,,,,,,,,,,,,,,,,,,,,,,,,,,,,,,,,,,,,,,,200.0,125.0,127.0,127.0,125.0,200.0,1.0,1.3,258,-264,480,-262,740,-276,358.13218331336975,358.13226103782654,358.13560485839844,358.14600896835327,358.29607367515564,358.29607367515564,358.29607367515564,358.29607367515564,358.29607367515564,358.29607367515564,358.29607367515564,361.4547073841095,3,3.3049633502960205,None,,,,,,,,,,,,,,,,,,75,6,2025-02-21_09h42.41.672,comp,2024.2.4,56.53737073102348,2025-02-21 11h02.45.180671 -0500,
69,69,0,critical,hwd,20.0,2.1,upper,200.0,125.0,125.0,200.0,141.0,141.0,2,3.7890472412109375,None,,,,,0,0,0,0,0,69,69,19,361.4704689979553,,,,,,,,,,,,,,,,,,,,,,,,,,,,,,,,,,,,,,,,,,,,,,,,,,,,,,,,,,,,,,,,,,,,,,,,,,,,,,,,,200.0,125.0,125.0,200.0,141.0,141.0,2.1,2.11,-258,281,0,278,266,-263,361.45632696151733,361.45640325546265,361.45960879325867,361.4704689979553,361.6155083179474,361.6155083179474,361.6155083179474,361.6155083179474,361.6155083179474,361.6155083179474,361.6155083179474,365.2695212364197,2,3.7890472412109375,None,,,,,,,,,,,,,,,,,,75,6,2025-02-21_09h42.41.672,comp,2024.2.4,56.53737073102348,2025-02-21 11h02.45.180671 -0500,
70,70,0,critical,dhw,20.0,4.0,upper,141.0,141.0,200.0,125.0,125.0,200.0,3,8.457855939865112,None,,,,,0,0,0,0,0,70,70,59,365.28981351852417,,,,,,,,,,,,,,,,,,,,,,,,,,,,,,,,,,,,,,,,,,,,,,,,,,,,,,,,,,,,,,,,,,,,,,,,,,,,,,,,,141.0,141.0,200.0,125.0,125.0,200.0,4.0,4.1,-229,-269,0,3,258,-262,365.2711863517761,365.2712643146515,365.2741918563843,365.28981351852417,365.4306766986847,365.4306766986847,365.4306766986847,365.4306766986847,365.4306766986847,365.4306766986847,365.4306766986847,373.7524998188019,3,8.457855939865112,None,,,,,,,,,,,,,,,,,,75,6,2025-02-21_09h42.41.672,comp,2024.2.4,56.53737073102348,2025-02-21 11h02.45.180671 -0500,
71,71,0,critical,dwh,35.0,4.0,lower,70.0,70.0,57.0,133.0,133.0,57.0,3,4.39497971534729,None,,,,,0,0,0,0,0,71,71,64,373.76863384246826,,,,,,,,,,,,,,,,,,,,,,,,,,,,,,,,,,,,,,,,,,,,,,,,,,,,,,,,,,,,,,,,,,,,,,,,,,,,,,,,,70.0,70.0,57.0,133.0,133.0,57.0,4.0,4.1,-198,-280,0,8,191,-268,373.7539029121399,373.7540006637573,373.75798058509827,373.76863384246826,373.91944336891174,373.91944336891174,373.91944336891174,373.91944336891174,373.91944336891174,373.91944336891174,373.91944336891174,378.16943550109863,3,4.39497971534729,None,,,,,,,,,,,,,,,,,,75,6,2025-02-21_09h42.41.672,comp,2024.2.4,56.53737073102348,2025-02-21 11h02.45.180671 -0500,
72,72,0,critical,wdh,35.0,2.1,upper,125.0,200.0,127.0,127.0,200.0,125.0,1,1.9530854225158691,None,,,,,0,0,0,0,0,72,72,33,378.18601655960083,,,,,,,,,,,,,,,,,,,,,,,,,,,,,,,,,,,,,,,,,,,,,,,,,,,,,,,,,,,,,,,,,,,,,,,,,,,,,,,,,125.0,200.0,127.0,127.0,200.0,125.0,2.1,2.12,-260,-282,0,-285,222,280,378.17096519470215,378.1710431575775,378.17442512512207,378.18601655960083,378.3380160331726,378.3380160331726,378.3380160331726,378.3380160331726,378.3380160331726,378.3380160331726,378.3380160331726,380.15424036979675,1,1.9530854225158691,None,,,,,,,,,,,,,,,,,,75,6,2025-02-21_09h42.41.672,comp,2024.2.4,56.53737073102348,2025-02-21 11h02.45.180671 -0500,
73,73,0,filler_square,None,None,None,None,None,None,None,None,None,None,1,2.248598098754883,None,,,,,0,0,0,0,0,73,73,182,380.17078614234924,,,,,,,,,,,,,,,,,,,,,,,,,,,,,,,,,,,,,,,,,,,,,,,,,,,,,,,,,,,,,,,,,,,,,,,,,,,,,,,,,124.01845944354007,124.01845944354007,106.22383634200841,120.45114739665462,71.61068513802464,59.6585322830827,4.0,4.1,-218,-269,0,16,186,-254,380.1562993526459,380.15637850761414,380.1596448421478,380.17078614234924,380.3237488269806,380.3237488269806,380.3237488269806,380.3237488269806,380.3237488269806,380.3237488269806,380.3237488269806,382.42133378982544,1,2.248598098754883,None,,,,,,,,,,,,,,,,,,75,6,2025-02-21_09h42.41.672,comp,2024.2.4,56.53737073102348,2025-02-21 11h02.45.180671 -0500,
74,74,0,critical,dwh,35.0,2.1,upper,127.0,127.0,125.0,200.0,200.0,125.0,2,2.373493194580078,None,,,,,0,0,0,0,0,74,74,5,382.4377233982086,,,,,,,,,,,,,,,,,,,,,,,,,,,,,,,,,,,,,,,,,,,,,,,,,,,,,,,,,,,,,,,,,,,,,,,,,,,,,,,,,127.0,127.0,125.0,200.0,200.0,125.0,2.1,2.12,-260,-280,0,-252,258,265,382.42279624938965,382.4228723049164,382.4259867668152,382.4377233982086,382.5885577201843,382.5885577201843,382.5885577201843,382.5885577201843,382.5885577201843,382.5885577201843,382.5885577201843,384.8230607509613,2,2.373493194580078,None,,,,,,,,,,,,,,,,,,75,6,2025-02-21_09h42.41.672,comp,2024.2.4,56.53737073102348,2025-02-21 11h02.45.180671 -0500,
75,75,0,critical,wdh,35.0,1.0,lower,57.0,133.0,70.0,70.0,133.0,57.0,3,6.411709547042847,None,,,,,0,0,0,0,0,75,75,72,384.8393349647522,,,,,,,,,,,,,,,,,,,,,,,,,,,,,,,,,,,,,,,,,,,,,,,,,,,,,,,,,,,,,,,,,,,,,,,,,,,,,,,,,57.0,133.0,70.0,70.0,133.0,57.0,1.0,1.3,282,-264,480,-260,640,-251,384.82455611228943,384.8246326446533,384.8274714946747,384.8393349647522,384.9929897785187,384.9929897785187,384.9929897785187,384.9929897785187,384.9929897785187,384.9929897785187,384.9929897785187,391.26411509513855,3,6.411709547042847,None,,,,,,,,,,,,,,,,,,75,6,2025-02-21_09h42.41.672,comp,2024.2.4,56.53737073102348,2025-02-21 11h02.45.180671 -0500,
76,76,0,filler_square,None,None,None,None,None,None,None,None,None,None,3,4.55810546875,None,,,,,0,0,0,0,0,76,76,190,391.28510546684265,,,,,,,,,,,,,,,,,,,,,,,,,,,,,,,,,,,,,,,,,,,,,,,,,,,,,,,,,,,,,,,,,,,,,,,,,,,,,,,,,141.5230544072637,57.364284421807234,132.27746469945998,67.91269386189401,199.61282293432848,199.61282293432848,1.0,1.2,-159,9,0,13,230,-15,391.2659502029419,391.2660799026489,391.2693464756012,391.28510546684265,391.4233694076538,391.4233694076538,391.4233694076538,391.4233694076538,391.4233694076538,391.4233694076538,391.4233694076538,395.8565571308136,3,4.55810546875,None,,,,,,,,,,,,,,,,,,75,6,2025-02-21_09h42.41.672,comp,2024.2.4,56.53737073102348,2025-02-21 11h02.45.180671 -0500,
77,77,0,critical,dwh,20.0,2.1,lower,78.0,78.0,57.0,133.0,133.0,57.0,3,2.6827070713043213,None,,,,,0,0,0,0,0,77,77,30,395.8727214336395,,,,,,,,,,,,,,,,,,,,,,,,,,,,,,,,,,,,,,,,,,,,,,,,,,,,,,,,,,,,,,,,,,,,,,,,,,,,,,,,,78.0,78.0,57.0,133.0,133.0,57.0,2.1,2.12,-202,-275,0,-255,191,269,395.85821557044983,395.85829305648804,395.8615746498108,395.8727214336395,396.00964188575745,396.00964188575745,396.00964188575745,396.00964188575745,396.00964188575745,396.00964188575745,396.00964188575745,398.56108927726746,3,2.6827070713043213,None,,,,,,,,,,,,,,,,,,75,6,2025-02-21_09h42.41.672,comp,2024.2.4,56.53737073102348,2025-02-21 11h02.45.180671 -0500,
78,78,0,filler_random,None,None,None,None,None,None,None,None,None,None,2,4.418470859527588,None,,,,,0,0,0,0,0,78,78,157,398.57728147506714,,,,,,,,,,,,,,,,,,,,,,,,,,,,,,,,,,,,,,,,,,,,,,,,,,,,,,,,,,,,,,,,,,,,,,,,,,,,,,,,,175.0527989560967,164.25136237179981,199.8626348789943,176.12477585819954,153.03744880971712,79.95843388694303,2.2,2.21,-266,-272,0,263,224,259,398.5629508495331,398.56307721138,398.5665533542633,398.57728147506714,398.7262191772461,398.7262191772461,398.7262191772461,398.7262191772461,398.7262191772461,398.7262191772461,398.7262191772461,403.01147055625916,2,4.418470859527588,None,,,,,,,,,,,,,,,,,,75,6,2025-02-21_09h42.41.672,comp,2024.2.4,56.53737073102348,2025-02-21 11h02.45.180671 -0500,
79,79,0,filler_square,None,None,None,None,None,None,None,None,None,None,1,5.624005079269409,None,,,,,0,0,0,0,0,79,79,191,403.0271520614624,,,,,,,,,,,,,,,,,,,,,,,,,,,,,,,,,,,,,,,,,,,,,,,,,,,,,,,,,,,,,,,,,,,,,,,,,,,,,,,,,100.7906830230372,100.7906830230372,97.70833519696018,96.77869624885386,81.94603230526403,88.5325090582506,3.0,3.2,-195,-253,0,-4,189,284,403.0133113861084,403.0134310722351,403.0168311595917,403.0271520614624,403.1751136779785,403.1751136779785,403.1751136779785,403.1751136779785,403.1751136779785,403.1751136779785,403.1751136779785,408.6623842716217,1,5.624005079269409,None,,,,,,,,,,,,,,,,,,75,6,2025-02-21_09h42.41.672,comp,2024.2.4,56.53737073102348,2025-02-21 11h02.45.180671 -0500,
80,80,0,filler_random,None,None,None,None,None,None,None,None,None,None,3,1.3847644329071045,None,,,,,0,0,0,0,0,80,80,150,408.6825895309448,,,,,,,,,,,,,,,,,,,,,,,,,,,,,,,,,,,,,,,,,,,,,,,,,,,,,,,,,,,,,,,,,,,,,,,,,,,,,,,,,72.35818462696949,78.47346461085293,72.84172206873869,150.84800309640485,174.13030681166626,184.82949091578988,2.1,2.12,-211,-282,0,-264,264,286,408.6639976501465,408.664076089859,408.66719579696655,408.6825895309448,408.82955288887024,408.82955288887024,408.82955288887024,408.82955288887024,408.82955288887024,408.82955288887024,408.82955288887024,410.0803756713867,3,1.3847644329071045,None,,,,,,,,,,,,,,,,,,75,6,2025-02-21_09h42.41.672,comp,2024.2.4,56.53737073102348,2025-02-21 11h02.45.180671 -0500,
81,81,0,filler_random,None,None,None,None,None,None,None,None,None,None,1,6.939612865447998,None,,,,,0,0,0,0,0,81,81,142,410.0956025123596,,,,,,,,,,,,,,,,,,,,,,,,,,,,,,,,,,,,,,,,,,,,,,,,,,,,,,,,,,,,,,,,,,,,,,,,,,,,,,,,,154.84089315727527,162.81463729991742,193.9769817689733,129.76086105451566,127.90624919592068,104.13303067141595,2.2,2.21,-242,-270,0,275,213,254,410.0820231437683,410.08211946487427,410.0853760242462,410.0956025123596,410.24728989601135,410.24728989601135,410.24728989601135,410.24728989601135,410.24728989601135,410.24728989601135,410.24728989601135,417.0519394874573,1,6.939612865447998,None,,,,,,,,,,,,,,,,,,75,6,2025-02-21_09h42.41.672,comp,2024.2.4,56.53737073102348,2025-02-21 11h02.45.180671 -0500,
82,82,0,critical,wdh,35.0,4.0,lower,57.0,133.0,70.0,70.0,133.0,57.0,3,2.3198959827423096,None,,,,,0,0,0,0,0,82,82,76,417.067360162735,,,,,,,,,,,,,,,,,,,,,,,,,,,,,,,,,,,,,,,,,,,,,,,,,,,,,,,,,,,,,,,,,,,,,,,,,,,,,,,,,57.0,133.0,70.0,70.0,133.0,57.0,4.0,4.2,-198,19,0,-284,160,6,417.0535886287689,417.05368995666504,417.057071685791,417.067360162735,417.21626353263855,417.21626353263855,417.21626353263855,417.21626353263855,417.21626353263855,417.21626353263855,417.21626353263855,419.3915960788727,3,2.3198959827423096,None,,,,,,,,,,,,,,,,,,75,6,2025-02-21_09h42.41.672,comp,2024.2.4,56.53737073102348,2025-02-21 11h02.45.180671 -0500,
83,83,0,critical,dwh,20.0,1.0,lower,78.0,78.0,57.0,133.0,133.0,57.0,3,3.6318976879119873,None,,,,,0,0,0,0,0,83,83,66,419.41219687461853,,,,,,,,,,,,,,,,,,,,,,,,,,,,,,,,,,,,,,,,,,,,,,,,,,,,,,,,,,,,,,,,,,,,,,,,,,,,,,,,,78.0,78.0,57.0,133.0,133.0,57.0,1.0,1.1,-682,258,-480,271,-289,288,419.3931374549866,419.393217086792,419.39650774002075,419.41219687461853,419.5507164001465,419.5507164001465,419.5507164001465,419.5507164001465,419.5507164001465,419.5507164001465,419.5507164001465,423.0492639541626,3,3.6318976879119873,None,,,,,,,,,,,,,,,,,,75,6,2025-02-21_09h42.41.672,comp,2024.2.4,56.53737073102348,2025-02-21 11h02.45.180671 -0500,
84,84,0,filler_square,None,None,None,None,None,None,None,None,None,None,3,1.3504161834716797,None,,,,,0,0,0,0,0,84,84,195,423.06890869140625,,,,,,,,,,,,,,,,,,,,,,,,,,,,,,,,,,,,,,,,,,,,,,,,,,,,,,,,,,,,,,,,,,,,,,,,,,,,,,,,,111.15274628226318,104.52928254895062,80.37936367874141,89.54498399566367,122.66179775646263,122.66179775646263,1.0,1.2,-193,-10,0,9,202,1,423.0498614311218,423.0498881340027,423.0508961677551,423.06890869140625,423.22409677505493,423.22409677505493,423.22409677505493,423.22409677505493,423.22409677505493,423.22409677505493,423.22409677505493,424.42539143562317,3,1.3504161834716797,None,,,,,,,,,,,,,,,,,,75,6,2025-02-21_09h42.41.672,comp,2024.2.4,56.53737073102348,2025-02-21 11h02.45.180671 -0500,
85,85,0,filler_square,None,None,None,None,None,None,None,None,None,None,1,0.8389608860015869,None,,,,,0,0,0,0,0,85,85,201,424.44419836997986,,,,,,,,,,,,,,,,,,,,,,,,,,,,,,,,,,,,,,,,,,,,,,,,,,,,,,,,,,,,,,,,,,,,,,,,,,,,,,,,,124.15178087380133,124.15178087380133,87.57070164815171,90.4783914788969,102.4542349804149,84.7475347659367,1.0,1.2,-203,-6,0,-6,184,12,424.42722845077515,424.42730593681335,424.4301722049713,424.44419836997986,424.58713245391846,424.58713245391846,424.58713245391846,424.58713245391846,424.58713245391846,424.58713245391846,424.58713245391846,425.2862846851349,1,0.8389608860015869,None,,,,,,,,,,,,,,,,,,75,6,2025-02-21_09h42.41.672,comp,2024.2.4,56.53737073102348,2025-02-21 11h02.45.180671 -0500,
86,86,0,critical,whd,35.0,4.0,lower,57.0,133.0,133.0,57.0,70.0,70.0,2,1.6137480735778809,None,,,,,0,0,0,0,0,86,86,88,425.30203914642334,,,,,,,,,,,,,,,,,,,,,,,,,,,,,,,,,,,,,,,,,,,,,,,,,,,,,,,,,,,,,,,,,,,,,,,,,,,,,,,,,57.0,133.0,133.0,57.0,70.0,70.0,4.0,4.1,-191,-277,0,15,160,-252,425.28788781166077,425.28800678253174,425.29141426086426,425.30203914642334,425.45484352111816,425.45484352111816,425.45484352111816,425.45484352111816,425.45484352111816,425.45484352111816,425.45484352111816,426.9235746860504,2,1.6137480735778809,None,,,,,,,,,,,,,,,,,,75,6,2025-02-21_09h42.41.672,comp,2024.2.4,56.53737073102348,2025-02-21 11h02.45.180671 -0500,
87,87,0,filler_random,None,None,None,None,None,None,None,None,None,None,1,2.8163061141967773,None,,,,,0,0,0,0,0,87,87,148,426.93882298469543,,,,,,,,,,,,,,,,,,,,,,,,,,,,,,,,,,,,,,,,,,,,,,,,,,,,,,,,,,,,,,,,,,,,,,,,,,,,,,,,,168.989420809626,101.9398272024254,160.44425366370797,69.51993099545709,58.285037596644464,85.55860348566821,2.2,2.22,-182,259,0,-280,174,-260,426.9252462387085,426.92532420158386,426.9281704425812,426.93882298469543,427.0850052833557,427.0850052833557,427.0850052833557,427.0850052833557,427.0850052833557,427.0850052833557,427.0850052833557,429.7694215774536,1,2.8163061141967773,None,,,,,,,,,,,,,,,,,,75,6,2025-02-21_09h42.41.672,comp,2024.2.4,56.53737073102348,2025-02-21 11h02.45.180671 -0500,
88,88,0,filler_random,None,None,None,None,None,None,None,None,None,None,1,1.485818862915039,None,,,,,0,0,0,0,0,88,88,162,429.78927659988403,,,,,,,,,,,,,,,,,,,,,,,,,,,,,,,,,,,,,,,,,,,,,,,,,,,,,,,,,,,,,,,,,,,,,,,,,,,,,,,,,184.804903766171,197.47362147400455,61.58238665970454,130.79247237695716,111.63718197678838,174.67511981121004,3.0,3.2,-260,-281,0,-18,249,285,429.77105617523193,429.77113366127014,429.7739863395691,429.78927659988403,429.93725204467773,429.93725204467773,429.93725204467773,429.93725204467773,429.93725204467773,429.93725204467773,429.93725204467773,431.2854859828949,1,1.485818862915039,None,,,,,,,,,,,,,,,,,,75,6,2025-02-21_09h42.41.672,comp,2024.2.4,56.53737073102348,2025-02-21 11h02.45.180671 -0500,
89,89,0,filler_square,None,None,None,None,None,None,None,None,None,None,3,3.394818067550659,None,,,,,0,0,0,0,0,89,89,176,431.3043463230133,,,,,,,,,,,,,,,,,,,,,,,,,,,,,,,,,,,,,,,,,,,,,,,,,,,,,,,,,,,,,,,,,,,,,,,,,,,,,,,,,75.1049404548274,63.96915680000365,71.40166279948258,75.25504005176677,76.77573585046481,76.77573585046481,4.0,4.2,-166,16,0,-282,172,11,431.2872738838196,431.2873525619507,431.29026055336,431.3043463230133,431.4515357017517,431.4515357017517,431.4515357017517,431.4515357017517,431.4515357017517,431.4515357017517,431.4515357017517,434.709513425827,3,3.394818067550659,None,,,,,,,,,,,,,,,,,,75,6,2025-02-21_09h42.41.672,comp,2024.2.4,56.53737073102348,2025-02-21 11h02.45.180671 -0500,
90,90,0,critical,hwd,35.0,2.1,upper,200.0,125.0,125.0,200.0,127.0,127.0,2,3.5259504318237305,None,,,,,0,0,0,0,0,90,90,17,434.7254226207733,,,,,,,,,,,,,,,,,,,,,,,,,,,,,,,,,,,,,,,,,,,,,,,,,,,,,,,,,,,,,,,,,,,,,,,,,,,,,,,,,200.0,125.0,125.0,200.0,127.0,127.0,2.1,2.11,-258,288,0,261,260,-274,434.71108841896057,434.71116733551025,434.7140212059021,434.7254226207733,434.8724756240845,434.8724756240845,434.8724756240845,434.8724756240845,434.8724756240845,434.8724756240845,434.8724756240845,438.2532479763031,2,3.5259504318237305,None,,,,,,,,,,,,,,,,,,75,6,2025-02-21_09h42.41.672,comp,2024.2.4,56.53737073102348,2025-02-21 11h02.45.180671 -0500,
91,91,0,critical,dhw,20.0,2.1,lower,78.0,78.0,133.0,57.0,57.0,133.0,2,1.8773925304412842,None,,,,,0,0,0,0,0,91,91,26,438.2697687149048,,,,,,,,,,,,,,,,,,,,,,,,,,,,,,,,,,,,,,,,,,,,,,,,,,,,,,,,,,,,,,,,,,,,,,,,,,,,,,,,,78.0,78.0,133.0,57.0,57.0,133.0,2.1,2.11,-164,269,0,271,191,-270,438.25468134880066,438.2547585964203,438.2575840950012,438.2697687149048,438.407518863678,438.407518863678,438.407518863678,438.407518863678,438.407518863678,438.407518863678,438.407518863678,440.1573705673218,2,1.8773925304412842,None,,,,,,,,,,,,,,,,,,75,6,2025-02-21_09h42.41.672,comp,2024.2.4,56.53737073102348,2025-02-21 11h02.45.180671 -0500,
92,92,0,filler_random,None,None,None,None,None,None,None,None,None,None,3,2.23000168800354,None,,,,,0,0,0,0,0,92,92,135,440.17380928993225,,,,,,,,,,,,,,,,,,,,,,,,,,,,,,,,,,,,,,,,,,,,,,,,,,,,,,,,,,,,,,,,,,,,,,,,,,,,,,,,,153.35755191971134,100.68215501610482,160.73083100613684,118.16315295250399,104.52733411679029,193.1599507530914,2.2,2.22,-205,266,0,-264,252,-281,440.15934467315674,440.1594252586365,440.16304898262024,440.17380928993225,440.32376527786255,440.32376527786255,440.32376527786255,440.32376527786255,440.32376527786255,440.32376527786255,440.32376527786255,442.4073624610901,3,2.23000168800354,None,,,,,,,,,,,,,,,,,,75,6,2025-02-21_09h42.41.672,comp,2024.2.4,56.53737073102348,2025-02-21 11h02.45.180671 -0500,
93,93,0,critical,dhw,35.0,1.0,lower,70.0,70.0,133.0,57.0,57.0,133.0,2,1.4675712585449219,None,,,,,0,0,0,0,0,93,93,48,442.42356729507446,,,,,,,,,,,,,,,,,,,,,,,,,,,,,,,,,,,,,,,,,,,,,,,,,,,,,,,,,,,,,,,,,,,,,,,,,,,,,,,,,70.0,70.0,133.0,57.0,57.0,133.0,1.0,1.1,-640,288,-480,288,-289,260,442.4088101387024,442.408887386322,442.4128942489624,442.42356729507446,442.57401943206787,442.57401943206787,442.57401943206787,442.57401943206787,442.57401943206787,442.57401943206787,442.57401943206787,443.9084174633026,2,1.4675712585449219,None,,,,,,,,,,,,,,,,,,75,6,2025-02-21_09h42.41.672,comp,2024.2.4,56.53737073102348,2025-02-21 11h02.45.180671 -0500,
94,94,0,filler_square,None,None,None,None,None,None,None,None,None,None,3,1.3391473293304443,None,,,,,0,0,0,0,0,94,94,173,443.9279947280884,,,,,,,,,,,,,,,,,,,,,,,,,,,,,,,,,,,,,,,,,,,,,,,,,,,,,,,,,,,,,,,,,,,,,,,,,,,,,,,,,131.9724959844749,63.627671608476525,130.74350421135273,115.03002934746706,144.53263112271293,144.53263112271293,1.0,1.3,295,-279,480,-288,706,-251,443.91020703315735,443.91028475761414,443.9132695198059,443.9279947280884,444.07552218437195,444.07552218437195,444.07552218437195,444.07552218437195,444.07552218437195,444.07552218437195,444.07552218437195,445.28015995025635,3,1.3391473293304443,None,,,,,,,,,,,,,,,,,,75,6,2025-02-21_09h42.41.672,comp,2024.2.4,56.53737073102348,2025-02-21 11h02.45.180671 -0500,
95,95,0,filler_square,None,None,None,None,None,None,None,None,None,None,2,1.2430298328399658,None,,,,,0,0,0,0,0,95,95,196,445.29653453826904,,,,,,,,,,,,,,,,,,,,,,,,,,,,,,,,,,,,,,,,,,,,,,,,,,,,,,,,,,,,,,,,,,,,,,,,,,,,,,,,,85.63294430052441,65.05035193734338,110.14122273360837,110.14122273360837,96.03196355240549,64.26177841561399,3.0,3.1,-184,268,0,16,183,-256,445.28246903419495,445.2825517654419,445.2854254245758,445.29653453826904,445.4402904510498,445.4402904510498,445.4402904510498,445.4402904510498,445.4402904510498,445.4402904510498,445.4402904510498,446.54783606529236,2,1.2430298328399658,None,,,,,,,,,,,,,,,,,,75,6,2025-02-21_09h42.41.672,comp,2024.2.4,56.53737073102348,2025-02-21 11h02.45.180671 -0500,
96,96,0,critical,dwh,20.0,3.0,upper,141.0,141.0,125.0,200.0,200.0,125.0,2,2.3075485229492188,None,,,,,0,0,0,0,0,96,96,69,446.56772923469543,,,,,,,,,,,,,,,,,,,,,,,,,,,,,,,,,,,,,,,,,,,,,,,,,,,,,,,,,,,,,,,,,,,,,,,,,,,,,,,,,141.0,141.0,125.0,200.0,200.0,125.0,3.0,3.2,-266,-269,0,18,258,277,446.5493025779724,446.5493788719177,446.55219554901123,446.56772923469543,446.70896458625793,446.70896458625793,446.70896458625793,446.70896458625793,446.70896458625793,446.70896458625793,446.70896458625793,448.8781478404999,2,2.3075485229492188,None,,,,,,,,,,,,,,,,,,75,6,2025-02-21_09h42.41.672,comp,2024.2.4,56.53737073102348,2025-02-21 11h02.45.180671 -0500,
97,97,0,critical,hwd,35.0,2.1,lower,133.0,57.0,57.0,133.0,70.0,70.0,1,2.3496031761169434,None,,,,,0,0,0,0,0,97,97,40,448.89385652542114,,,,,,,,,,,,,,,,,,,,,,,,,,,,,,,,,,,,,,,,,,,,,,,,,,,,,,,,,,,,,,,,,,,,,,,,,,,,,,,,,133.0,57.0,57.0,133.0,70.0,70.0,2.1,2.12,-191,-276,0,-271,198,288,448.87965059280396,448.87972950935364,448.88308358192444,448.89385652542114,449.0426344871521,449.0426344871521,449.0426344871521,449.0426344871521,449.0426344871521,449.0426344871521,449.0426344871521,451.2457106113434,1,2.3496031761169434,None,,,,,,,,,,,,,,,,,,75,6,2025-02-21_09h42.41.672,comp,2024.2.4,56.53737073102348,2025-02-21 11h02.45.180671 -0500,
98,98,0,critical,dhw,35.0,2.1,lower,70.0,70.0,133.0,57.0,57.0,133.0,2,1.565436601638794,None,,,,,0,0,0,0,0,98,98,24,451.2618074417114,,,,,,,,,,,,,,,,,,,,,,,,,,,,,,,,,,,,,,,,,,,,,,,,,,,,,,,,,,,,,,,,,,,,,,,,,,,,,,,,,70.0,70.0,133.0,57.0,57.0,133.0,2.1,2.12,-160,-262,0,-279,191,283,451.2473313808441,451.2474310398102,451.2507677078247,451.2618074417114,451.40887427330017,451.40887427330017,451.40887427330017,451.40887427330017,451.40887427330017,451.40887427330017,451.40887427330017,452.8472878932953,2,1.565436601638794,None,,,,,,,,,,,,,,,,,,75,6,2025-02-21_09h42.41.672,comp,2024.2.4,56.53737073102348,2025-02-21 11h02.45.180671 -0500,
99,99,0,critical,dhw,20.0,3.0,upper,141.0,141.0,200.0,125.0,125.0,200.0,3,2.7946557998657227,None,,,,,0,0,0,0,0,99,99,57,452.8651156425476,,,,,,,,,,,,,,,,,,,,,,,,,,,,,,,,,,,,,,,,,,,,,,,,,,,,,,,,,,,,,,,,,,,,,,,,,,,,,,,,,141.0,141.0,200.0,125.0,125.0,200.0,3.0,3.1,-229,275,0,9,258,-278,452.8487710952759,452.8488492965698,452.85214948654175,452.8651156425476,453.01914858818054,453.01914858818054,453.01914858818054,453.01914858818054,453.01914858818054,453.01914858818054,453.01914858818054,455.66903829574585,3,2.7946557998657227,None,,,,,,,,,,,,,,,,,,75,6,2025-02-21_09h42.41.672,comp,2024.2.4,56.53737073102348,2025-02-21 11h02.45.180671 -0500,
100,100,0,filler_random,None,None,None,None,None,None,None,None,None,None,2,1.078143835067749,None,,,,,0,0,0,0,0,100,100,138,455.68501329421997,,,,,,,,,,,,,,,,,,,,,,,,,,,,,,,,,,,,,,,,,,,,,,,,,,,,,,,,,,,,,,,,,,,,,,,,,,,,,,,,,97.71431201727565,171.63403691487787,173.6597446960543,177.0563974867663,155.6011627784569,57.56912449079551,1.0,1.1,-750,266,-480,275,-267,284,455.6707191467285,455.67079854011536,455.67365980148315,455.68501329421997,455.8298125267029,455.8298125267029,455.8298125267029,455.8298125267029,455.8298125267029,455.8298125267029,455.8298125267029,456.77936124801636,2,1.078143835067749,None,,,,,,,,,,,,,,,,,,75,6,2025-02-21_09h42.41.672,comp,2024.2.4,56.53737073102348,2025-02-21 11h02.45.180671 -0500,
101,101,0,critical,dhw,35.0,2.1,upper,127.0,127.0,200.0,125.0,125.0,200.0,3,1.6162469387054443,None,,,,,0,0,0,0,0,101,101,25,456.7950129508972,,,,,,,,,,,,,,,,,,,,,,,,,,,,,,,,,,,,,,,,,,,,,,,,,,,,,,,,,,,,,,,,,,,,,,,,,,,,,,,,,127.0,127.0,200.0,125.0,125.0,200.0,2.1,2.12,-222,-258,0,-268,258,264,456.7810027599335,456.78108191490173,456.78475642204285,456.7950129508972,456.9452829360962,456.9452829360962,456.9452829360962,456.9452829360962,456.9452829360962,456.9452829360962,456.9452829360962,458.42600750923157,3,1.6162469387054443,None,,,,,,,,,,,,,,,,,,75,6,2025-02-21_09h42.41.672,comp,2024.2.4,56.53737073102348,2025-02-21 11h02.45.180671 -0500,
102,102,0,catch,None,None,None,None,None,None,None,None,None,None,1,1.0816903114318848,None,,,,,0,0,0,0,0,102,102,128,458.4419369697571,,,,,,,,,,,,,,,,,,,,,,,,,,,,,,,,,,,,,,,,,,,,,,,,,,,,,,,,,,,,,,,,,,,,,,,,,,,,,,,,,195,130,117,73,120,70,3.0,3.2,-198,-250,0,-7,168,252,458.4278476238251,458.42795586586,458.4307723045349,458.4419369697571,458.59739995002747,458.59739995002747,458.59739995002747,458.59739995002747,458.59739995002747,458.59739995002747,458.59739995002747,459.5310010910034,1,1.0816903114318848,None,,,,,,,,,,,,,,,,,,75,6,2025-02-21_09h42.41.672,comp,2024.2.4,56.53737073102348,2025-02-21 11h02.45.180671 -0500,
103,103,0,critical,dhw,35.0,2.1,upper,127.0,127.0,200.0,125.0,125.0,200.0,3,3.5520591735839844,None,,,,,0,0,0,0,0,103,103,1,459.5471467971802,,,,,,,,,,,,,,,,,,,,,,,,,,,,,,,,,,,,,,,,,,,,,,,,,,,,,,,,,,,,,,,,,,,,,,,,,,,,,,,,,127.0,127.0,200.0,125.0,125.0,200.0,2.1,2.12,-222,-258,0,-275,258,278,459.53266525268555,459.5327925682068,459.5362949371338,459.5471467971802,459.6985375881195,459.6985375881195,459.6985375881195,459.6985375881195,459.6985375881195,459.6985375881195,459.6985375881195,463.11408615112305,3,3.5520591735839844,None,,,,,,,,,,,,,,,,,,75,6,2025-02-21_09h42.41.672,comp,2024.2.4,56.53737073102348,2025-02-21 11h02.45.180671 -0500,
104,104,0,filler_square,None,None,None,None,None,None,None,None,None,None,2,0.9871222972869873,None,,,,,0,0,0,0,0,104,104,175,463.1280150413513,,,,,,,,,,,,,,,,,,,,,,,,,,,,,,,,,,,,,,,,,,,,,,,,,,,,,,,,,,,,,,,,,,,,,,,,,,,,,,,,,75.66527571355212,146.52273283296287,182.2342884534997,182.2342884534997,70.57026540525833,152.83343682145755,3.0,3.1,-260,284,0,4,264,-281,463.11585903167725,463.115971326828,463.1191065311432,463.1280150413513,463.2792327404022,463.2792327404022,463.2792327404022,463.2792327404022,463.2792327404022,463.2792327404022,463.2792327404022,464.1312003135681,2,0.9871222972869873,None,,,,,,,,,,,,,,,,,,75,6,2025-02-21_09h42.41.672,comp,2024.2.4,56.53737073102348,2025-02-21 11h02.45.180671 -0500,
105,105,0,critical,whd,35.0,1.0,upper,125.0,200.0,200.0,125.0,127.0,127.0,1,2.7600250244140625,None,,,,,0,0,0,0,0,105,105,85,464.1471531391144,,,,,,,,,,,,,,,,,,,,,,,,,,,,,,,,,,,,,,,,,,,,,,,,,,,,,,,,,,,,,,,,,,,,,,,,,,,,,,,,,125.0,200.0,200.0,125.0,127.0,127.0,1.0,1.3,222,-268,480,-264,702,-263,464.1327135562897,464.13278818130493,464.1361036300659,464.1471531391144,464.3028976917267,464.3028976917267,464.3028976917267,464.3028976917267,464.3028976917267,464.3028976917267,464.3028976917267,466.9202198982239,1,2.7600250244140625,None,,,,,,,,,,,,,,,,,,75,6,2025-02-21_09h42.41.672,comp,2024.2.4,56.53737073102348,2025-02-21 11h02.45.180671 -0500,
106,106,0,critical,hwd,35.0,1.0,upper,200.0,125.0,125.0,200.0,127.0,127.0,2,3.8669402599334717,None,,,,,0,0,0,0,0,106,106,97,466.9371130466461,,,,,,,,,,,,,,,,,,,,,,,,,,,,,,,,,,,,,,,,,,,,,,,,,,,,,,,,,,,,,,,,,,,,,,,,,,,,,,,,,200.0,125.0,125.0,200.0,127.0,127.0,1.0,1.3,222,-255,480,-253,740,-270,466.9217598438263,466.9218375682831,466.9246504306793,466.9371130466461,467.0801250934601,467.0801250934601,467.0801250934601,467.0801250934601,467.0801250934601,467.0801250934601,467.0801250934601,470.8100252151489,2,3.8669402599334717,None,,,,,,,,,,,,,,,,,,75,6,2025-02-21_09h42.41.672,comp,2024.2.4,56.53737073102348,2025-02-21 11h02.45.180671 -0500,
107,107,0,filler_square,None,None,None,None,None,None,None,None,None,None,1,4.035090923309326,None,,,,,0,0,0,0,0,107,107,205,470.82627868652344,,,,,,,,,,,,,,,,,,,,,,,,,,,,,,,,,,,,,,,,,,,,,,,,,,,,,,,,,,,,,,,,,,,,,,,,,,,,,,,,,83.50263176714705,83.50263176714705,71.57177373459912,57.61673679039217,78.38718109922623,68.79010878438083,4.0,4.1,-167,-255,0,-15,159,-257,470.811811208725,470.811891078949,470.81471276283264,470.82627868652344,470.9655261039734,470.9655261039734,470.9655261039734,470.9655261039734,470.9655261039734,470.9655261039734,470.9655261039734,474.8670196533203,1,4.035090923309326,None,,,,,,,,,,,,,,,,,,75,6,2025-02-21_09h42.41.672,comp,2024.2.4,56.53737073102348,2025-02-21 11h02.45.180671 -0500,
108,108,0,critical,hwd,20.0,2.1,lower,133.0,57.0,57.0,133.0,78.0,78.0,1,3.142976760864258,None,,,,,0,0,0,0,0,108,108,42,474.8851070404053,,,,,,,,,,,,,,,,,,,,,,,,,,,,,,,,,,,,,,,,,,,,,,,,,,,,,,,,,,,,,,,,,,,,,,,,,,,,,,,,,133.0,57.0,57.0,133.0,78.0,78.0,2.1,2.12,-191,-284,0,-262,202,251,474.86861276626587,474.8686909675598,474.8720033168793,474.8851070404053,475.03382682800293,475.03382682800293,475.03382682800293,475.03382682800293,475.03382682800293,475.03382682800293,475.03382682800293,478.034113407135,1,3.142976760864258,None,,,,,,,,,,,,,,,,,,75,6,2025-02-21_09h42.41.672,comp,2024.2.4,56.53737073102348,2025-02-21 11h02.45.180671 -0500,
109,109,0,filler_random,None,None,None,None,None,None,None,None,None,None,1,4.405539512634277,None,,,,,0,0,0,0,0,109,109,168,478.0536527633667,,,,,,,,,,,,,,,,,,,,,,,,,,,,,,,,,,,,,,,,,,,,,,,,,,,,,,,,,,,,,,,,,,,,,,,,,,,,,,,,,144.59369044762758,166.31236349785846,63.57489987862336,137.60117786042548,180.32149709702836,105.37609031350998,2.2,2.21,-248,-265,0,275,217,272,478.035932302475,478.03607273101807,478.0393576622009,478.0536527633667,478.1894943714142,478.1894943714142,478.1894943714142,478.1894943714142,478.1894943714142,478.1894943714142,478.1894943714142,482.4702184200287,1,4.405539512634277,None,,,,,,,,,,,,,,,,,,75,6,2025-02-21_09h42.41.672,comp,2024.2.4,56.53737073102348,2025-02-21 11h02.45.180671 -0500,
110,110,0,filler_square,None,None,None,None,None,None,None,None,None,None,3,1.322786808013916,None,,,,,0,0,0,0,0,110,110,207,482.48861718177795,,,,,,,,,,,,,,,,,,,,,,,,,,,,,,,,,,,,,,,,,,,,,,,,,,,,,,,,,,,,,,,,,,,,,,,,,,,,,,,,,87.27530506965209,97.91743948529898,80.59463698302723,111.89192535245354,134.62005741370294,134.62005741370294,3.0,3.2,-201,-268,0,6,219,284,482.47217059135437,482.47225046157837,482.47549867630005,482.48861718177795,482.6374156475067,482.6374156475067,482.6374156475067,482.6374156475067,482.6374156475067,482.6374156475067,482.6374156475067,483.8301992416382,3,1.322786808013916,None,,,,,,,,,,,,,,,,,,75,6,2025-02-21_09h42.41.672,comp,2024.2.4,56.53737073102348,2025-02-21 11h02.45.180671 -0500,
111,111,0,critical,dhw,35.0,3.0,lower,70.0,70.0,133.0,57.0,57.0,133.0,2,1.5690109729766846,None,,,,,0,0,0,0,0,111,111,50,483.85063099861145,,,,,,,,,,,,,,,,,,,,,,,,,,,,,,,,,,,,,,,,,,,,,,,,,,,,,,,,,,,,,,,,,,,,,,,,,,,,,,,,,70.0,70.0,133.0,57.0,57.0,133.0,3.0,3.2,-160,-284,0,-1,191,256,483.83181595802307,483.83189630508423,483.835382938385,483.85063099861145,483.9902198314667,483.9902198314667,483.9902198314667,483.9902198314667,483.9902198314667,483.9902198314667,483.9902198314667,485.43775057792664,2,1.5690109729766846,None,,,,,,,,,,,,,,,,,,75,6,2025-02-21_09h42.41.672,comp,2024.2.4,56.53737073102348,2025-02-21 11h02.45.180671 -0500,
112,112,0,filler_square,None,None,None,None,None,None,None,None,None,None,3,1.645892858505249,None,,,,,0,0,0,0,0,112,112,202,485.4532845020294,,,,,,,,,,,,,,,,,,,,,,,,,,,,,,,,,,,,,,,,,,,,,,,,,,,,,,,,,,,,,,,,,,,,,,,,,,,,,,,,,60.89613053844186,66.2091693338746,63.4472468962326,57.458272548823594,71.09082679679284,71.09082679679284,2.2,2.21,-158,-287,0,289,160,286,485.4395763874054,485.4396553039551,485.44302105903625,485.4532845020294,485.6036956310272,485.6036956310272,485.6036956310272,485.6036956310272,485.6036956310272,485.6036956310272,485.6036956310272,487.11676263809204,3,1.645892858505249,None,,,,,,,,,,,,,,,,,,75,6,2025-02-21_09h42.41.672,comp,2024.2.4,56.53737073102348,2025-02-21 11h02.45.180671 -0500,
113,113,0,filler_random,None,None,None,None,None,None,None,None,None,None,2,2.172471523284912,None,,,,,0,0,0,0,0,113,113,149,487.13478112220764,,,,,,,,,,,,,,,,,,,,,,,,,,,,,,,,,,,,,,,,,,,,,,,,,,,,,,,,,,,,,,,,,,,,,,,,,,,,,,,,,90.5168449379947,179.9747757122236,186.61637144150214,155.5431373890121,150.21494847528515,152.65496456565998,1.0,1.2,-264,13,0,-7,250,19,487.1184070110321,487.11848425865173,487.1217632293701,487.13478112220764,487.2727208137512,487.2727208137512,487.2727208137512,487.2727208137512,487.2727208137512,487.2727208137512,487.2727208137512,489.3117628097534,2,2.172471523284912,None,,,,,,,,,,,,,,,,,,75,6,2025-02-21_09h42.41.672,comp,2024.2.4,56.53737073102348,2025-02-21 11h02.45.180671 -0500,
114,114,0,critical,hdw,20.0,3.0,upper,200.0,125.0,141.0,141.0,125.0,200.0,3,2.0235540866851807,None,,,,,0,0,0,0,0,114,114,117,489.33170676231384,,,,,,,,,,,,,,,,,,,,,,,,,,,,,,,,,,,,,,,,,,,,,,,,,,,,,,,,,,,,,,,,,,,,,,,,,,,,,,,,,200.0,125.0,141.0,141.0,125.0,200.0,3.0,3.2,-229,-260,0,-6,266,255,489.3132076263428,489.3132827281952,489.31610131263733,489.33170676231384,489.4693446159363,489.4693446159363,489.4693446159363,489.4693446159363,489.4693446159363,489.4693446159363,489.4693446159363,491.35935044288635,3,2.0235540866851807,None,,,,,,,,,,,,,,,,,,75,6,2025-02-21_09h42.41.672,comp,2024.2.4,56.53737073102348,2025-02-21 11h02.45.180671 -0500,
115,115,0,catch,None,None,None,None,None,None,None,None,None,None,1,1.2243931293487549,None,,,,,0,0,0,0,0,115,115,120,491.3791284561157,,,,,,,,,,,,,,,,,,,,,,,,,,,,,,,,,,,,,,,,,,,,,,,,,,,,,,,,,,,,,,,,,,,,,,,,,,,,,,,,,145,180,73,117,107,83,1.0,1.2,-244,8,0,-19,196,10,491.3615460395813,491.3616280555725,491.3646273612976,491.3791284561157,491.52331256866455,491.52331256866455,491.52331256866455,491.52331256866455,491.52331256866455,491.52331256866455,491.52331256866455,492.621563911438,1,1.2243931293487549,None,,,,,,,,,,,,,,,,,,75,6,2025-02-21_09h42.41.672,comp,2024.2.4,56.53737073102348,2025-02-21 11h02.45.180671 -0500,
116,116,0,critical,dwh,20.0,4.0,lower,78.0,78.0,57.0,133.0,133.0,57.0,3,1.71067476272583,None,,,,,0,0,0,0,0,116,116,70,492.63713550567627,,,,,,,,,,,,,,,,,,,,,,,,,,,,,,,,,,,,,,,,,,,,,,,,,,,,,,,,,,,,,,,,,,,,,,,,,,,,,,,,,78.0,78.0,57.0,133.0,133.0,57.0,4.0,4.1,-202,-283,0,13,191,-260,492.62327003479004,492.6233468055725,492.62671160697937,492.63713550567627,492.77856516838074,492.77856516838074,492.77856516838074,492.77856516838074,492.77856516838074,492.77856516838074,492.77856516838074,494.35710763931274,3,1.71067476272583,None,,,,,,,,,,,,,,,,,,75,6,2025-02-21_09h42.41.672,comp,2024.2.4,56.53737073102348,2025-02-21 11h02.45.180671 -0500,
117,117,0,critical,dwh,20.0,2.1,lower,78.0,78.0,57.0,133.0,133.0,57.0,3,1.6471655368804932,None,,,,,0,0,0,0,0,117,117,6,494.37264585494995,,,,,,,,,,,,,,,,,,,,,,,,,,,,,,,,,,,,,,,,,,,,,,,,,,,,,,,,,,,,,,,,,,,,,,,,,,,,,,,,,78.0,78.0,57.0,133.0,133.0,57.0,2.1,2.11,-202,287,0,253,191,-266,494.3586127758026,494.3586916923523,494.3620092868805,494.37264585494995,494.52146792411804,494.52146792411804,494.52146792411804,494.52146792411804,494.52146792411804,494.52146792411804,494.52146792411804,496.0222330093384,3,1.6471655368804932,None,,,,,,,,,,,,,,,,,,75,6,2025-02-21_09h42.41.672,comp,2024.2.4,56.53737073102348,2025-02-21 11h02.45.180671 -0500,
118,118,0,critical,hdw,35.0,3.0,lower,133.0,57.0,70.0,70.0,57.0,133.0,1,0.9724705219268799,None,,,,,0,0,0,0,0,118,118,110,496.03882002830505,,,,,,,,,,,,,,,,,,,,,,,,,,,,,,,,,,,,,,,,,,,,,,,,,,,,,,,,,,,,,,,,,,,,,,,,,,,,,,,,,133.0,57.0,70.0,70.0,57.0,133.0,3.0,3.1,-160,288,0,16,198,-265,496.0238037109375,496.0238790512085,496.0272240638733,496.03882002830505,496.19326972961426,496.19326972961426,496.19326972961426,496.19326972961426,496.19326972961426,496.19326972961426,496.19326972961426,497.0245442390442,1,0.9724705219268799,None,,,,,,,,,,,,,,,,,,75,6,2025-02-21_09h42.41.672,comp,2024.2.4,56.53737073102348,2025-02-21 11h02.45.180671 -0500,
119,119,0,critical,hdw,20.0,2.1,upper,200.0,125.0,141.0,141.0,125.0,200.0,3,1.52286958694458,None,,,,,0,0,0,0,0,119,119,23,497.0403423309326,,,,,,,,,,,,,,,,,,,,,,,,,,,,,,,,,,,,,,,,,,,,,,,,,,,,,,,,,,,,,,,,,,,,,,,,,,,,,,,,,200.0,125.0,141.0,141.0,125.0,200.0,2.1,2.12,-229,-260,0,-255,266,269,497.02609300613403,497.02617025375366,497.0300989151001,497.0403423309326,497.19268798828125,497.19268798828125,497.19268798828125,497.19268798828125,497.19268798828125,497.19268798828125,497.19268798828125,498.57585644721985,3,1.52286958694458,None,,,,,,,,,,,,,,,,,,75,6,2025-02-21_09h42.41.672,comp,2024.2.4,56.53737073102348,2025-02-21 11h02.45.180671 -0500,
120,120,0,critical,hdw,35.0,2.1,lower,133.0,57.0,70.0,70.0,57.0,133.0,1,1.6496145725250244,None,,,,,0,0,0,0,0,120,120,44,498.5937840938568,,,,,,,,,,,,,,,,,,,,,,,,,,,,,,,,,,,,,,,,,,,,,,,,,,,,,,,,,,,,,,,,,,,,,,,,,,,,,,,,,133.0,57.0,70.0,70.0,57.0,133.0,2.1,2.11,-160,261,0,257,198,-262,498.57738637924194,498.5774631500244,498.58067750930786,498.5937840938568,498.7420337200165,498.7420337200165,498.7420337200165,498.7420337200165,498.7420337200165,498.7420337200165,498.7420337200165,500.2598383426666,1,1.6496145725250244,None,,,,,,,,,,,,,,,,,,75,6,2025-02-21_09h42.41.672,comp,2024.2.4,56.53737073102348,2025-02-21 11h02.45.180671 -0500,
121,121,0,filler_square,None,None,None,None,None,None,None,None,None,None,3,1.2797577381134033,None,,,,,0,0,0,0,0,121,121,170,500.27543902397156,,,,,,,,,,,,,,,,,,,,,,,,,,,,,,,,,,,,,,,,,,,,,,,,,,,,,,,,,,,,,,,,,,,,,,,,,,,,,,,,,90.47817223607726,99.51229925666338,109.84086230148462,77.13743531226064,161.0532656880546,161.0532656880546,2.2,2.21,-184,-281,0,251,215,281,500.26165437698364,500.2617313861847,500.2647325992584,500.27543902397156,500.4264078140259,500.4264078140259,500.4264078140259,500.4264078140259,500.4264078140259,500.4264078140259,500.4264078140259,501.5596978664398,3,1.2797577381134033,None,,,,,,,,,,,,,,,,,,75,6,2025-02-21_09h42.41.672,comp,2024.2.4,56.53737073102348,2025-02-21 11h02.45.180671 -0500,
122,122,0,critical,wdh,20.0,4.0,upper,125.0,200.0,141.0,141.0,200.0,125.0,1,2.235839605331421,None,,,,,0,0,0,0,0,122,122,83,501.5755729675293,,,,,,,,,,,,,,,,,,,,,,,,,,,,,,,,,,,,,,,,,,,,,,,,,,,,,,,,,,,,,,,,,,,,,,,,,,,,,,,,,125.0,200.0,141.0,141.0,200.0,125.0,4.0,4.1,-266,-288,0,-13,229,-280,501.5613718032837,501.561475276947,501.56490302085876,501.5755729675293,501.72550654411316,501.72550654411316,501.72550654411316,501.72550654411316,501.72550654411316,501.72550654411316,501.72550654411316,503.828848361969,1,2.235839605331421,None,,,,,,,,,,,,,,,,,,75,6,2025-02-21_09h42.41.672,comp,2024.2.4,56.53737073102348,2025-02-21 11h02.45.180671 -0500,
123,123,0,filler_random,None,None,None,None,None,None,None,None,None,None,3,2.3339943885803223,None,,,,,0,0,0,0,0,123,123,153,503.8452432155609,,,,,,,,,,,,,,,,,,,,,,,,,,,,,,,,,,,,,,,,,,,,,,,,,,,,,,,,,,,,,,,,,,,,,,,,,,,,,,,,,107.00700753462124,70.07270500143969,93.09322537015879,100.92803370281588,191.99845311665678,93.52163119231578,4.0,4.2,-182,-19,0,-270,193,17,503.830668926239,503.8307433128357,503.8341500759125,503.8452432155609,503.9931299686432,503.9931299686432,503.9931299686432,503.9931299686432,503.9931299686432,503.9931299686432,503.9931299686432,506.1938371658325,3,2.3339943885803223,None,,,,,,,,,,,,,,,,,,75,6,2025-02-21_09h42.41.672,comp,2024.2.4,56.53737073102348,2025-02-21 11h02.45.180671 -0500,
124,124,0,critical,hdw,35.0,4.0,lower,133.0,57.0,70.0,70.0,57.0,133.0,1,3.210055112838745,None,,,,,0,0,0,0,0,124,124,112,506.20920634269714,,,,,,,,,,,,,,,,,,,,,,,,,,,,,,,,,,,,,,,,,,,,,,,,,,,,,,,,,,,,,,,,,,,,,,,,,,,,,,,,,133.0,57.0,70.0,70.0,57.0,133.0,4.0,4.2,-160,-7,0,-257,198,15,506.1954176425934,506.1954951286316,506.1988933086395,506.20920634269714,506.36528849601746,506.36528849601746,506.36528849601746,506.36528849601746,506.36528849601746,506.36528849601746,506.36528849601746,509.42125606536865,1,3.210055112838745,None,,,,,,,,,,,,,,,,,,75,6,2025-02-21_09h42.41.672,comp,2024.2.4,56.53737073102348,2025-02-21 11h02.45.180671 -0500,
125,125,0,filler_random,None,None,None,None,None,None,None,None,None,None,1,2.2020833492279053,None,,,,,0,0,0,0,0,125,125,164,509.44146251678467,,,,,,,,,,,,,,,,,,,,,,,,,,,,,,,,,,,,,,,,,,,,,,,,,,,,,,,,,,,,,,,,,,,,,,,,,,,,,,,,,84.43355033737237,185.52732506524853,80.04741007993593,134.34642758254756,100.71662783928285,129.1810254621667,1.0,1.1,-736,268,-480,272,-252,271,509.42293310165405,509.4230144023895,509.42577600479126,509.44146251678467,509.57881331443787,509.57881331443787,509.57881331443787,509.57881331443787,509.57881331443787,509.57881331443787,509.57881331443787,511.6619987487793,1,2.2020833492279053,None,,,,,,,,,,,,,,,,,,75,6,2025-02-21_09h42.41.672,comp,2024.2.4,56.53737073102348,2025-02-21 11h02.45.180671 -0500,
126,126,0,critical,hwd,35.0,2.1,upper,200.0,125.0,125.0,200.0,127.0,127.0,2,3.6112782955169678,None,,,,,0,0,0,0,0,126,126,41,511.68054485321045,,,,,,,,,,,,,,,,,,,,,,,,,,,,,,,,,,,,,,,,,,,,,,,,,,,,,,,,,,,,,,,,,,,,,,,,,,,,,,,,,200.0,125.0,125.0,200.0,127.0,127.0,2.1,2.12,-258,-272,0,-287,260,281,511.6634910106659,511.66356658935547,511.6670341491699,511.68054485321045,511.81728076934814,511.81728076934814,511.81728076934814,511.81728076934814,511.81728076934814,511.81728076934814,511.81728076934814,515.2979640960693,2,3.6112782955169678,None,,,,,,,,,,,,,,,,,,75,6,2025-02-21_09h42.41.672,comp,2024.2.4,56.53737073102348,2025-02-21 11h02.45.180671 -0500,
127,127,0,filler_random,None,None,None,None,None,None,None,None,None,None,3,1.7537150382995605,None,,,,,0,0,0,0,0,127,127,131,515.313981294632,,,,,,,,,,,,,,,,,,,,,,,,,,,,,,,,,,,,,,,,,,,,,,,,,,,,,,,,,,,,,,,,,,,,,,,,,,,,,,,,,153.16239247076493,119.38842618666467,131.33993091100731,59.03638491335255,172.96389606775682,109.02984054018567,4.0,4.1,-185,-265,0,-3,180,-265,515.2995290756226,515.2996046543121,515.3032100200653,515.313981294632,515.463632106781,515.463632106781,515.463632106781,515.463632106781,515.463632106781,515.463632106781,515.463632106781,517.080600976944,3,1.7537150382995605,None,,,,,,,,,,,,,,,,,,75,6,2025-02-21_09h42.41.672,comp,2024.2.4,56.53737073102348,2025-02-21 11h02.45.180671 -0500,
128,128,0,critical,hdw,20.0,4.0,upper,200.0,125.0,141.0,141.0,125.0,200.0,1,3.9976532459259033,None,,,,,0,0,0,0,0,128,128,119,517.0943911075592,,,,,,,,,,,,,,,,,,,,,,,,,,,,,,,,,,,,,,,,,,,,,,,,,,,,,,,,,,,,,,,,,,,,,,,,,,,,,,,,,200.0,125.0,141.0,141.0,125.0,200.0,4.0,4.2,-229,-11,0,-253,266,-19,517.0821280479431,517.0822050571442,517.0854275226593,517.0943911075592,517.2373919487,517.2373919487,517.2373919487,517.2373919487,517.2373919487,517.2373919487,517.2373919487,521.0976159572601,1,3.9976532459259033,None,,,,,,,,,,,,,,,,,,75,6,2025-02-21_09h42.41.672,comp,2024.2.4,56.53737073102348,2025-02-21 11h02.45.180671 -0500,
129,129,0,catch,None,None,None,None,None,None,None,None,None,None,3,1.289747714996338,None,,,,,0,0,0,0,0,129,129,123,521.1140983104706,,,,,,,,,,,,,,,,,,,,,,,,,,,,,,,,,,,,,,,,,,,,,,,,,,,,,,,,,,,,,,,,,,,,,,,,,,,,,,,,,78,112,103,87,126,199,4.0,4.1,-196,-286,0,4,239,-259,521.099443435669,521.0995218753815,521.1025378704071,521.1140983104706,521.2718555927277,521.2718555927277,521.2718555927277,521.2718555927277,521.2718555927277,521.2718555927277,521.2718555927277,522.417897939682,3,1.289747714996338,None,,,,,,,,,,,,,,,,,,75,6,2025-02-21_09h42.41.672,comp,2024.2.4,56.53737073102348,2025-02-21 11h02.45.180671 -0500,
130,130,0,critical,whd,35.0,4.0,upper,125.0,200.0,200.0,125.0,127.0,127.0,1,7.376903533935547,None,,,,,0,0,0,0,0,130,130,89,522.4343140125275,,,,,,,,,,,,,,,,,,,,,,,,,,,,,,,,,,,,,,,,,,,,,,,,,,,,,,,,,,,,,,,,,,,,,,,,,,,,,,,,,125.0,200.0,200.0,125.0,127.0,127.0,4.0,4.2,-258,-13,0,-289,222,-13,522.419602394104,522.4197227954865,522.4231264591217,522.4343140125275,522.5830800533295,522.5830800533295,522.5830800533295,522.5830800533295,522.5830800533295,522.5830800533295,522.5830800533295,529.8230249881744,1,7.376903533935547,None,,,,,,,,,,,,,,,,,,75,6,2025-02-21_09h42.41.672,comp,2024.2.4,56.53737073102348,2025-02-21 11h02.45.180671 -0500,
131,131,0,critical,whd,20.0,3.0,lower,57.0,133.0,133.0,57.0,78.0,78.0,2,1.69815993309021,None,,,,,0,0,0,0,0,131,131,92,529.8430125713348,,,,,,,,,,,,,,,,,,,,,,,,,,,,,,,,,,,,,,,,,,,,,,,,,,,,,,,,,,,,,,,,,,,,,,,,,,,,,,,,,57.0,133.0,133.0,57.0,78.0,78.0,3.0,3.2,-191,-272,0,8,164,267,529.8245046138763,529.8245816230774,529.827394247055,529.8430125713348,529.9851558208466,529.9851558208466,529.9851558208466,529.9851558208466,529.9851558208466,529.9851558208466,529.9851558208466,531.5520236492157,2,1.69815993309021,None,,,,,,,,,,,,,,,,,,75,6,2025-02-21_09h42.41.672,comp,2024.2.4,56.53737073102348,2025-02-21 11h02.45.180671 -0500,
132,132,0,catch,None,None,None,None,None,None,None,None,None,None,1,1.0761282444000244,None,,,,,0,0,0,0,0,132,132,124,531.568033695221,,,,,,,,,,,,,,,,,,,,,,,,,,,,,,,,,,,,,,,,,,,,,,,,,,,,,,,,,,,,,,,,,,,,,,,,,,,,,,,,,149,176,103,87,104,86,4.0,4.2,-228,-3,0,-264,182,-11,531.5539581775665,531.5540392398834,531.5573513507843,531.568033695221,531.7170069217682,531.7170069217682,531.7170069217682,531.7170069217682,531.7170069217682,531.7170069217682,531.7170069217682,532.6509051322937,1,1.0761282444000244,None,,,,,,,,,,,,,,,,,,75,6,2025-02-21_09h42.41.672,comp,2024.2.4,56.53737073102348,2025-02-21 11h02.45.180671 -0500,
133,133,0,critical,dwh,35.0,3.0,upper,127.0,127.0,125.0,200.0,200.0,125.0,2,1.4878873825073242,None,,,,,0,0,0,0,0,133,133,63,532.6675763130188,,,,,,,,,,,,,,,,,,,,,,,,,,,,,,,,,,,,,,,,,,,,,,,,,,,,,,,,,,,,,,,,,,,,,,,,,,,,,,,,,127.0,127.0,125.0,200.0,200.0,125.0,3.0,3.1,-260,251,0,-15,258,-284,532.6524896621704,532.6525676250458,532.65589594841,532.6675763130188,532.8220164775848,532.8220164775848,532.8220164775848,532.8220164775848,532.8220164775848,532.8220164775848,532.8220164775848,534.168105840683,2,1.4878873825073242,None,,,,,,,,,,,,,,,,,,75,6,2025-02-21_09h42.41.672,comp,2024.2.4,56.53737073102348,2025-02-21 11h02.45.180671 -0500,
134,134,0,critical,whd,20.0,4.0,upper,125.0,200.0,200.0,125.0,141.0,141.0,1,1.5241107940673828,None,,,,,0,0,0,0,0,134,134,95,534.1831510066986,,,,,,,,,,,,,,,,,,,,,,,,,,,,,,,,,,,,,,,,,,,,,,,,,,,,,,,,,,,,,,,,,,,,,,,,,,,,,,,,,125.0,200.0,200.0,125.0,141.0,141.0,4.0,4.1,-258,-251,0,3,229,-282,534.1695742607117,534.1696500778198,534.1725940704346,534.1831510066986,534.3251638412476,534.3251638412476,534.3251638412476,534.3251638412476,534.3251638412476,534.3251638412476,534.3251638412476,535.7248377799988,1,1.5241107940673828,None,,,,,,,,,,,,,,,,,,75,6,2025-02-21_09h42.41.672,comp,2024.2.4,56.53737073102348,2025-02-21 11h02.45.180671 -0500,
135,135,0,catch,None,None,None,None,None,None,None,None,None,None,1,1.0979394912719727,None,,,,,0,0,0,0,0,135,135,129,535.7455587387085,,,,,,,,,,,,,,,,,,,,,,,,,,,,,,,,,,,,,,,,,,,,,,,,,,,,,,,,,,,,,,,,,,,,,,,,,,,,,,,,,162,163,88,102,129,61,3.0,3.1,-228,250,0,19,178,-265,535.7268195152283,535.7269451618195,535.7302281856537,535.7455587387085,535.8865022659302,535.8865022659302,535.8865022659302,535.8865022659302,535.8865022659302,535.8865022659302,535.8865022659302,536.85280418396,1,1.0979394912719727,None,,,,,,,,,,,,,,,,,,75,6,2025-02-21_09h42.41.672,comp,2024.2.4,56.53737073102348,2025-02-21 11h02.45.180671 -0500,
136,136,0,critical,hdw,20.0,2.1,lower,133.0,57.0,78.0,78.0,57.0,133.0,1,1.845597267150879,None,,,,,0,0,0,0,0,136,136,22,536.8703405857086,,,,,,,,,,,,,,,,,,,,,,,,,,,,,,,,,,,,,,,,,,,,,,,,,,,,,,,,,,,,,,,,,,,,,,,,,,,,,,,,,133.0,57.0,78.0,78.0,57.0,133.0,2.1,2.12,-164,-277,0,-258,202,263,536.8542835712433,536.8543598651886,536.8573858737946,536.8703405857086,537.0094048976898,537.0094048976898,537.0094048976898,537.0094048976898,537.0094048976898,537.0094048976898,537.0094048976898,538.7243130207062,1,1.845597267150879,None,,,,,,,,,,,,,,,,,,75,6,2025-02-21_09h42.41.672,comp,2024.2.4,56.53737073102348,2025-02-21 11h02.45.180671 -0500,
137,137,0,filler_random,None,None,None,None,None,None,None,None,None,None,3,1.7340974807739258,None,,,,,0,0,0,0,0,137,137,145,538.7411208152771,,,,,,,,,,,,,,,,,,,,,,,,,,,,,,,,,,,,,,,,,,,,,,,,,,,,,,,,,,,,,,,,,,,,,,,,,,,,,,,,,145.3728123561966,168.31160123209258,145.79869317558155,71.5635145507655,168.28928435737146,150.41477161069565,2.2,2.22,-216,270,0,-264,207,-283,538.7260890007019,538.7262027263641,538.7294678688049,538.7411208152771,538.887482881546,538.887482881546,538.887482881546,538.887482881546,538.887482881546,538.887482881546,538.887482881546,540.4872546195984,3,1.7340974807739258,None,,,,,,,,,,,,,,,,,,75,6,2025-02-21_09h42.41.672,comp,2024.2.4,56.53737073102348,2025-02-21 11h02.45.180671 -0500,
138,138,0,critical,dwh,35.0,1.0,upper,127.0,127.0,125.0,200.0,200.0,125.0,2,1.5390255451202393,None,,,,,0,0,0,0,0,138,138,61,540.504362821579,,,,,,,,,,,,,,,,,,,,,,,,,,,,,,,,,,,,,,,,,,,,,,,,,,,,,,,,,,,,,,,,,,,,,,,,,,,,,,,,,127.0,127.0,125.0,200.0,200.0,125.0,1.0,1.1,-740,275,-480,264,-222,255,540.4887385368347,540.4888172149658,540.4920334815979,540.504362821579,540.6528766155243,540.6528766155243,540.6528766155243,540.6528766155243,540.6528766155243,540.6528766155243,540.6528766155243,542.0542471408844,2,1.5390255451202393,None,,,,,,,,,,,,,,,,,,75,6,2025-02-21_09h42.41.672,comp,2024.2.4,56.53737073102348,2025-02-21 11h02.45.180671 -0500,
139,139,0,filler_square,None,None,None,None,None,None,None,None,None,None,1,1.3645915985107422,None,,,,,0,0,0,0,0,139,139,177,542.0707421302795,,,,,,,,,,,,,,,,,,,,,,,,,,,,,,,,,,,,,,,,,,,,,,,,,,,,,,,,,,,,,,,,,,,,,,,,,,,,,,,,,167.3961384360786,167.3961384360786,105.91681519554552,78.39135622123189,123.03971444668778,91.19250444704353,2.1,2.11,-219,259,0,258,181,-256,542.0559952259064,542.0560746192932,542.059089422226,542.0707421302795,542.220997095108,542.220997095108,542.220997095108,542.220997095108,542.220997095108,542.220997095108,542.220997095108,543.4399857521057,1,1.3645915985107422,None,,,,,,,,,,,,,,,,,,75,6,2025-02-21_09h42.41.672,comp,2024.2.4,56.53737073102348,2025-02-21 11h02.45.180671 -0500,
140,140,0,critical,dhw,35.0,2.1,lower,70.0,70.0,133.0,57.0,57.0,133.0,2,1.715280294418335,None,,,,,0,0,0,0,0,140,140,0,543.4560720920563,,,,,,,,,,,,,,,,,,,,,,,,,,,,,,,,,,,,,,,,,,,,,,,,,,,,,,,,,,,,,,,,,,,,,,,,,,,,,,,,,70.0,70.0,133.0,57.0,57.0,133.0,2.1,2.11,-160,250,0,289,191,-253,543.4415583610535,543.4416379928589,543.4452891349792,543.4560720920563,543.607364654541,543.607364654541,543.607364654541,543.607364654541,543.607364654541,543.607364654541,543.607364654541,545.1732733249664,2,1.715280294418335,None,,,,,,,,,,,,,,,,,,75,6,2025-02-21_09h42.41.672,comp,2024.2.4,56.53737073102348,2025-02-21 11h02.45.180671 -0500,
