thisN,thisTrialN,thisRepN,effect,order,distance,config,diag,h_1,w_1,h_2,w_2,h_3,w_3,rect_choice.keys,rect_choice.rt,rect_choice.duration,instructions_loop.thisRepN,instructions_loop.thisTrialN,instructions_loop.thisN,instructions_loop.thisIndex,blocks.thisRepN,blocks.thisTrialN,blocks.thisN,blocks.thisIndex,trials.thisRepN,trials.thisTrialN,trials.thisN,trials.thisIndex,thisRow.t,notes,consent.started,agree_button.started,decline_button.started,consent_img.started,mouse.started,consent.stopped,agree_button.numClicks,agree_button.timesOn,agree_button.timesOff,decline_button.numClicks,decline_button.timesOn,decline_button.timesOff,mouse.x,mouse.y,mouse.leftButton,mouse.midButton,mouse.rightButton,mouse.time,mouse.clicked_name,exp_params.started,exp_params.stopped,welcome.started,welcome_text.started,welcome.stopped,instructions_1.started,instructions_1_text_1.started,instructions_1_text_2.started,key_resp.started,instructions_1.stopped,instructions_loop.key_resp.keys,instructions_loop.key_resp.rt,instructions_loop.key_resp.duration,instructions_2.started,instructions_2_text_1.started,instructions_2_text_2.started,key_resp_2.started,instructions_2.stopped,instructions_loop.key_resp_2.keys,instructions_loop.key_resp_2.rt,instructions_loop.key_resp_2.duration,instructions_3.started,instructions_3_text_1.started,r1_instr3.started,r2_instr3.started,r3_instr3.started,r1_instr3_label.started,r2_instr3_label.started,r3_instr3_label.started,instructions_3_text_3.started,instructions_3_text_4.started,key_resp_3.started,instructions_3.stopped,instructions_loop.key_resp_3.keys,instructions_loop.key_resp_3.rt,instructions_loop.key_resp_3.duration,instructions_4.started,instructions_4_text_1.started,instructions_4_text_3.started,instructions_4_text_2.started,key_resp_4.started,instructions_4.stopped,instructions_loop.key_resp_4.keys,instructions_loop.key_resp_4.rt,instructions_loop.key_resp_4.duration,instructions_5.started,instructions_5_text_1.started,instructions_5_text_2.started,key_resp_5.started,instructions_5.stopped,instructions_loop.key_resp_5.keys,instructions_loop.key_resp_5.rt,instructions_loop.key_resp_5.duration,start_exp.started,start_exp_text.started,key_resp_6.started,start_exp.stopped,key_resp_6.keys,key_resp_6.rt,key_resp_6.duration,h_1_tmp,w_1_tmp,h_2_tmp,w_2_tmp,h_3_tmp,w_3_tmp,config_tmp,config_tmp_1,r_1_x,r_1_y,r_2_x,r_2_y,r_3_x,r_3_y,pre_trial.started,pre_trial.stopped,choice_trial.started,rect_choice.started,r_1.started,r_2.started,r_3.started,r_1_label.started,r_2_label.started,r_3_label.started,prompt.started,choice_trial.stopped,trials.rect_choice.keys,trials.rect_choice.rt,trials.rect_choice.duration,end_block.started,end_block_text.started,end_block.stopped,end.started,end_text.started,key_resp_7.started,end.stopped,key_resp_7.keys,key_resp_7.rt,key_resp_7.duration,debriefing.started,debrief_form.started,end_debrief.started,debriefing.stopped,end_debrief.keys,end_debrief.rt,end_debrief.duration,participant,computer,date,expName,psychopyVersion,frameRate,expStart,
,,,,,,,,,,,,,,,,,,,,,,,,,,,,,,,0.019951820373535156,0.03448224067687988,0.03448224067687988,0.03448224067687988,0.019756317138671875,16.753523588180542,1,[16.716526985168457],[16.716549396514893],0,,,[-47.0],[-497.0],[1],[0],[0],[16.733174562454224],['agree_button'],,,,,,,,,,,,,,,,,,,,,,,,,,,,,,,,,,,,,,,,,,,,,,,,,,,,,,,,,,,,,,,,,,,,,,,,,,,,,,,,,,,,,,,,,,,,,,,,,,,,,,,,,,,76,1,2025-02-21_13h17.47.786,comp,2024.2.4,None,2025-02-21 13h18.36.948405 -0500,
,,,,,,,,,,,,,,,,,,,,,,,,,,,,,,,,,,,,,,,,,,,,,,,,,,16.75416326522827,16.754230260849,,,,,,,,,,,,,,,,,,,,,,,,,,,,,,,,,,,,,,,,,,,,,,,,,,,,,,,,,,,,,,,,,,,,,,,,,,,,,,,,,,,,,,,,,,,,,,,,,,,,,,,,,76,1,2025-02-21_13h17.47.786,comp,2024.2.4,None,2025-02-21 13h18.36.948405 -0500,
,,,,,,,,,,,,,,,,,,,,,,,,,,,,,,,,,,,,,,,,,,,,,,,,,,,,16.754273414611816,16.768211126327515,18.755602598190308,,,,,,,,,,,,,,,,,,,,,,,,,,,,,,,,,,,,,,,,,,,,,,,,,,,,,,,,,,,,,,,,,,,,,,,,,,,,,,,,,,,,,,,,,,,,,,,,,,,,,,76,1,2025-02-21_13h17.47.786,comp,2024.2.4,None,2025-02-21 13h18.36.948405 -0500,
0,0,0,,,,,,,,,,,,,,,0,0,0,0,,,,,,,,,18.770145416259766,,,,,,,,,,,,,,,,,,,,,,,,,,18.7565655708313,18.770145416259766,18.770145416259766,20.269458532333374,22.15617084503174,space,1.8779594898223877,None,22.156325101852417,22.171706914901733,22.171706914901733,23.670856475830078,30.34167242050171,space,6.660658597946167,None,30.34187150001526,30.369887828826904,30.369887828826904,30.369887828826904,30.369887828826904,30.369887828826904,30.369887828826904,30.369887828826904,30.369887828826904,30.369887828826904,31.844114065170288,39.094284534454346,space,7.247165203094482,None,39.094449043273926,39.11518335342407,39.11518335342407,39.11518335342407,40.60944128036499,45.44563698768616,space,4.826058864593506,None,45.4458384513855,45.46070647239685,45.46070647239685,46.96093130111694,47.59844446182251,space,0.6263308525085449,None,47.59864902496338,47.614909172058105,47.614909172058105,48.91285824775696,space,1.2840087413787842,None,,,,,,,,,,,,,,,,,,,,,,,,,,,,,,,,,,,,,,,,,,,,,,,76,1,2025-02-21_13h17.47.786,comp,2024.2.4,None,2025-02-21 13h18.36.948405 -0500,
0,0,0,critical,dhw,20.0,3.0,upper,141.0,141.0,200.0,125.0,125.0,200.0,3,4.360182523727417,None,,,,,0,0,0,0,0,0,0,57,48.98710894584656,,,,,,,,,,,,,,,,,,,,,,,,,,,,,,,,,,,,,,,,,,,,,,,,,,,,,,,,,,,,,,,,,,,,,,,,,,,,,,,,,141.0,141.0,200.0,125.0,125.0,200.0,3.0,3.2,-229,-253,0,5,258,287,48.97057557106018,48.970608949661255,48.97173452377319,48.98710894584656,49.137588024139404,49.137588024139404,49.137588024139404,49.137588024139404,49.137588024139404,49.137588024139404,49.137588024139404,53.36524844169617,3,4.360182523727417,None,,,,,,,,,,,,,,,,,,76,1,2025-02-21_13h17.47.786,comp,2024.2.4,None,2025-02-21 13h18.36.948405 -0500,
1,1,0,critical,dhw,35.0,1.0,lower,70.0,70.0,133.0,57.0,57.0,133.0,3,5.919858932495117,None,,,,,0,0,0,0,0,1,1,48,53.37959623336792,,,,,,,,,,,,,,,,,,,,,,,,,,,,,,,,,,,,,,,,,,,,,,,,,,,,,,,,,,,,,,,,,,,,,,,,,,,,,,,,,70.0,70.0,133.0,57.0,57.0,133.0,1.0,1.3,320,-271,480,-251,671,-281,53.36580157279968,53.36582541465759,53.366737604141235,53.37959623336792,53.530736207962036,53.530736207962036,53.530736207962036,53.530736207962036,53.530736207962036,53.530736207962036,53.530736207962036,59.306551694869995,3,5.919858932495117,None,,,,,,,,,,,,,,,,,,76,1,2025-02-21_13h17.47.786,comp,2024.2.4,None,2025-02-21 13h18.36.948405 -0500,
2,2,0,critical,dwh,20.0,4.0,upper,141.0,141.0,125.0,200.0,200.0,125.0,2,4.1802003383636475,None,,,,,0,0,0,0,0,2,2,71,59.32670283317566,,,,,,,,,,,,,,,,,,,,,,,,,,,,,,,,,,,,,,,,,,,,,,,,,,,,,,,,,,,,,,,,,,,,,,,,,,,,,,,,,141.0,141.0,125.0,200.0,200.0,125.0,4.0,4.2,-266,18,0,-254,258,-6,59.30805850028992,59.30813479423523,59.310943603515625,59.32670283317566,59.4664888381958,59.4664888381958,59.4664888381958,59.4664888381958,59.4664888381958,59.4664888381958,59.4664888381958,63.51785922050476,2,4.1802003383636475,None,,,,,,,,,,,,,,,,,,76,1,2025-02-21_13h17.47.786,comp,2024.2.4,None,2025-02-21 13h18.36.948405 -0500,
3,3,0,critical,wdh,35.0,1.0,upper,125.0,200.0,127.0,127.0,200.0,125.0,1,1.715742588043213,None,,,,,0,0,0,0,0,3,3,73,63.535831451416016,,,,,,,,,,,,,,,,,,,,,,,,,,,,,,,,,,,,,,,,,,,,,,,,,,,,,,,,,,,,,,,,,,,,,,,,,,,,,,,,,125.0,200.0,127.0,127.0,200.0,125.0,1.0,1.3,220,-257,480,-264,702,-254,63.51937294006348,63.51945209503174,63.52262854576111,63.535831451416016,63.669739723205566,63.669739723205566,63.669739723205566,63.669739723205566,63.669739723205566,63.669739723205566,63.669739723205566,65.26833391189575,1,1.715742588043213,None,,,,,,,,,,,,,,,,,,76,1,2025-02-21_13h17.47.786,comp,2024.2.4,None,2025-02-21 13h18.36.948405 -0500,
4,4,0,filler_square,None,None,None,None,None,None,None,None,None,None,1,1.1419925689697266,None,,,,,0,0,0,0,0,4,4,204,65.28484654426575,,,,,,,,,,,,,,,,,,,,,,,,,,,,,,,,,,,,,,,,,,,,,,,,,,,,,,,,,,,,,,,,,,,,,,,,,,,,,,,,,92.33019439733792,92.33019439733792,75.77894673379456,76.16310618186182,78.31885568752449,64.28827785011134,1.0,1.1,-660,273,-480,280,-314,281,65.27010846138,65.27018237113953,65.2741630077362,65.28484654426575,65.43383836746216,65.43383836746216,65.43383836746216,65.43383836746216,65.43383836746216,65.43383836746216,65.43383836746216,66.43661046028137,1,1.1419925689697266,None,,,,,,,,,,,,,,,,,,76,1,2025-02-21_13h17.47.786,comp,2024.2.4,None,2025-02-21 13h18.36.948405 -0500,
5,5,0,filler_square,None,None,None,None,None,None,None,None,None,None,1,1.0538246631622314,None,,,,,0,0,0,0,0,5,5,188,66.45327544212341,,,,,,,,,,,,,,,,,,,,,,,,,,,,,,,,,,,,,,,,,,,,,,,,,,,,,,,,,,,,,,,,,,,,,,,,,,,,,,,,,133.6405368094693,133.6405368094693,120.49822086159963,90.72827844908394,114.12715596449094,119.63531313256257,1.0,1.1,-688,276,-480,274,-279,287,66.43857097625732,66.43870520591736,66.44236040115356,66.45327544212341,66.59985852241516,66.59985852241516,66.59985852241516,66.59985852241516,66.59985852241516,66.59985852241516,66.59985852241516,67.51973295211792,1,1.0538246631622314,None,,,,,,,,,,,,,,,,,,76,1,2025-02-21_13h17.47.786,comp,2024.2.4,None,2025-02-21 13h18.36.948405 -0500,
6,6,0,critical,hwd,20.0,2.1,lower,133.0,57.0,57.0,133.0,78.0,78.0,2,3.8351211547851562,None,,,,,0,0,0,0,0,6,6,42,67.5360152721405,,,,,,,,,,,,,,,,,,,,,,,,,,,,,,,,,,,,,,,,,,,,,,,,,,,,,,,,,,,,,,,,,,,,,,,,,,,,,,,,,133.0,57.0,57.0,133.0,78.0,78.0,2.1,2.12,-191,-252,0,-257,202,277,67.52140760421753,67.52148604393005,67.5246889591217,67.5360152721405,67.68291997909546,67.68291997909546,67.68291997909546,67.68291997909546,67.68291997909546,67.68291997909546,67.68291997909546,71.3895354270935,2,3.8351211547851562,None,,,,,,,,,,,,,,,,,,76,1,2025-02-21_13h17.47.786,comp,2024.2.4,None,2025-02-21 13h18.36.948405 -0500,
7,7,0,filler_square,None,None,None,None,None,None,None,None,None,None,3,1.3766086101531982,None,,,,,0,0,0,0,0,7,7,194,71.4104015827179,,,,,,,,,,,,,,,,,,,,,,,,,,,,,,,,,,,,,,,,,,,,,,,,,,,,,,,,,,,,,,,,,,,,,,,,,,,,,,,,,65.80826913310665,64.49169665146349,58.92158480028339,62.598211360589616,103.08627960278308,103.08627960278308,2.1,2.12,-160,-263,0,-289,179,286,71.39166975021362,71.39182090759277,71.39508557319641,71.4104015827179,71.55437970161438,71.55437970161438,71.55437970161438,71.55437970161438,71.55437970161438,71.55437970161438,71.55437970161438,72.80180954933167,3,1.3766086101531982,None,,,,,,,,,,,,,,,,,,76,1,2025-02-21_13h17.47.786,comp,2024.2.4,None,2025-02-21 13h18.36.948405 -0500,
8,8,0,filler_random,None,None,None,None,None,None,None,None,None,None,3,0.9452579021453857,None,,,,,0,0,0,0,0,8,8,158,72.81850814819336,,,,,,,,,,,,,,,,,,,,,,,,,,,,,,,,,,,,,,,,,,,,,,,,,,,,,,,,,,,,,,,,,,,,,,,,,,,,,,,,,111.62906040400387,100.47873783133313,87.87040588541953,184.14926122089958,124.46678848935497,174.47299455797287,1.0,1.2,-238,-1,0,-3,275,-19,72.80350947380066,72.80363249778748,72.8068778514862,72.81850814819336,72.97344851493835,72.97344851493835,72.97344851493835,72.97344851493835,72.97344851493835,72.97344851493835,72.97344851493835,73.7698962688446,3,0.9452579021453857,None,,,,,,,,,,,,,,,,,,76,1,2025-02-21_13h17.47.786,comp,2024.2.4,None,2025-02-21 13h18.36.948405 -0500,
9,9,0,filler_random,None,None,None,None,None,None,None,None,None,None,2,1.189652681350708,None,,,,,0,0,0,0,0,9,9,167,73.78999304771423,,,,,,,,,,,,,,,,,,,,,,,,,,,,,,,,,,,,,,,,,,,,,,,,,,,,,,,,,,,,,,,,,,,,,,,,,,,,,,,,,57.721971752030214,121.95162689484812,179.20297450617537,158.71304630252257,106.61839180463173,92.05866031475415,2.2,2.21,-236,-282,0,255,221,282,73.77155447006226,73.77163076400757,73.77446174621582,73.78999304771423,73.93750596046448,73.93750596046448,73.93750596046448,73.93750596046448,73.93750596046448,73.93750596046448,73.93750596046448,74.98672533035278,2,1.189652681350708,None,,,,,,,,,,,,,,,,,,76,1,2025-02-21_13h17.47.786,comp,2024.2.4,None,2025-02-21 13h18.36.948405 -0500,
10,10,0,critical,whd,35.0,3.0,upper,125.0,200.0,200.0,125.0,127.0,127.0,2,0.8879835605621338,None,,,,,0,0,0,0,0,10,10,87,75.0032114982605,,,,,,,,,,,,,,,,,,,,,,,,,,,,,,,,,,,,,,,,,,,,,,,,,,,,,,,,,,,,,,,,,,,,,,,,,,,,,,,,,125.0,200.0,200.0,125.0,127.0,127.0,3.0,3.1,-258,286,0,-4,222,-253,74.9882128238678,74.98828959465027,74.99131369590759,75.0032114982605,75.14210748672485,75.14210748672485,75.14210748672485,75.14210748672485,75.14210748672485,75.14210748672485,75.14210748672485,75.89360761642456,2,0.8879835605621338,None,,,,,,,,,,,,,,,,,,76,1,2025-02-21_13h17.47.786,comp,2024.2.4,None,2025-02-21 13h18.36.948405 -0500,
11,11,0,filler_square,None,None,None,None,None,None,None,None,None,None,2,0.8782823085784912,None,,,,,0,0,0,0,0,11,11,206,75.90916967391968,,,,,,,,,,,,,,,,,,,,,,,,,,,,,,,,,,,,,,,,,,,,,,,,,,,,,,,,,,,,,,,,,,,,,,,,,,,,,,,,,84.16693114926375,61.550114715726394,105.38311782671533,105.38311782671533,91.86591203526746,73.57449468946216,3.0,3.2,-179,-261,0,-10,185,279,75.89544081687927,75.89551758766174,75.89833045005798,75.90916967391968,76.05391788482666,76.05391788482666,76.05391788482666,76.05391788482666,76.05391788482666,76.05391788482666,76.05391788482666,76.78986048698425,2,0.8782823085784912,None,,,,,,,,,,,,,,,,,,76,1,2025-02-21_13h17.47.786,comp,2024.2.4,None,2025-02-21 13h18.36.948405 -0500,
12,12,0,critical,dhw,20.0,1.0,upper,141.0,141.0,200.0,125.0,125.0,200.0,2,3.7972447872161865,None,,,,,0,0,0,0,0,12,12,55,76.8061900138855,,,,,,,,,,,,,,,,,,,,,,,,,,,,,,,,,,,,,,,,,,,,,,,,,,,,,,,,,,,,,,,,,,,,,,,,,,,,,,,,,141.0,141.0,200.0,125.0,125.0,200.0,1.0,1.2,-229,6,0,0,258,-10,76.79131388664246,76.79139041900635,76.7952880859375,76.8061900138855,76.95515727996826,76.95515727996826,76.95515727996826,76.95515727996826,76.95515727996826,76.95515727996826,76.95515727996826,80.60685968399048,2,3.7972447872161865,None,,,,,,,,,,,,,,,,,,76,1,2025-02-21_13h17.47.786,comp,2024.2.4,None,2025-02-21 13h18.36.948405 -0500,
13,13,0,filler_random,None,None,None,None,None,None,None,None,None,None,3,1.2935402393341064,None,,,,,0,0,0,0,0,13,13,161,80.62305855751038,,,,,,,,,,,,,,,,,,,,,,,,,,,,,,,,,,,,,,,,,,,,,,,,,,,,,,,,,,,,,,,,,,,,,,,,,,,,,,,,,125.92496944340274,176.02464973672028,133.93110031477397,144.91176273996416,163.1732463774855,162.34110758127903,3.0,3.1,-256,282,0,2,250,-262,80.60857105255127,80.60864686965942,80.61207675933838,80.62305855751038,80.7729561328888,80.7729561328888,80.7729561328888,80.7729561328888,80.7729561328888,80.7729561328888,80.7729561328888,81.9222846031189,3,1.2935402393341064,None,,,,,,,,,,,,,,,,,,76,1,2025-02-21_13h17.47.786,comp,2024.2.4,None,2025-02-21 13h18.36.948405 -0500,
14,14,0,critical,dhw,20.0,2.1,lower,78.0,78.0,133.0,57.0,57.0,133.0,3,2.920919418334961,None,,,,,0,0,0,0,0,14,14,26,81.93864274024963,,,,,,,,,,,,,,,,,,,,,,,,,,,,,,,,,,,,,,,,,,,,,,,,,,,,,,,,,,,,,,,,,,,,,,,,,,,,,,,,,78.0,78.0,133.0,57.0,57.0,133.0,2.1,2.11,-164,277,0,281,191,-278,81.92380833625793,81.92388701438904,81.92682266235352,81.93864274024963,82.07655763626099,82.07655763626099,82.07655763626099,82.07655763626099,82.07655763626099,82.07655763626099,82.07655763626099,84.86205863952637,3,2.920919418334961,None,,,,,,,,,,,,,,,,,,76,1,2025-02-21_13h17.47.786,comp,2024.2.4,None,2025-02-21 13h18.36.948405 -0500,
15,15,0,critical,dwh,20.0,3.0,upper,141.0,141.0,125.0,200.0,200.0,125.0,2,2.659393310546875,None,,,,,0,0,0,0,0,15,15,69,84.87972497940063,,,,,,,,,,,,,,,,,,,,,,,,,,,,,,,,,,,,,,,,,,,,,,,,,,,,,,,,,,,,,,,,,,,,,,,,,,,,,,,,,141.0,141.0,125.0,200.0,200.0,125.0,3.0,3.2,-266,-290,0,-1,258,253,84.86361265182495,84.86369109153748,84.86753129959106,84.87972497940063,85.02688097953796,85.02688097953796,85.02688097953796,85.02688097953796,85.02688097953796,85.02688097953796,85.02688097953796,87.5582811832428,2,2.659393310546875,None,,,,,,,,,,,,,,,,,,76,1,2025-02-21_13h17.47.786,comp,2024.2.4,None,2025-02-21 13h18.36.948405 -0500,
16,16,0,critical,whd,35.0,4.0,lower,57.0,133.0,133.0,57.0,70.0,70.0,2,1.7330958843231201,None,,,,,0,0,0,0,0,16,16,88,87.57399606704712,,,,,,,,,,,,,,,,,,,,,,,,,,,,,,,,,,,,,,,,,,,,,,,,,,,,,,,,,,,,,,,,,,,,,,,,,,,,,,,,,57.0,133.0,133.0,57.0,70.0,70.0,4.0,4.1,-191,-252,0,3,160,-280,87.55975389480591,87.55985140800476,87.56300830841064,87.57399606704712,87.727863073349,87.727863073349,87.727863073349,87.727863073349,87.727863073349,87.727863073349,87.727863073349,89.30920028686523,2,1.7330958843231201,None,,,,,,,,,,,,,,,,,,76,1,2025-02-21_13h17.47.786,comp,2024.2.4,None,2025-02-21 13h18.36.948405 -0500,
17,17,0,critical,dwh,20.0,1.0,lower,78.0,78.0,57.0,133.0,133.0,57.0,2,2.409358024597168,None,,,,,0,0,0,0,0,17,17,66,89.3298773765564,,,,,,,,,,,,,,,,,,,,,,,,,,,,,,,,,,,,,,,,,,,,,,,,,,,,,,,,,,,,,,,,,,,,,,,,,,,,,,,,,78.0,78.0,57.0,133.0,133.0,57.0,1.0,1.1,-682,271,-480,269,-289,261,89.31069350242615,89.31080937385559,89.31398415565491,89.3298773765564,89.47663760185242,89.47663760185242,89.47663760185242,89.47663760185242,89.47663760185242,89.47663760185242,89.47663760185242,91.74263596534729,2,2.409358024597168,None,,,,,,,,,,,,,,,,,,76,1,2025-02-21_13h17.47.786,comp,2024.2.4,None,2025-02-21 13h18.36.948405 -0500,
18,18,0,filler_random,None,None,None,None,None,None,None,None,None,None,2,2.4126477241516113,None,,,,,0,0,0,0,0,18,18,153,91.75895023345947,,,,,,,,,,,,,,,,,,,,,,,,,,,,,,,,,,,,,,,,,,,,,,,,,,,,,,,,,,,,,,,,,,,,,,,,,,,,,,,,,182.60992773477273,89.33313190014064,113.48933302233017,167.99647271941245,105.92534414295251,130.32421933245027,2.2,2.22,-225,283,0,-271,245,-263,91.74434280395508,91.74442076683044,91.74728775024414,91.75895023345947,91.91036367416382,91.91036367416382,91.91036367416382,91.91036367416382,91.91036367416382,91.91036367416382,91.91036367416382,94.17672324180603,2,2.4126477241516113,None,,,,,,,,,,,,,,,,,,76,1,2025-02-21_13h17.47.786,comp,2024.2.4,None,2025-02-21 13h18.36.948405 -0500,
19,19,0,filler_random,None,None,None,None,None,None,None,None,None,None,1,1.473200798034668,None,,,,,0,0,0,0,0,19,19,149,94.19379949569702,,,,,,,,,,,,,,,,,,,,,,,,,,,,,,,,,,,,,,,,,,,,,,,,,,,,,,,,,,,,,,,,,,,,,,,,,,,,,,,,,176.5971152904574,135.82805466418364,165.38829234924071,75.86269026847853,95.6516139984665,83.18817161431102,2.1,2.11,-202,259,0,277,176,-273,94.17840361595154,94.17847943305969,94.18146204948425,94.19379949569702,94.34655737876892,94.34655737876892,94.34655737876892,94.34655737876892,94.34655737876892,94.34655737876892,94.34655737876892,95.68064832687378,1,1.473200798034668,None,,,,,,,,,,,,,,,,,,76,1,2025-02-21_13h17.47.786,comp,2024.2.4,None,2025-02-21 13h18.36.948405 -0500,
20,20,0,critical,hwd,20.0,4.0,upper,200.0,125.0,125.0,200.0,141.0,141.0,2,2.256896734237671,None,,,,,0,0,0,0,0,20,20,107,95.69886445999146,,,,,,,,,,,,,,,,,,,,,,,,,,,,,,,,,,,,,,,,,,,,,,,,,,,,,,,,,,,,,,,,,,,,,,,,,,,,,,,,,200.0,125.0,125.0,200.0,141.0,141.0,4.0,4.2,-258,12,0,-288,266,-3,95.68242287635803,95.68250250816345,95.6857361793518,95.69886445999146,95.84460234642029,95.84460234642029,95.84460234642029,95.84460234642029,95.84460234642029,95.84460234642029,95.84460234642029,97.96107959747314,2,2.256896734237671,None,,,,,,,,,,,,,,,,,,76,1,2025-02-21_13h17.47.786,comp,2024.2.4,None,2025-02-21 13h18.36.948405 -0500,
21,21,0,critical,dhw,20.0,3.0,lower,78.0,78.0,133.0,57.0,57.0,133.0,3,1.9953105449676514,None,,,,,0,0,0,0,0,21,21,56,97.97793698310852,,,,,,,,,,,,,,,,,,,,,,,,,,,,,,,,,,,,,,,,,,,,,,,,,,,,,,,,,,,,,,,,,,,,,,,,,,,,,,,,,78.0,78.0,133.0,57.0,57.0,133.0,3.0,3.1,-164,284,0,7,191,-278,97.96269822120667,97.9628038406372,97.96612000465393,97.97793698310852,98.128751039505,98.128751039505,98.128751039505,98.128751039505,98.128751039505,98.128751039505,98.128751039505,99.97914171218872,3,1.9953105449676514,None,,,,,,,,,,,,,,,,,,76,1,2025-02-21_13h17.47.786,comp,2024.2.4,None,2025-02-21 13h18.36.948405 -0500,
22,22,0,filler_square,None,None,None,None,None,None,None,None,None,None,1,1.694758653640747,None,,,,,0,0,0,0,0,22,22,180,99.9971251487732,,,,,,,,,,,,,,,,,,,,,,,,,,,,,,,,,,,,,,,,,,,,,,,,,,,,,,,,,,,,,,,,,,,,,,,,,,,,,,,,,106.1634681920628,106.1634681920628,105.6757182089669,69.34111634034443,68.95581847817007,79.15439273231785,2.1,2.12,-184,-285,0,-252,170,285,99.98087048530579,99.98094987869263,99.98399615287781,99.9971251487732,100.1459424495697,100.1459424495697,100.1459424495697,100.1459424495697,100.1459424495697,100.1459424495697,100.1459424495697,101.69642376899719,1,1.694758653640747,None,,,,,,,,,,,,,,,,,,76,1,2025-02-21_13h17.47.786,comp,2024.2.4,None,2025-02-21 13h18.36.948405 -0500,
23,23,0,filler_square,None,None,None,None,None,None,None,None,None,None,3,4.780001401901245,None,,,,,0,0,0,0,0,23,23,209,101.7114987373352,,,,,,,,,,,,,,,,,,,,,,,,,,,,,,,,,,,,,,,,,,,,,,,,,,,,,,,,,,,,,,,,,,,,,,,,,,,,,,,,,65.80553346251091,65.80553346251091,58.7559471858484,60.56165298611134,60.500462749965344,58.13776317330895,2.2,2.22,-159,256,0,-250,155,-289,101.69822645187378,101.69830393791199,101.7013771533966,101.7114987373352,101.8630359172821,101.8630359172821,101.8630359172821,101.8630359172821,101.8630359172821,101.8630359172821,101.8630359172821,106.49639582633972,3,4.780001401901245,None,,,,,,,,,,,,,,,,,,76,1,2025-02-21_13h17.47.786,comp,2024.2.4,None,2025-02-21 13h18.36.948405 -0500,
24,24,0,filler_square,None,None,None,None,None,None,None,None,None,None,1,1.9461441040039062,None,,,,,0,0,0,0,0,24,24,187,106.51341032981873,,,,,,,,,,,,,,,,,,,,,,,,,,,,,,,,,,,,,,,,,,,,,,,,,,,,,,,,,,,,,,,,,,,,,,,,,,,,,,,,,155.47452141496927,155.47452141496927,141.61349969231702,132.60042340188215,60.70128174117803,120.92186416298429,3.0,3.2,-240,-282,0,-17,223,283,106.49831867218018,106.49844884872437,106.50166606903076,106.51341032981873,106.65255284309387,106.65255284309387,106.65255284309387,106.65255284309387,106.65255284309387,106.65255284309387,106.65255284309387,108.4643907546997,1,1.9461441040039062,None,,,,,,,,,,,,,,,,,,76,1,2025-02-21_13h17.47.786,comp,2024.2.4,None,2025-02-21 13h18.36.948405 -0500,
25,25,0,filler_random,None,None,None,None,None,None,None,None,None,None,2,1.563185691833496,None,,,,,0,0,0,0,0,25,25,131,108.48085618019104,,,,,,,,,,,,,,,,,,,,,,,,,,,,,,,,,,,,,,,,,,,,,,,,,,,,,,,,,,,,,,,,,,,,,,,,,,,,,,,,,92.83078399267089,172.95388016421018,178.62248795630217,114.81684255811032,110.27597089195623,119.8722759979174,2.2,2.21,-240,-251,0,271,213,251,108.46608591079712,108.46616005897522,108.4690945148468,108.48085618019104,108.63103795051575,108.63103795051575,108.63103795051575,108.63103795051575,108.63103795051575,108.63103795051575,108.63103795051575,110.05097794532776,2,1.563185691833496,None,,,,,,,,,,,,,,,,,,76,1,2025-02-21_13h17.47.786,comp,2024.2.4,None,2025-02-21 13h18.36.948405 -0500,
26,26,0,critical,dhw,35.0,3.0,upper,127.0,127.0,200.0,125.0,125.0,200.0,3,1.9273688793182373,None,,,,,0,0,0,0,0,26,26,51,110.06787133216858,,,,,,,,,,,,,,,,,,,,,,,,,,,,,,,,,,,,,,,,,,,,,,,,,,,,,,,,,,,,,,,,,,,,,,,,,,,,,,,,,127.0,127.0,200.0,125.0,125.0,200.0,3.0,3.2,-222,-281,0,3,258,254,110.05283117294312,110.05296039581299,110.05619049072266,110.06787133216858,110.21544814109802,110.21544814109802,110.21544814109802,110.21544814109802,110.21544814109802,110.21544814109802,110.21544814109802,111.99974489212036,3,1.9273688793182373,None,,,,,,,,,,,,,,,,,,76,1,2025-02-21_13h17.47.786,comp,2024.2.4,None,2025-02-21 13h18.36.948405 -0500,
27,27,0,critical,dwh,35.0,3.0,upper,127.0,127.0,125.0,200.0,200.0,125.0,2,1.0349862575531006,None,,,,,0,0,0,0,0,27,27,63,112.01614022254944,,,,,,,,,,,,,,,,,,,,,,,,,,,,,,,,,,,,,,,,,,,,,,,,,,,,,,,,,,,,,,,,,,,,,,,,,,,,,,,,,127.0,127.0,125.0,200.0,200.0,125.0,3.0,3.2,-260,-272,0,-5,258,281,112.00127220153809,112.00134706497192,112.00469994544983,112.01614022254944,112.15702414512634,112.15702414512634,112.15702414512634,112.15702414512634,112.15702414512634,112.15702414512634,112.15702414512634,113.05594277381897,2,1.0349862575531006,None,,,,,,,,,,,,,,,,,,76,1,2025-02-21_13h17.47.786,comp,2024.2.4,None,2025-02-21 13h18.36.948405 -0500,
28,28,0,critical,dwh,35.0,2.1,upper,127.0,127.0,125.0,200.0,200.0,125.0,2,1.3383052349090576,None,,,,,0,0,0,0,0,28,28,5,113.073322057724,,,,,,,,,,,,,,,,,,,,,,,,,,,,,,,,,,,,,,,,,,,,,,,,,,,,,,,,,,,,,,,,,,,,,,,,,,,,,,,,,127.0,127.0,125.0,200.0,200.0,125.0,2.1,2.11,-260,280,0,287,258,-272,113.0573296546936,113.05740547180176,113.0602285861969,113.073322057724,113.21670079231262,113.21670079231262,113.21670079231262,113.21670079231262,113.21670079231262,113.21670079231262,113.21670079231262,114.41860580444336,2,1.3383052349090576,None,,,,,,,,,,,,,,,,,,76,1,2025-02-21_13h17.47.786,comp,2024.2.4,None,2025-02-21 13h18.36.948405 -0500,
29,29,0,filler_random,None,None,None,None,None,None,None,None,None,None,3,1.4560260772705078,None,,,,,0,0,0,0,0,29,29,152,114.43581509590149,,,,,,,,,,,,,,,,,,,,,,,,,,,,,,,,,,,,,,,,,,,,,,,,,,,,,,,,,,,,,,,,,,,,,,,,,,,,,,,,,150.83641444943936,95.6567625397695,146.50405590677235,184.62211641558127,197.93353964325524,174.69977203885435,3.0,3.1,-236,283,0,16,276,-264,114.42043614387512,114.42051339149475,114.42410373687744,114.43581509590149,114.58372497558594,114.58372497558594,114.58372497558594,114.58372497558594,114.58372497558594,114.58372497558594,114.58372497558594,115.90127444267273,3,1.4560260772705078,None,,,,,,,,,,,,,,,,,,76,1,2025-02-21_13h17.47.786,comp,2024.2.4,None,2025-02-21 13h18.36.948405 -0500,
30,30,0,catch,None,None,None,None,None,None,None,None,None,None,1,1.189077615737915,None,,,,,0,0,0,0,0,30,30,123,115.91799473762512,,,,,,,,,,,,,,,,,,,,,,,,,,,,,,,,,,,,,,,,,,,,,,,,,,,,,,,,,,,,,,,,,,,,,,,,,,,,,,,,,183,142,91,99,62,128,2.2,2.21,-216,-257,0,287,210,255,115.90356421470642,115.90364599227905,115.90714931488037,115.91799473762512,116.06567025184631,116.06567025184631,116.06567025184631,116.06567025184631,116.06567025184631,116.06567025184631,116.06567025184631,117.12081384658813,1,1.189077615737915,None,,,,,,,,,,,,,,,,,,76,1,2025-02-21_13h17.47.786,comp,2024.2.4,None,2025-02-21 13h18.36.948405 -0500,
31,31,0,filler_random,None,None,None,None,None,None,None,None,None,None,1,0.9943947792053223,None,,,,,0,0,0,0,0,31,31,156,117.13706135749817,,,,,,,,,,,,,,,,,,,,,,,,,,,,,,,,,,,,,,,,,,,,,,,,,,,,,,,,,,,,,,,,,,,,,,,,,,,,,,,,,198.95399715964146,170.91886148793745,193.67334665490154,96.35700304933633,152.12667302090102,170.6571345208713,4.0,4.1,-230,-280,0,-16,230,-252,117.12272500991821,117.12286305427551,117.12613892555237,117.13706135749817,117.28531217575073,117.28531217575073,117.28531217575073,117.28531217575073,117.28531217575073,117.28531217575073,117.28531217575073,118.13740062713623,1,0.9943947792053223,None,,,,,,,,,,,,,,,,,,76,1,2025-02-21_13h17.47.786,comp,2024.2.4,None,2025-02-21 13h18.36.948405 -0500,
32,32,0,critical,dhw,35.0,2.1,upper,127.0,127.0,200.0,125.0,125.0,200.0,3,1.686469554901123,None,,,,,0,0,0,0,0,32,32,25,118.15663194656372,,,,,,,,,,,,,,,,,,,,,,,,,,,,,,,,,,,,,,,,,,,,,,,,,,,,,,,,,,,,,,,,,,,,,,,,,,,,,,,,,127.0,127.0,200.0,125.0,125.0,200.0,2.1,2.11,-222,269,0,265,258,-280,118.13903594017029,118.13911604881287,118.14218664169312,118.15663194656372,118.3027412891388,118.3027412891388,118.3027412891388,118.3027412891388,118.3027412891388,118.3027412891388,118.3027412891388,119.85222744941711,3,1.686469554901123,None,,,,,,,,,,,,,,,,,,76,1,2025-02-21_13h17.47.786,comp,2024.2.4,None,2025-02-21 13h18.36.948405 -0500,
33,33,0,critical,wdh,20.0,2.1,upper,125.0,200.0,141.0,141.0,200.0,125.0,1,1.1271660327911377,None,,,,,0,0,0,0,0,33,33,11,119.86792325973511,,,,,,,,,,,,,,,,,,,,,,,,,,,,,,,,,,,,,,,,,,,,,,,,,,,,,,,,,,,,,,,,,,,,,,,,,,,,,,,,,125.0,200.0,141.0,141.0,200.0,125.0,2.1,2.11,-266,263,0,279,229,-255,119.85368657112122,119.8537802696228,119.8571286201477,119.86792325973511,120.01720571517944,120.01720571517944,120.01720571517944,120.01720571517944,120.01720571517944,120.01720571517944,120.01720571517944,121.01059317588806,1,1.1271660327911377,None,,,,,,,,,,,,,,,,,,76,1,2025-02-21_13h17.47.786,comp,2024.2.4,None,2025-02-21 13h18.36.948405 -0500,
34,34,0,filler_square,None,None,None,None,None,None,None,None,None,None,2,1.1606311798095703,None,,,,,0,0,0,0,0,34,34,201,121.0264060497284,,,,,,,,,,,,,,,,,,,,,,,,,,,,,,,,,,,,,,,,,,,,,,,,,,,,,,,,,,,,,,,,,,,,,,,,,,,,,,,,,87.18932571001962,105.66518756847503,115.05660256532799,115.05660256532799,67.49574664958027,58.91704925504686,3.0,3.2,-206,-276,0,12,183,259,121.01230216026306,121.01237654685974,121.0151891708374,121.0264060497284,121.17028331756592,121.17028331756592,121.17028331756592,121.17028331756592,121.17028331756592,121.17028331756592,121.17028331756592,122.2016806602478,2,1.1606311798095703,None,,,,,,,,,,,,,,,,,,76,1,2025-02-21_13h17.47.786,comp,2024.2.4,None,2025-02-21 13h18.36.948405 -0500,
35,35,0,filler_square,None,None,None,None,None,None,None,None,None,None,2,2.7391040325164795,None,,,,,0,0,0,0,0,35,35,173,122.2160279750824,,,,,,,,,,,,,,,,,,,,,,,,,,,,,,,,,,,,,,,,,,,,,,,,,,,,,,,,,,,,,,,,,,,,,,,,,,,,,,,,,57.58728293060759,57.9947852839147,60.530494156295894,60.530494156295894,59.78482176893476,59.17743889303382,4.0,4.2,-155,-16,0,-273,156,-18,122.2034866809845,122.20356345176697,122.20681023597717,122.2160279750824,122.3719584941864,122.3719584941864,122.3719584941864,122.3719584941864,122.3719584941864,122.3719584941864,122.3719584941864,124.97302317619324,2,2.7391040325164795,None,,,,,,,,,,,,,,,,,,76,1,2025-02-21_13h17.47.786,comp,2024.2.4,None,2025-02-21 13h18.36.948405 -0500,
36,36,0,critical,hwd,20.0,2.1,upper,200.0,125.0,125.0,200.0,141.0,141.0,1,1.508007287979126,None,,,,,0,0,0,0,0,36,36,43,124.99117469787598,,,,,,,,,,,,,,,,,,,,,,,,,,,,,,,,,,,,,,,,,,,,,,,,,,,,,,,,,,,,,,,,,,,,,,,,,,,,,,,,,200.0,125.0,125.0,200.0,141.0,141.0,2.1,2.12,-258,-283,0,-252,266,278,124.97467732429504,124.97475385665894,124.97825789451599,124.99117469787598,125.1374728679657,125.1374728679657,125.1374728679657,125.1374728679657,125.1374728679657,125.1374728679657,125.1374728679657,126.5111391544342,1,1.508007287979126,None,,,,,,,,,,,,,,,,,,76,1,2025-02-21_13h17.47.786,comp,2024.2.4,None,2025-02-21 13h18.36.948405 -0500,
37,37,0,critical,hdw,35.0,1.0,upper,200.0,125.0,127.0,127.0,125.0,200.0,3,2.1918458938598633,None,,,,,0,0,0,0,0,37,37,109,126.53126311302185,,,,,,,,,,,,,,,,,,,,,,,,,,,,,,,,,,,,,,,,,,,,,,,,,,,,,,,,,,,,,,,,,,,,,,,,,,,,,,,,,200.0,125.0,127.0,127.0,125.0,200.0,1.0,1.3,258,-266,480,-269,740,-273,126.51262307167053,126.51271748542786,126.51554989814758,126.53126311302185,126.67202496528625,126.67202496528625,126.67202496528625,126.67202496528625,126.67202496528625,126.67202496528625,126.67202496528625,128.73928546905518,3,2.1918458938598633,None,,,,,,,,,,,,,,,,,,76,1,2025-02-21_13h17.47.786,comp,2024.2.4,None,2025-02-21 13h18.36.948405 -0500,
38,38,0,critical,hdw,20.0,3.0,lower,133.0,57.0,78.0,78.0,57.0,133.0,3,2.7932937145233154,None,,,,,0,0,0,0,0,38,38,116,128.75416469573975,,,,,,,,,,,,,,,,,,,,,,,,,,,,,,,,,,,,,,,,,,,,,,,,,,,,,,,,,,,,,,,,,,,,,,,,,,,,,,,,,133.0,57.0,78.0,78.0,57.0,133.0,3.0,3.2,-164,-255,0,13,202,287,128.74095845222473,128.74103593826294,128.74448537826538,128.75416469573975,128.9035985469818,128.9035985469818,128.9035985469818,128.9035985469818,128.9035985469818,128.9035985469818,128.9035985469818,131.55806136131287,3,2.7932937145233154,None,,,,,,,,,,,,,,,,,,76,1,2025-02-21_13h17.47.786,comp,2024.2.4,None,2025-02-21 13h18.36.948405 -0500,
39,39,0,filler_square,None,None,None,None,None,None,None,None,None,None,3,1.187978982925415,None,,,,,0,0,0,0,0,39,39,171,131.57632613182068,,,,,,,,,,,,,,,,,,,,,,,,,,,,,,,,,,,,,,,,,,,,,,,,,,,,,,,,,,,,,,,,,,,,,,,,,,,,,,,,,68.16139092905398,61.14107314891942,59.66987443991883,65.18172721123551,104.96899527045105,104.96899527045105,3.0,3.2,-159,-255,0,-10,181,272,131.55993056297302,131.56000971794128,131.5629744529724,131.57632613182068,131.7233371734619,131.7233371734619,131.7233371734619,131.7233371734619,131.7233371734619,131.7233371734619,131.7233371734619,132.77203607559204,3,1.187978982925415,None,,,,,,,,,,,,,,,,,,76,1,2025-02-21_13h17.47.786,comp,2024.2.4,None,2025-02-21 13h18.36.948405 -0500,
40,40,0,critical,whd,20.0,2.1,lower,57.0,133.0,133.0,57.0,78.0,78.0,1,1.3827123641967773,None,,,,,0,0,0,0,0,40,40,38,132.78839826583862,,,,,,,,,,,,,,,,,,,,,,,,,,,,,,,,,,,,,,,,,,,,,,,,,,,,,,,,,,,,,,,,,,,,,,,,,,,,,,,,,57.0,133.0,133.0,57.0,78.0,78.0,2.1,2.11,-191,281,0,269,164,-262,132.77347922325134,132.77355313301086,132.77667832374573,132.78839826583862,132.93913912773132,132.93913912773132,132.93913912773132,132.93913912773132,132.93913912773132,132.93913912773132,132.93913912773132,134.17381644248962,1,1.3827123641967773,None,,,,,,,,,,,,,,,,,,76,1,2025-02-21_13h17.47.786,comp,2024.2.4,None,2025-02-21 13h18.36.948405 -0500,
41,41,0,filler_random,None,None,None,None,None,None,None,None,None,None,2,0.8847482204437256,None,,,,,0,0,0,0,0,41,41,136,134.19031286239624,,,,,,,,,,,,,,,,,,,,,,,,,,,,,,,,,,,,,,,,,,,,,,,,,,,,,,,,,,,,,,,,,,,,,,,,,,,,,,,,,198.7500563468631,101.78752785767765,180.17280006093358,159.8234895421436,75.61596274707263,179.10364139745803,1.0,1.2,-227,-11,0,15,265,-7,134.17547082901,134.17554759979248,134.17954087257385,134.19031286239624,134.34005904197693,134.34005904197693,134.34005904197693,134.34005904197693,134.34005904197693,134.34005904197693,134.34005904197693,135.08954548835754,2,0.8847482204437256,None,,,,,,,,,,,,,,,,,,76,1,2025-02-21_13h17.47.786,comp,2024.2.4,None,2025-02-21 13h18.36.948405 -0500,
42,42,0,filler_random,None,None,None,None,None,None,None,None,None,None,1,0.8218235969543457,None,,,,,0,0,0,0,0,42,42,164,135.10925483703613,,,,,,,,,,,,,,,,,,,,,,,,,,,,,,,,,,,,,,,,,,,,,,,,,,,,,,,,,,,,,,,,,,,,,,,,,,,,,,,,,198.40116060272513,196.42577950358503,192.69953242255193,106.3314123848533,96.57056180558666,134.127328339474,4.0,4.1,-247,-252,0,-6,216,-270,135.09123826026917,135.09131407737732,135.09429359436035,135.10925483703613,135.24260592460632,135.24260592460632,135.24260592460632,135.24260592460632,135.24260592460632,135.24260592460632,135.24260592460632,135.94666957855225,1,0.8218235969543457,None,,,,,,,,,,,,,,,,,,76,1,2025-02-21_13h17.47.786,comp,2024.2.4,None,2025-02-21 13h18.36.948405 -0500,
43,43,0,filler_random,None,None,None,None,None,None,None,None,None,None,3,1.149017333984375,None,,,,,0,0,0,0,0,43,43,163,135.96689581871033,,,,,,,,,,,,,,,,,,,,,,,,,,,,,,,,,,,,,,,,,,,,,,,,,,,,,,,,,,,,,,,,,,,,,,,,,,,,,,,,,62.567691216658766,186.5602496844752,140.43981968988288,64.6032609644445,131.62275621566553,168.63052785333429,2.2,2.21,-222,-267,0,269,213,258,135.94832706451416,135.94840383529663,135.95123028755188,135.96689581871033,136.10722041130066,136.10722041130066,136.10722041130066,136.10722041130066,136.10722041130066,136.10722041130066,136.10722041130066,137.12501573562622,3,1.149017333984375,None,,,,,,,,,,,,,,,,,,76,1,2025-02-21_13h17.47.786,comp,2024.2.4,None,2025-02-21 13h18.36.948405 -0500,
44,44,0,critical,hdw,35.0,4.0,lower,133.0,57.0,70.0,70.0,57.0,133.0,1,1.9667894840240479,None,,,,,0,0,0,0,0,44,44,112,137.14090132713318,,,,,,,,,,,,,,,,,,,,,,,,,,,,,,,,,,,,,,,,,,,,,,,,,,,,,,,,,,,,,,,,,,,,,,,,,,,,,,,,,133.0,57.0,70.0,70.0,57.0,133.0,4.0,4.2,-160,4,0,-288,198,16,137.12649631500244,137.12657284736633,137.12943291664124,137.14090132713318,137.28798651695251,137.28798651695251,137.28798651695251,137.28798651695251,137.28798651695251,137.28798651695251,137.28798651695251,139.12637162208557,1,1.9667894840240479,None,,,,,,,,,,,,,,,,,,76,1,2025-02-21_13h17.47.786,comp,2024.2.4,None,2025-02-21 13h18.36.948405 -0500,
45,45,0,critical,hdw,35.0,2.1,lower,133.0,57.0,70.0,70.0,57.0,133.0,3,1.8528497219085693,None,,,,,0,0,0,0,0,45,45,20,139.14241123199463,,,,,,,,,,,,,,,,,,,,,,,,,,,,,,,,,,,,,,,,,,,,,,,,,,,,,,,,,,,,,,,,,,,,,,,,,,,,,,,,,133.0,57.0,70.0,70.0,57.0,133.0,2.1,2.11,-160,255,0,255,198,-272,139.1280128955841,139.1281442642212,139.132000207901,139.14241123199463,139.29199123382568,139.29199123382568,139.29199123382568,139.29199123382568,139.29199123382568,139.29199123382568,139.29199123382568,140.99808883666992,3,1.8528497219085693,None,,,,,,,,,,,,,,,,,,76,1,2025-02-21_13h17.47.786,comp,2024.2.4,None,2025-02-21 13h18.36.948405 -0500,
46,46,0,critical,dhw,20.0,1.0,lower,78.0,78.0,133.0,57.0,57.0,133.0,3,1.5314877033233643,None,,,,,0,0,0,0,0,46,46,54,141.01618266105652,,,,,,,,,,,,,,,,,,,,,,,,,,,,,,,,,,,,,,,,,,,,,,,,,,,,,,,,,,,,,,,,,,,,,,,,,,,,,,,,,78.0,78.0,133.0,57.0,57.0,133.0,1.0,1.1,-644,258,-480,280,-289,253,140.999605178833,140.99968433380127,141.00298881530762,141.01618266105652,141.16436862945557,141.16436862945557,141.16436862945557,141.16436862945557,141.16436862945557,141.16436862945557,141.16436862945557,142.55615639686584,3,1.5314877033233643,None,,,,,,,,,,,,,,,,,,76,1,2025-02-21_13h17.47.786,comp,2024.2.4,None,2025-02-21 13h18.36.948405 -0500,
47,47,0,filler_random,None,None,None,None,None,None,None,None,None,None,3,1.045236349105835,None,,,,,0,0,0,0,0,47,47,168,142.57375288009644,,,,,,,,,,,,,,,,,,,,,,,,,,,,,,,,,,,,,,,,,,,,,,,,,,,,,,,,,,,,,,,,,,,,,,,,,,,,,,,,,58.38244497882195,121.22886592067212,123.49001836639681,59.42249419037461,197.92497202613512,79.41769955948577,1.0,1.3,294,-260,480,-278,645,-285,142.55790543556213,142.55798316001892,142.56085634231567,142.57375288009644,142.7149519920349,142.7149519920349,142.7149519920349,142.7149519920349,142.7149519920349,142.7149519920349,142.7149519920349,143.63221549987793,3,1.045236349105835,None,,,,,,,,,,,,,,,,,,76,1,2025-02-21_13h17.47.786,comp,2024.2.4,None,2025-02-21 13h18.36.948405 -0500,
48,48,0,critical,hwd,35.0,2.1,lower,133.0,57.0,57.0,133.0,70.0,70.0,2,1.801605463027954,None,,,,,0,0,0,0,0,48,48,16,143.65032649040222,,,,,,,,,,,,,,,,,,,,,,,,,,,,,,,,,,,,,,,,,,,,,,,,,,,,,,,,,,,,,,,,,,,,,,,,,,,,,,,,,133.0,57.0,57.0,133.0,70.0,70.0,2.1,2.12,-191,-273,0,-252,198,282,143.63386726379395,143.633944272995,143.63718271255493,143.65032649040222,143.79715085029602,143.79715085029602,143.79715085029602,143.79715085029602,143.79715085029602,143.79715085029602,143.79715085029602,145.46129488945007,2,1.801605463027954,None,,,,,,,,,,,,,,,,,,76,1,2025-02-21_13h17.47.786,comp,2024.2.4,None,2025-02-21 13h18.36.948405 -0500,
49,49,0,catch,None,None,None,None,None,None,None,None,None,None,1,1.1018435955047607,None,,,,,0,0,0,0,0,49,49,122,145.47741436958313,,,,,,,,,,,,,,,,,,,,,,,,,,,,,,,,,,,,,,,,,,,,,,,,,,,,,,,,,,,,,,,,,,,,,,,,,,,,,,,,,197,128,63,127,65,125,2.2,2.21,-224,-274,0,256,222,276,145.46326112747192,145.4633388519287,145.46654844284058,145.47741436958313,145.6292245388031,145.6292245388031,145.6292245388031,145.6292245388031,145.6292245388031,145.6292245388031,145.6292245388031,146.59496092796326,1,1.1018435955047607,None,,,,,,,,,,,,,,,,,,76,1,2025-02-21_13h17.47.786,comp,2024.2.4,None,2025-02-21 13h18.36.948405 -0500,
50,50,0,critical,whd,20.0,2.1,lower,57.0,133.0,133.0,57.0,78.0,78.0,1,2.545337438583374,None,,,,,0,0,0,0,0,50,50,14,146.6103003025055,,,,,,,,,,,,,,,,,,,,,,,,,,,,,,,,,,,,,,,,,,,,,,,,,,,,,,,,,,,,,,,,,,,,,,,,,,,,,,,,,57.0,133.0,133.0,57.0,78.0,78.0,2.1,2.11,-191,276,0,265,164,-278,146.59649896621704,146.59657335281372,146.59966254234314,146.6103003025055,146.7665822505951,146.7665822505951,146.7665822505951,146.7665822505951,146.7665822505951,146.7665822505951,146.7665822505951,149.16174626350403,1,2.545337438583374,None,,,,,,,,,,,,,,,,,,76,1,2025-02-21_13h17.47.786,comp,2024.2.4,None,2025-02-21 13h18.36.948405 -0500,
51,51,0,critical,hwd,35.0,2.1,upper,200.0,125.0,125.0,200.0,127.0,127.0,2,4.521524906158447,None,,,,,0,0,0,0,0,51,51,41,149.17840766906738,,,,,,,,,,,,,,,,,,,,,,,,,,,,,,,,,,,,,,,,,,,,,,,,,,,,,,,,,,,,,,,,,,,,,,,,,,,,,,,,,200.0,125.0,125.0,200.0,127.0,127.0,2.1,2.12,-258,-254,0,-259,260,261,149.16329908370972,149.16337776184082,149.16738152503967,149.17840766906738,149.32873129844666,149.32873129844666,149.32873129844666,149.32873129844666,149.32873129844666,149.32873129844666,149.32873129844666,153.70643544197083,2,4.521524906158447,None,,,,,,,,,,,,,,,,,,76,1,2025-02-21_13h17.47.786,comp,2024.2.4,None,2025-02-21 13h18.36.948405 -0500,
52,52,0,critical,hdw,20.0,2.1,lower,133.0,57.0,78.0,78.0,57.0,133.0,3,2.7811636924743652,None,,,,,0,0,0,0,0,52,52,22,153.72674107551575,,,,,,,,,,,,,,,,,,,,,,,,,,,,,,,,,,,,,,,,,,,,,,,,,,,,,,,,,,,,,,,,,,,,,,,,,,,,,,,,,133.0,57.0,78.0,78.0,57.0,133.0,2.1,2.11,-164,257,0,286,202,-271,153.70799565315247,153.70807337760925,153.71088576316833,153.72674107551575,153.86157417297363,153.86157417297363,153.86157417297363,153.86157417297363,153.86157417297363,153.86157417297363,153.86157417297363,156.51536989212036,3,2.7811636924743652,None,,,,,,,,,,,,,,,,,,76,1,2025-02-21_13h17.47.786,comp,2024.2.4,None,2025-02-21 13h18.36.948405 -0500,
53,53,0,critical,dhw,35.0,4.0,upper,127.0,127.0,200.0,125.0,125.0,200.0,3,1.8316190242767334,None,,,,,0,0,0,0,0,53,53,53,156.53180623054504,,,,,,,,,,,,,,,,,,,,,,,,,,,,,,,,,,,,,,,,,,,,,,,,,,,,,,,,,,,,,,,,,,,,,,,,,,,,,,,,,127.0,127.0,200.0,125.0,125.0,200.0,4.0,4.1,-222,-260,0,9,258,-255,156.5170614719391,156.5171399116516,156.52093815803528,156.53180623054504,156.68049573898315,156.68049573898315,156.68049573898315,156.68049573898315,156.68049573898315,156.68049573898315,156.68049573898315,158.3684298992157,3,1.8316190242767334,None,,,,,,,,,,,,,,,,,,76,1,2025-02-21_13h17.47.786,comp,2024.2.4,None,2025-02-21 13h18.36.948405 -0500,
54,54,0,critical,whd,35.0,4.0,upper,125.0,200.0,200.0,125.0,127.0,127.0,1,1.8093781471252441,None,,,,,0,0,0,0,0,54,54,89,158.38593244552612,,,,,,,,,,,,,,,,,,,,,,,,,,,,,,,,,,,,,,,,,,,,,,,,,,,,,,,,,,,,,,,,,,,,,,,,,,,,,,,,,125.0,200.0,200.0,125.0,127.0,127.0,4.0,4.2,-258,17,0,-264,222,8,158.36993432044983,158.3700110912323,158.37281608581543,158.38593244552612,158.5321033000946,158.5321033000946,158.5321033000946,158.5321033000946,158.5321033000946,158.5321033000946,158.5321033000946,160.2145721912384,1,1.8093781471252441,None,,,,,,,,,,,,,,,,,,76,1,2025-02-21_13h17.47.786,comp,2024.2.4,None,2025-02-21 13h18.36.948405 -0500,
55,55,0,critical,wdh,20.0,4.0,lower,57.0,133.0,78.0,78.0,133.0,57.0,1,2.0207700729370117,None,,,,,0,0,0,0,0,55,55,82,160.23034071922302,,,,,,,,,,,,,,,,,,,,,,,,,,,,,,,,,,,,,,,,,,,,,,,,,,,,,,,,,,,,,,,,,,,,,,,,,,,,,,,,,57.0,133.0,78.0,78.0,133.0,57.0,4.0,4.2,-202,-9,0,-282,164,6,160.21622467041016,160.2163007259369,160.21964693069458,160.23034071922302,160.38420820236206,160.38420820236206,160.38420820236206,160.38420820236206,160.38420820236206,160.38420820236206,160.38420820236206,162.2680904865265,1,2.0207700729370117,None,,,,,,,,,,,,,,,,,,76,1,2025-02-21_13h17.47.786,comp,2024.2.4,None,2025-02-21 13h18.36.948405 -0500,
56,56,0,filler_square,None,None,None,None,None,None,None,None,None,None,1,1.0953564643859863,None,,,,,0,0,0,0,0,56,56,202,162.28412675857544,,,,,,,,,,,,,,,,,,,,,,,,,,,,,,,,,,,,,,,,,,,,,,,,,,,,,,,,,,,,,,,,,,,,,,,,,,,,,,,,,128.44574149565688,128.44574149565688,81.24020663576839,70.48858180184222,57.120485625554174,91.27568139160218,4.0,4.2,-195,7,0,-289,177,-18,162.27007961273193,162.27015948295593,162.2734956741333,162.28412675857544,162.43246173858643,162.43246173858643,162.43246173858643,162.43246173858643,162.43246173858643,162.43246173858643,162.43246173858643,163.38158130645752,1,1.0953564643859863,None,,,,,,,,,,,,,,,,,,76,1,2025-02-21_13h17.47.786,comp,2024.2.4,None,2025-02-21 13h18.36.948405 -0500,
57,57,0,critical,dwh,20.0,3.0,lower,78.0,78.0,57.0,133.0,133.0,57.0,2,1.5655627250671387,None,,,,,0,0,0,0,0,57,57,68,163.3984293937683,,,,,,,,,,,,,,,,,,,,,,,,,,,,,,,,,,,,,,,,,,,,,,,,,,,,,,,,,,,,,,,,,,,,,,,,,,,,,,,,,78.0,78.0,57.0,133.0,133.0,57.0,3.0,3.2,-202,-288,0,-4,191,285,163.38326239585876,163.38333940505981,163.38671112060547,163.3984293937683,163.53767228126526,163.53767228126526,163.53767228126526,163.53767228126526,163.53767228126526,163.53767228126526,163.53767228126526,164.96640253067017,2,1.5655627250671387,None,,,,,,,,,,,,,,,,,,76,1,2025-02-21_13h17.47.786,comp,2024.2.4,None,2025-02-21 13h18.36.948405 -0500,
58,58,0,filler_square,None,None,None,None,None,None,None,None,None,None,1,0.9085628986358643,None,,,,,0,0,0,0,0,58,58,200,164.98256087303162,,,,,,,,,,,,,,,,,,,,,,,,,,,,,,,,,,,,,,,,,,,,,,,,,,,,,,,,,,,,,,,,,,,,,,,,,,,,,,,,,98.67382837323663,98.67382837323663,77.79971804349586,96.70333056104123,68.06329142061989,82.6027991144785,1.0,1.3,286,-280,480,-265,666,-266,164.96818470954895,164.96826124191284,164.97157549858093,164.98256087303162,165.13312029838562,165.13312029838562,165.13312029838562,165.13312029838562,165.13312029838562,165.13312029838562,165.13312029838562,165.90683341026306,1,0.9085628986358643,None,,,,,,,,,,,,,,,,,,76,1,2025-02-21_13h17.47.786,comp,2024.2.4,None,2025-02-21 13h18.36.948405 -0500,
59,59,0,critical,dwh,35.0,4.0,upper,127.0,127.0,125.0,200.0,200.0,125.0,3,2.353440999984741,None,,,,,0,0,0,0,0,59,59,65,165.92258954048157,,,,,,,,,,,,,,,,,,,,,,,,,,,,,,,,,,,,,,,,,,,,,,,,,,,,,,,,,,,,,,,,,,,,,,,,,,,,,,,,,127.0,127.0,125.0,200.0,200.0,125.0,4.0,4.1,-260,-275,0,-18,258,-263,165.90838718414307,165.90846180915833,165.91134452819824,165.92258954048157,166.06501865386963,166.06501865386963,166.06501865386963,166.06501865386963,166.06501865386963,166.06501865386963,166.06501865386963,168.28104877471924,3,2.353440999984741,None,,,,,,,,,,,,,,,,,,76,1,2025-02-21_13h17.47.786,comp,2024.2.4,None,2025-02-21 13h18.36.948405 -0500,
60,60,0,filler_random,None,None,None,None,None,None,None,None,None,None,3,0.9615120887756348,None,,,,,0,0,0,0,0,60,60,130,168.29847192764282,,,,,,,,,,,,,,,,,,,,,,,,,,,,,,,,,,,,,,,,,,,,,,,,,,,,,,,,,,,,,,,,,,,,,,,,,,,,,,,,,139.8332690542184,160.9735506775224,63.16768913777909,135.67871912916368,159.30064884832817,181.56750902728643,1.0,1.1,-724,271,-480,280,-225,250,168.28271079063416,168.28281474113464,168.28561162948608,168.29847192764282,168.43340158462524,168.43340158462524,168.43340158462524,168.43340158462524,168.43340158462524,168.43340158462524,168.43340158462524,169.26798558235168,3,0.9615120887756348,None,,,,,,,,,,,,,,,,,,76,1,2025-02-21_13h17.47.786,comp,2024.2.4,None,2025-02-21 13h18.36.948405 -0500,
61,61,0,critical,whd,20.0,1.0,lower,57.0,133.0,133.0,57.0,78.0,78.0,1,3.511960029602051,None,,,,,0,0,0,0,0,61,61,90,169.283593416214,,,,,,,,,,,,,,,,,,,,,,,,,,,,,,,,,,,,,,,,,,,,,,,,,,,,,,,,,,,,,,,,,,,,,,,,,,,,,,,,,57.0,133.0,133.0,57.0,78.0,78.0,1.0,1.2,-191,-7,0,18,164,-5,169.2694706916809,169.2695472240448,169.2728717327118,169.283593416214,169.43479752540588,169.43479752540588,169.43479752540588,169.43479752540588,169.43479752540588,169.43479752540588,169.43479752540588,172.80458068847656,1,3.511960029602051,None,,,,,,,,,,,,,,,,,,76,1,2025-02-21_13h17.47.786,comp,2024.2.4,None,2025-02-21 13h18.36.948405 -0500,
62,62,0,critical,hdw,20.0,1.0,upper,200.0,125.0,141.0,141.0,125.0,200.0,3,3.2832813262939453,None,,,,,0,0,0,0,0,62,62,115,172.82398867607117,,,,,,,,,,,,,,,,,,,,,,,,,,,,,,,,,,,,,,,,,,,,,,,,,,,,,,,,,,,,,,,,,,,,,,,,,,,,,,,,,200.0,125.0,141.0,141.0,125.0,200.0,1.0,1.1,-709,263,-480,262,-214,276,172.80650806427002,172.80663990974426,172.80964136123657,172.82398867607117,172.96941542625427,172.96941542625427,172.96941542625427,172.96941542625427,172.96941542625427,172.96941542625427,172.96941542625427,176.1270604133606,3,3.2832813262939453,None,,,,,,,,,,,,,,,,,,76,1,2025-02-21_13h17.47.786,comp,2024.2.4,None,2025-02-21 13h18.36.948405 -0500,
63,63,0,filler_random,None,None,None,None,None,None,None,None,None,None,2,0.9419431686401367,None,,,,,0,0,0,0,0,63,63,146,176.14200854301453,,,,,,,,,,,,,,,,,,,,,,,,,,,,,,,,,,,,,,,,,,,,,,,,,,,,,,,,,,,,,,,,,,,,,,,,,,,,,,,,,80.96488430058852,91.87938414059623,194.017317247543,176.9742685973742,144.58590176730337,107.28616669367102,2.2,2.21,-230,-277,0,259,238,269,176.1286838054657,176.12877488136292,176.1315574645996,176.14200854301453,176.2870512008667,176.2870512008667,176.2870512008667,176.2870512008667,176.2870512008667,176.2870512008667,176.2870512008667,177.08828592300415,2,0.9419431686401367,None,,,,,,,,,,,,,,,,,,76,1,2025-02-21_13h17.47.786,comp,2024.2.4,None,2025-02-21 13h18.36.948405 -0500,
64,64,0,filler_square,None,None,None,None,None,None,None,None,None,None,3,1.1228766441345215,None,,,,,0,0,0,0,0,64,64,195,177.10507035255432,,,,,,,,,,,,,,,,,,,,,,,,,,,,,,,,,,,,,,,,,,,,,,,,,,,,,,,,,,,,,,,,,,,,,,,,,,,,,,,,,80.3014510791024,132.11653576385316,162.57706270570387,160.07822224992213,184.4815059253596,184.4815059253596,4.0,4.1,-242,-256,0,9,268,-262,177.09025168418884,177.09033012390137,177.0941858291626,177.10507035255432,177.25356698036194,177.25356698036194,177.25356698036194,177.25356698036194,177.25356698036194,177.25356698036194,177.25356698036194,178.23650646209717,3,1.1228766441345215,None,,,,,,,,,,,,,,,,,,76,1,2025-02-21_13h17.47.786,comp,2024.2.4,None,2025-02-21 13h18.36.948405 -0500,
65,65,0,filler_square,None,None,None,None,None,None,None,None,None,None,1,0.8761751651763916,None,,,,,0,0,0,0,0,65,65,172,178.25561141967773,,,,,,,,,,,,,,,,,,,,,,,,,,,,,,,,,,,,,,,,,,,,,,,,,,,,,,,,,,,,,,,,,,,,,,,,,,,,,,,,,164.69267387657203,164.69267387657203,68.9694414387663,119.6215100059069,85.63976298014725,130.61494011589582,3.0,3.1,-238,279,0,12,221,-282,178.238272190094,178.23834919929504,178.2414629459381,178.25561141967773,178.40387511253357,178.40387511253357,178.40387511253357,178.40387511253357,178.40387511253357,178.40387511253357,178.40387511253357,179.13972115516663,1,0.8761751651763916,None,,,,,,,,,,,,,,,,,,76,1,2025-02-21_13h17.47.786,comp,2024.2.4,None,2025-02-21 13h18.36.948405 -0500,
66,66,0,critical,hwd,35.0,3.0,lower,133.0,57.0,57.0,133.0,70.0,70.0,2,0.9520041942596436,None,,,,,0,0,0,0,0,66,66,98,179.15524983406067,,,,,,,,,,,,,,,,,,,,,,,,,,,,,,,,,,,,,,,,,,,,,,,,,,,,,,,,,,,,,,,,,,,,,,,,,,,,,,,,,133.0,57.0,57.0,133.0,70.0,70.0,3.0,3.1,-191,261,0,-12,198,-287,179.14138460159302,179.1414613723755,179.14434623718262,179.15524983406067,179.30411100387573,179.30411100387573,179.30411100387573,179.30411100387573,179.30411100387573,179.30411100387573,179.30411100387573,180.12021398544312,2,0.9520041942596436,None,,,,,,,,,,,,,,,,,,76,1,2025-02-21_13h17.47.786,comp,2024.2.4,None,2025-02-21 13h18.36.948405 -0500,
67,67,0,filler_random,None,None,None,None,None,None,None,None,None,None,3,1.2034671306610107,None,,,,,0,0,0,0,0,67,67,154,180.1359040737152,,,,,,,,,,,,,,,,,,,,,,,,,,,,,,,,,,,,,,,,,,,,,,,,,,,,,,,,,,,,,,,,,,,,,,,,,,,,,,,,,124.89189100851597,171.5809016511335,133.56621255249496,89.27668688479999,173.25982204555697,145.9356028036113,2.1,2.12,-226,-268,0,-259,214,250,180.12201619148254,180.12213039398193,180.1253321170807,180.1359040737152,180.2842743396759,180.2842743396759,180.2842743396759,180.2842743396759,180.2842743396759,180.2842743396759,180.2842743396759,181.3655605316162,3,1.2034671306610107,None,,,,,,,,,,,,,,,,,,76,1,2025-02-21_13h17.47.786,comp,2024.2.4,None,2025-02-21 13h18.36.948405 -0500,
68,68,0,critical,dhw,20.0,2.1,upper,141.0,141.0,200.0,125.0,125.0,200.0,3,0.9399096965789795,None,,,,,0,0,0,0,0,68,68,27,181.38343811035156,,,,,,,,,,,,,,,,,,,,,,,,,,,,,,,,,,,,,,,,,,,,,,,,,,,,,,,,,,,,,,,,,,,,,,,,,,,,,,,,,141.0,141.0,200.0,125.0,125.0,200.0,2.1,2.12,-229,-272,0,-263,258,284,181.36724877357483,181.36732292175293,181.3705348968506,181.38343811035156,181.52166724205017,181.52166724205017,181.52166724205017,181.52166724205017,181.52166724205017,181.52166724205017,181.52166724205017,182.34158372879028,3,0.9399096965789795,None,,,,,,,,,,,,,,,,,,76,1,2025-02-21_13h17.47.786,comp,2024.2.4,None,2025-02-21 13h18.36.948405 -0500,
69,69,0,filler_random,None,None,None,None,None,None,None,None,None,None,2,1.2676215171813965,None,,,,,0,0,0,0,0,69,69,143,182.35955333709717,,,,,,,,,,,,,,,,,,,,,,,,,,,,,,,,,,,,,,,,,,,,,,,,,,,,,,,,,,,,,,,,,,,,,,,,,,,,,,,,,123.0785733428723,68.07003019255428,182.1881453174434,134.79154313268805,125.06992118611944,150.40973176368453,4.0,4.2,-197,-12,0,-281,239,8,182.34336280822754,182.3434407711029,182.3464012145996,182.35955333709717,182.505464553833,182.505464553833,182.505464553833,182.505464553833,182.505464553833,182.505464553833,182.505464553833,183.64364647865295,2,1.2676215171813965,None,,,,,,,,,,,,,,,,,,76,1,2025-02-21_13h17.47.786,comp,2024.2.4,None,2025-02-21 13h18.36.948405 -0500,
70,70,0,filler_square,None,None,None,None,None,None,None,None,None,None,3,1.1597511768341064,None,,,,,0,0,0,0,0,70,70,170,183.65953969955444,,,,,,,,,,,,,,,,,,,,,,,,,,,,,,,,,,,,,,,,,,,,,,,,,,,,,,,,,,,,,,,,,,,,,,,,,,,,,,,,,66.18140351615426,57.49504953009286,69.38578488002824,60.554754249418444,70.8047049236474,70.8047049236474,1.0,1.2,-155,6,0,-20,162,3,183.64565992355347,183.64582133293152,183.6491551399231,183.65953969955444,183.80492734909058,183.80492734909058,183.80492734909058,183.80492734909058,183.80492734909058,183.80492734909058,183.80492734909058,184.82369256019592,3,1.1597511768341064,None,,,,,,,,,,,,,,,,,,76,1,2025-02-21_13h17.47.786,comp,2024.2.4,None,2025-02-21 13h18.36.948405 -0500,
71,71,0,critical,dwh,20.0,1.0,upper,141.0,141.0,125.0,200.0,200.0,125.0,3,3.8946239948272705,None,,,,,0,0,0,0,0,71,71,67,184.84479069709778,,,,,,,,,,,,,,,,,,,,,,,,,,,,,,,,,,,,,,,,,,,,,,,,,,,,,,,,,,,,,,,,,,,,,,,,,,,,,,,,,141.0,141.0,125.0,200.0,200.0,125.0,1.0,1.3,214,-253,480,-262,738,-275,184.8252396583557,184.82531428337097,184.82885026931763,184.84479069709778,184.97635555267334,184.97635555267334,184.97635555267334,184.97635555267334,184.97635555267334,184.97635555267334,184.97635555267334,188.75628113746643,3,3.8946239948272705,None,,,,,,,,,,,,,,,,,,76,1,2025-02-21_13h17.47.786,comp,2024.2.4,None,2025-02-21 13h18.36.948405 -0500,
72,72,0,critical,wdh,35.0,1.0,lower,57.0,133.0,70.0,70.0,133.0,57.0,1,0.9988846778869629,None,,,,,0,0,0,0,0,72,72,72,188.77289986610413,,,,,,,,,,,,,,,,,,,,,,,,,,,,,,,,,,,,,,,,,,,,,,,,,,,,,,,,,,,,,,,,,,,,,,,,,,,,,,,,,57.0,133.0,70.0,70.0,133.0,57.0,1.0,1.3,282,-273,480,-281,640,-255,188.75789427757263,188.75796842575073,188.76133227348328,188.77289986610413,188.9269893169403,188.9269893169403,188.9269893169403,188.9269893169403,188.9269893169403,188.9269893169403,188.9269893169403,189.77749681472778,1,0.9988846778869629,None,,,,,,,,,,,,,,,,,,76,1,2025-02-21_13h17.47.786,comp,2024.2.4,None,2025-02-21 13h18.36.948405 -0500,
73,73,0,critical,wdh,20.0,3.0,lower,57.0,133.0,78.0,78.0,133.0,57.0,1,2.8020381927490234,None,,,,,0,0,0,0,0,73,73,80,189.79340624809265,,,,,,,,,,,,,,,,,,,,,,,,,,,,,,,,,,,,,,,,,,,,,,,,,,,,,,,,,,,,,,,,,,,,,,,,,,,,,,,,,57.0,133.0,78.0,78.0,133.0,57.0,3.0,3.1,-202,259,0,5,164,-268,189.77905535697937,189.77913093566895,189.78247141838074,189.79340624809265,189.94088673591614,189.94088673591614,189.94088673591614,189.94088673591614,189.94088673591614,189.94088673591614,189.94088673591614,192.61249232292175,1,2.8020381927490234,None,,,,,,,,,,,,,,,,,,76,1,2025-02-21_13h17.47.786,comp,2024.2.4,None,2025-02-21 13h18.36.948405 -0500,
74,74,0,critical,dhw,20.0,4.0,lower,78.0,78.0,133.0,57.0,57.0,133.0,3,1.84712553024292,None,,,,,0,0,0,0,0,74,74,58,192.62838411331177,,,,,,,,,,,,,,,,,,,,,,,,,,,,,,,,,,,,,,,,,,,,,,,,,,,,,,,,,,,,,,,,,,,,,,,,,,,,,,,,,78.0,78.0,133.0,57.0,57.0,133.0,4.0,4.1,-164,-278,0,16,191,-261,192.61415243148804,192.61422991752625,192.61716270446777,192.62838411331177,192.7744631767273,192.7744631767273,192.7744631767273,192.7744631767273,192.7744631767273,192.7744631767273,192.7744631767273,194.47793769836426,3,1.84712553024292,None,,,,,,,,,,,,,,,,,,76,1,2025-02-21_13h17.47.786,comp,2024.2.4,None,2025-02-21 13h18.36.948405 -0500,
75,75,0,catch,None,None,None,None,None,None,None,None,None,None,1,1.0440280437469482,None,,,,,0,0,0,0,0,75,75,124,194.49519324302673,,,,,,,,,,,,,,,,,,,,,,,,,,,,,,,,,,,,,,,,,,,,,,,,,,,,,,,,,,,,,,,,,,,,,,,,,,,,,,,,,195,130,80,110,87,103,2.2,2.21,-216,-276,0,285,202,250,194.48008251190186,194.48016452789307,194.48339438438416,194.49519324302673,194.6450183391571,194.6450183391571,194.6450183391571,194.6450183391571,194.6450183391571,194.6450183391571,194.6450183391571,195.54254961013794,1,1.0440280437469482,None,,,,,,,,,,,,,,,,,,76,1,2025-02-21_13h17.47.786,comp,2024.2.4,None,2025-02-21 13h18.36.948405 -0500,
76,76,0,filler_random,None,None,None,None,None,None,None,None,None,None,2,0.8842000961303711,None,,,,,0,0,0,0,0,76,76,166,195.55914449691772,,,,,,,,,,,,,,,,,,,,,,,,,,,,,,,,,,,,,,,,,,,,,,,,,,,,,,,,,,,,,,,,,,,,,,,,,,,,,,,,,71.60792492840766,198.9183918989726,190.03911371172316,147.21216921005276,137.5299931398618,114.15430284269527,3.0,3.1,-269,255,0,-16,227,-252,195.5444037914276,195.54451036453247,195.5480182170868,195.55914449691772,195.7088177204132,195.7088177204132,195.7088177204132,195.7088177204132,195.7088177204132,195.7088177204132,195.7088177204132,196.44762921333313,2,0.8842000961303711,None,,,,,,,,,,,,,,,,,,76,1,2025-02-21_13h17.47.786,comp,2024.2.4,None,2025-02-21 13h18.36.948405 -0500,
77,77,0,critical,hdw,35.0,3.0,lower,133.0,57.0,70.0,70.0,57.0,133.0,3,1.217027187347412,None,,,,,0,0,0,0,0,77,77,110,196.46683883666992,,,,,,,,,,,,,,,,,,,,,,,,,,,,,,,,,,,,,,,,,,,,,,,,,,,,,,,,,,,,,,,,,,,,,,,,,,,,,,,,,133.0,57.0,70.0,70.0,57.0,133.0,3.0,3.1,-160,273,0,5,198,-276,196.4491250514984,196.44920229911804,196.45204424858093,196.46683883666992,196.6106460094452,196.6106460094452,196.6106460094452,196.6106460094452,196.6106460094452,196.6106460094452,196.6106460094452,197.69350838661194,3,1.217027187347412,None,,,,,,,,,,,,,,,,,,76,1,2025-02-21_13h17.47.786,comp,2024.2.4,None,2025-02-21 13h18.36.948405 -0500,
78,78,0,critical,hwd,20.0,3.0,upper,200.0,125.0,125.0,200.0,141.0,141.0,2,0.918097734451294,None,,,,,0,0,0,0,0,78,78,105,197.70920753479004,,,,,,,,,,,,,,,,,,,,,,,,,,,,,,,,,,,,,,,,,,,,,,,,,,,,,,,,,,,,,,,,,,,,,,,,,,,,,,,,,200.0,125.0,125.0,200.0,141.0,141.0,3.0,3.2,-258,-279,0,3,266,254,197.69499015808105,197.6950662136078,197.69839715957642,197.70920753479004,197.8588662147522,197.8588662147522,197.8588662147522,197.8588662147522,197.8588662147522,197.8588662147522,197.8588662147522,198.64309644699097,2,0.918097734451294,None,,,,,,,,,,,,,,,,,,76,1,2025-02-21_13h17.47.786,comp,2024.2.4,None,2025-02-21 13h18.36.948405 -0500,
79,79,0,critical,whd,20.0,3.0,upper,125.0,200.0,200.0,125.0,141.0,141.0,1,1.4603307247161865,None,,,,,0,0,0,0,0,79,79,93,198.66292333602905,,,,,,,,,,,,,,,,,,,,,,,,,,,,,,,,,,,,,,,,,,,,,,,,,,,,,,,,,,,,,,,,,,,,,,,,,,,,,,,,,125.0,200.0,200.0,125.0,141.0,141.0,3.0,3.2,-258,-273,0,4,229,270,198.64456057548523,198.64464712142944,198.64760303497314,198.66292333602905,198.81052947044373,198.81052947044373,198.81052947044373,198.81052947044373,198.81052947044373,198.81052947044373,198.81052947044373,200.1282308101654,1,1.4603307247161865,None,,,,,,,,,,,,,,,,,,76,1,2025-02-21_13h17.47.786,comp,2024.2.4,None,2025-02-21 13h18.36.948405 -0500,
80,80,0,critical,hwd,35.0,2.1,upper,200.0,125.0,125.0,200.0,127.0,127.0,2,2.283201217651367,None,,,,,0,0,0,0,0,80,80,17,200.14436984062195,,,,,,,,,,,,,,,,,,,,,,,,,,,,,,,,,,,,,,,,,,,,,,,,,,,,,,,,,,,,,,,,,,,,,,,,,,,,,,,,,200.0,125.0,125.0,200.0,127.0,127.0,2.1,2.12,-258,-261,0,-269,260,278,200.12984919548035,200.12998938560486,200.13349604606628,200.14436984062195,200.29542922973633,200.29542922973633,200.29542922973633,200.29542922973633,200.29542922973633,200.29542922973633,200.29542922973633,202.44493865966797,2,2.283201217651367,None,,,,,,,,,,,,,,,,,,76,1,2025-02-21_13h17.47.786,comp,2024.2.4,None,2025-02-21 13h18.36.948405 -0500,
81,81,0,critical,dhw,35.0,2.1,upper,127.0,127.0,200.0,125.0,125.0,200.0,3,1.0950093269348145,None,,,,,0,0,0,0,0,81,81,1,202.46026992797852,,,,,,,,,,,,,,,,,,,,,,,,,,,,,,,,,,,,,,,,,,,,,,,,,,,,,,,,,,,,,,,,,,,,,,,,,,,,,,,,,127.0,127.0,200.0,125.0,125.0,200.0,2.1,2.12,-222,-258,0,-254,258,271,202.44639825820923,202.44647121429443,202.44994163513184,202.46026992797852,202.61160516738892,202.61160516738892,202.61160516738892,202.61160516738892,202.61160516738892,202.61160516738892,202.61160516738892,203.57145619392395,3,1.0950093269348145,None,,,,,,,,,,,,,,,,,,76,1,2025-02-21_13h17.47.786,comp,2024.2.4,None,2025-02-21 13h18.36.948405 -0500,
82,82,0,critical,dhw,35.0,4.0,lower,70.0,70.0,133.0,57.0,57.0,133.0,3,1.2714283466339111,None,,,,,0,0,0,0,0,82,82,52,203.5883183479309,,,,,,,,,,,,,,,,,,,,,,,,,,,,,,,,,,,,,,,,,,,,,,,,,,,,,,,,,,,,,,,,,,,,,,,,,,,,,,,,,70.0,70.0,133.0,57.0,57.0,133.0,4.0,4.1,-160,-259,0,-4,191,-277,203.57291889190674,203.5729944705963,203.5757896900177,203.5883183479309,203.72985935211182,203.72985935211182,203.72985935211182,203.72985935211182,203.72985935211182,203.72985935211182,203.72985935211182,204.86242866516113,3,1.2714283466339111,None,,,,,,,,,,,,,,,,,,76,1,2025-02-21_13h17.47.786,comp,2024.2.4,None,2025-02-21 13h18.36.948405 -0500,
83,83,0,critical,dhw,35.0,3.0,lower,70.0,70.0,133.0,57.0,57.0,133.0,3,0.9000208377838135,None,,,,,0,0,0,0,0,83,83,50,204.87908387184143,,,,,,,,,,,,,,,,,,,,,,,,,,,,,,,,,,,,,,,,,,,,,,,,,,,,,,,,,,,,,,,,,,,,,,,,,,,,,,,,,70.0,70.0,133.0,57.0,57.0,133.0,3.0,3.1,-160,269,0,-2,191,-272,204.8640558719635,204.8641321659088,204.86783027648926,204.87908387184143,205.03278589248657,205.03278589248657,205.03278589248657,205.03278589248657,205.03278589248657,205.03278589248657,205.03278589248657,205.79554319381714,3,0.9000208377838135,None,,,,,,,,,,,,,,,,,,76,1,2025-02-21_13h17.47.786,comp,2024.2.4,None,2025-02-21 13h18.36.948405 -0500,
84,84,0,critical,hdw,20.0,4.0,lower,133.0,57.0,78.0,78.0,57.0,133.0,3,1.3198444843292236,None,,,,,0,0,0,0,0,84,84,118,205.8113272190094,,,,,,,,,,,,,,,,,,,,,,,,,,,,,,,,,,,,,,,,,,,,,,,,,,,,,,,,,,,,,,,,,,,,,,,,,,,,,,,,,133.0,57.0,78.0,78.0,57.0,133.0,4.0,4.1,-164,-262,0,-9,202,-286,205.79702615737915,205.79710340499878,205.80043053627014,205.8113272190094,205.9603235721588,205.9603235721588,205.9603235721588,205.9603235721588,205.9603235721588,205.9603235721588,205.9603235721588,207.1470239162445,3,1.3198444843292236,None,,,,,,,,,,,,,,,,,,76,1,2025-02-21_13h17.47.786,comp,2024.2.4,None,2025-02-21 13h18.36.948405 -0500,
85,85,0,critical,hdw,35.0,2.1,upper,200.0,125.0,127.0,127.0,125.0,200.0,1,1.8157341480255127,None,,,,,0,0,0,0,0,85,85,45,207.16362953186035,,,,,,,,,,,,,,,,,,,,,,,,,,,,,,,,,,,,,,,,,,,,,,,,,,,,,,,,,,,,,,,,,,,,,,,,,,,,,,,,,200.0,125.0,127.0,127.0,125.0,200.0,2.1,2.12,-222,-288,0,-285,260,277,207.14862060546875,207.1486976146698,207.1522879600525,207.16362953186035,207.31184005737305,207.31184005737305,207.31184005737305,207.31184005737305,207.31184005737305,207.31184005737305,207.31184005737305,208.98311948776245,1,1.8157341480255127,None,,,,,,,,,,,,,,,,,,76,1,2025-02-21_13h17.47.786,comp,2024.2.4,None,2025-02-21 13h18.36.948405 -0500,
86,86,0,critical,wdh,35.0,2.1,lower,57.0,133.0,70.0,70.0,133.0,57.0,1,2.091063976287842,None,,,,,0,0,0,0,0,86,86,8,209.00086283683777,,,,,,,,,,,,,,,,,,,,,,,,,,,,,,,,,,,,,,,,,,,,,,,,,,,,,,,,,,,,,,,,,,,,,,,,,,,,,,,,,57.0,133.0,70.0,70.0,133.0,57.0,2.1,2.11,-198,275,0,256,160,-253,208.98474073410034,208.9848449230194,208.98764967918396,209.00086283683777,209.14616131782532,209.14616131782532,209.14616131782532,209.14616131782532,209.14616131782532,209.14616131782532,209.14616131782532,211.0966076850891,1,2.091063976287842,None,,,,,,,,,,,,,,,,,,76,1,2025-02-21_13h17.47.786,comp,2024.2.4,None,2025-02-21 13h18.36.948405 -0500,
87,87,0,critical,wdh,20.0,2.1,lower,57.0,133.0,78.0,78.0,133.0,57.0,3,2.6507303714752197,None,,,,,0,0,0,0,0,87,87,34,211.11303234100342,,,,,,,,,,,,,,,,,,,,,,,,,,,,,,,,,,,,,,,,,,,,,,,,,,,,,,,,,,,,,,,,,,,,,,,,,,,,,,,,,57.0,133.0,78.0,78.0,133.0,57.0,2.1,2.11,-202,278,0,277,164,-261,211.0980565547943,211.0981321334839,211.1012635231018,211.11303234100342,211.2611927986145,211.2611927986145,211.2611927986145,211.2611927986145,211.2611927986145,211.2611927986145,211.2611927986145,213.76709961891174,3,2.6507303714752197,None,,,,,,,,,,,,,,,,,,76,1,2025-02-21_13h17.47.786,comp,2024.2.4,None,2025-02-21 13h18.36.948405 -0500,
88,88,0,critical,wdh,20.0,1.0,upper,125.0,200.0,141.0,141.0,200.0,125.0,3,1.9809415340423584,None,,,,,0,0,0,0,0,88,88,79,213.78268599510193,,,,,,,,,,,,,,,,,,,,,,,,,,,,,,,,,,,,,,,,,,,,,,,,,,,,,,,,,,,,,,,,,,,,,,,,,,,,,,,,,125.0,200.0,141.0,141.0,200.0,125.0,1.0,1.3,214,-270,480,-267,709,-277,213.76871275901794,213.7688331604004,213.77188348770142,213.78268599510193,213.92808771133423,213.92808771133423,213.92808771133423,213.92808771133423,213.92808771133423,213.92808771133423,213.92808771133423,215.7716510295868,3,1.9809415340423584,None,,,,,,,,,,,,,,,,,,76,1,2025-02-21_13h17.47.786,comp,2024.2.4,None,2025-02-21 13h18.36.948405 -0500,
89,89,0,critical,dhw,35.0,2.1,lower,70.0,70.0,133.0,57.0,57.0,133.0,3,1.7991015911102295,None,,,,,0,0,0,0,0,89,89,0,215.7899091243744,,,,,,,,,,,,,,,,,,,,,,,,,,,,,,,,,,,,,,,,,,,,,,,,,,,,,,,,,,,,,,,,,,,,,,,,,,,,,,,,,70.0,70.0,133.0,57.0,57.0,133.0,2.1,2.12,-160,-287,0,-265,191,268,215.7732880115509,215.7733657360077,215.77657508850098,215.7899091243744,215.93223571777344,215.93223571777344,215.93223571777344,215.93223571777344,215.93223571777344,215.93223571777344,215.93223571777344,217.60065412521362,3,1.7991015911102295,None,,,,,,,,,,,,,,,,,,76,1,2025-02-21_13h17.47.786,comp,2024.2.4,None,2025-02-21 13h18.36.948405 -0500,
90,90,0,filler_random,None,None,None,None,None,None,None,None,None,None,1,1.162475824356079,None,,,,,0,0,0,0,0,90,90,137,217.61732387542725,,,,,,,,,,,,,,,,,,,,,,,,,,,,,,,,,,,,,,,,,,,,,,,,,,,,,,,,,,,,,,,,,,,,,,,,,,,,,,,,,188.60411975390465,146.69632352947454,64.86804457899926,92.95099013772654,134.30046074286957,132.4028970622273,2.1,2.12,-216,-286,0,-280,209,278,217.60235476493835,217.6024808883667,217.60647130012512,217.61732387542725,217.76629877090454,217.76629877090454,217.76629877090454,217.76629877090454,217.76629877090454,217.76629877090454,217.76629877090454,218.78636813163757,1,1.162475824356079,None,,,,,,,,,,,,,,,,,,76,1,2025-02-21_13h17.47.786,comp,2024.2.4,None,2025-02-21 13h18.36.948405 -0500,
91,91,0,critical,hdw,20.0,3.0,upper,200.0,125.0,141.0,141.0,125.0,200.0,3,1.5776386260986328,None,,,,,0,0,0,0,0,91,91,117,218.8021945953369,,,,,,,,,,,,,,,,,,,,,,,,,,,,,,,,,,,,,,,,,,,,,,,,,,,,,,,,,,,,,,,,,,,,,,,,,,,,,,,,,200.0,125.0,141.0,141.0,125.0,200.0,3.0,3.1,-229,277,0,-17,266,-262,218.78782486915588,218.7879021167755,218.79122376441956,218.8021945953369,218.9549524784088,218.9549524784088,218.9549524784088,218.9549524784088,218.9549524784088,218.9549524784088,218.9549524784088,220.38369154930115,3,1.5776386260986328,None,,,,,,,,,,,,,,,,,,76,1,2025-02-21_13h17.47.786,comp,2024.2.4,None,2025-02-21 13h18.36.948405 -0500,
92,92,0,filler_square,None,None,None,None,None,None,None,None,None,None,2,2.499177932739258,None,,,,,0,0,0,0,0,92,92,198,220.40000295639038,,,,,,,,,,,,,,,,,,,,,,,,,,,,,,,,,,,,,,,,,,,,,,,,,,,,,,,,,,,,,,,,,,,,,,,,,,,,,,,,,57.1665957432183,57.19277590245568,57.30854640715545,57.03613700422375,57.33495732193888,57.33495732193888,2.1,2.11,-153,259,0,277,153,-280,220.3856017589569,220.38573336601257,220.38908052444458,220.40000295639038,220.5509054660797,220.5509054660797,220.5509054660797,220.5509054660797,220.5509054660797,220.5509054660797,220.5509054660797,222.90286493301392,2,2.499177932739258,None,,,,,,,,,,,,,,,,,,76,1,2025-02-21_13h17.47.786,comp,2024.2.4,None,2025-02-21 13h18.36.948405 -0500,
93,93,0,filler_random,None,None,None,None,None,None,None,None,None,None,3,1.2608940601348877,None,,,,,0,0,0,0,0,93,93,139,222.91928267478943,,,,,,,,,,,,,,,,,,,,,,,,,,,,,,,,,,,,,,,,,,,,,,,,,,,,,,,,,,,,,,,,,,,,,,,,,,,,,,,,,119.36202987674626,76.14413547017698,64.63608386083142,116.05379995885292,197.77088696346718,103.35403174353068,3.0,3.1,-192,255,0,-12,206,-256,222.90468788146973,222.90484476089478,222.9082977771759,222.91928267478943,223.06737422943115,223.06737422943115,223.06737422943115,223.06737422943115,223.06737422943115,223.06737422943115,223.06737422943115,224.1863625049591,3,1.2608940601348877,None,,,,,,,,,,,,,,,,,,76,1,2025-02-21_13h17.47.786,comp,2024.2.4,None,2025-02-21 13h18.36.948405 -0500,
94,94,0,critical,wdh,35.0,3.0,lower,57.0,133.0,70.0,70.0,133.0,57.0,3,1.8493361473083496,None,,,,,0,0,0,0,0,94,94,74,224.2020468711853,,,,,,,,,,,,,,,,,,,,,,,,,,,,,,,,,,,,,,,,,,,,,,,,,,,,,,,,,,,,,,,,,,,,,,,,,,,,,,,,,57.0,133.0,70.0,70.0,133.0,57.0,3.0,3.2,-198,-283,0,14,160,251,224.1879177093506,224.1879940032959,224.19123244285583,224.2020468711853,224.35171842575073,224.35171842575073,224.35171842575073,224.35171842575073,224.35171842575073,224.35171842575073,224.35171842575073,226.05485725402832,3,1.8493361473083496,None,,,,,,,,,,,,,,,,,,76,1,2025-02-21_13h17.47.786,comp,2024.2.4,None,2025-02-21 13h18.36.948405 -0500,
95,95,0,catch,None,None,None,None,None,None,None,None,None,None,3,1.0344264507293701,None,,,,,0,0,0,0,0,95,95,129,226.07385802268982,,,,,,,,,,,,,,,,,,,,,,,,,,,,,,,,,,,,,,,,,,,,,,,,,,,,,,,,,,,,,,,,,,,,,,,,,,,,,,,,,59,131,101,89,149,176,2.1,2.12,-206,-285,0,-262,228,274,226.05704188346863,226.0571219921112,226.06041598320007,226.07385802268982,226.2185640335083,226.2185640335083,226.2185640335083,226.2185640335083,226.2185640335083,226.2185640335083,226.2185640335083,227.11925601959229,3,1.0344264507293701,None,,,,,,,,,,,,,,,,,,76,1,2025-02-21_13h17.47.786,comp,2024.2.4,None,2025-02-21 13h18.36.948405 -0500,
96,96,0,critical,hdw,20.0,2.1,lower,133.0,57.0,78.0,78.0,57.0,133.0,1,1.2195494174957275,None,,,,,0,0,0,0,0,96,96,46,227.13582515716553,,,,,,,,,,,,,,,,,,,,,,,,,,,,,,,,,,,,,,,,,,,,,,,,,,,,,,,,,,,,,,,,,,,,,,,,,,,,,,,,,133.0,57.0,78.0,78.0,57.0,133.0,2.1,2.12,-164,-278,0,-277,202,289,227.12086987495422,227.12096071243286,227.1245243549347,227.13582515716553,227.2880039215088,227.2880039215088,227.2880039215088,227.2880039215088,227.2880039215088,227.2880039215088,227.2880039215088,228.36609029769897,1,1.2195494174957275,None,,,,,,,,,,,,,,,,,,76,1,2025-02-21_13h17.47.786,comp,2024.2.4,None,2025-02-21 13h18.36.948405 -0500,
97,97,0,critical,hdw,35.0,2.1,lower,133.0,57.0,70.0,70.0,57.0,133.0,3,1.518026351928711,None,,,,,0,0,0,0,0,97,97,44,228.38116359710693,,,,,,,,,,,,,,,,,,,,,,,,,,,,,,,,,,,,,,,,,,,,,,,,,,,,,,,,,,,,,,,,,,,,,,,,,,,,,,,,,133.0,57.0,70.0,70.0,57.0,133.0,2.1,2.12,-160,-259,0,-279,198,261,228.36757802963257,228.36765336990356,228.37046837806702,228.38116359710693,228.5181131362915,228.5181131362915,228.5181131362915,228.5181131362915,228.5181131362915,228.5181131362915,228.5181131362915,229.91158819198608,3,1.518026351928711,None,,,,,,,,,,,,,,,,,,76,1,2025-02-21_13h17.47.786,comp,2024.2.4,None,2025-02-21 13h18.36.948405 -0500,
98,98,0,critical,whd,35.0,2.1,lower,57.0,133.0,133.0,57.0,70.0,70.0,1,0.8576569557189941,None,,,,,0,0,0,0,0,98,98,12,229.92989134788513,,,,,,,,,,,,,,,,,,,,,,,,,,,,,,,,,,,,,,,,,,,,,,,,,,,,,,,,,,,,,,,,,,,,,,,,,,,,,,,,,57.0,133.0,133.0,57.0,70.0,70.0,2.1,2.11,-191,275,0,285,160,-274,229.91310358047485,229.9131796360016,229.91601276397705,229.92989134788513,230.0700225830078,230.0700225830078,230.0700225830078,230.0700225830078,230.0700225830078,230.0700225830078,230.0700225830078,230.80568861961365,1,0.8576569557189941,None,,,,,,,,,,,,,,,,,,76,1,2025-02-21_13h17.47.786,comp,2024.2.4,None,2025-02-21 13h18.36.948405 -0500,
99,99,0,filler_square,None,None,None,None,None,None,None,None,None,None,2,2.1014270782470703,None,,,,,0,0,0,0,0,99,99,177,230.82186436653137,,,,,,,,,,,,,,,,,,,,,,,,,,,,,,,,,,,,,,,,,,,,,,,,,,,,,,,,,,,,,,,,,,,,,,,,,,,,,,,,,61.156277718612095,61.91331400925011,71.78500749190414,71.78500749190414,64.09406468221412,71.39298500953421,2.1,2.12,-163,-284,0,-279,168,275,230.80764412879944,230.80772304534912,230.8114950656891,230.82186436653137,230.97130227088928,230.97130227088928,230.97130227088928,230.97130227088928,230.97130227088928,230.97130227088928,230.97130227088928,232.93637800216675,2,2.1014270782470703,None,,,,,,,,,,,,,,,,,,76,1,2025-02-21_13h17.47.786,comp,2024.2.4,None,2025-02-21 13h18.36.948405 -0500,
100,100,0,filler_random,None,None,None,None,None,None,None,None,None,None,2,1.8192541599273682,None,,,,,0,0,0,0,0,100,100,138,232.95231795310974,,,,,,,,,,,,,,,,,,,,,,,,,,,,,,,,,,,,,,,,,,,,,,,,,,,,,,,,,,,,,,,,,,,,,,,,,,,,,,,,,160.3390961754758,130.9345561214448,194.15211352101545,145.14361342085903,108.73874925385628,132.424550703178,1.0,1.3,246,-268,480,-264,715,-277,232.93799090385437,232.93806552886963,232.94121479988098,232.95231795310974,233.1005301475525,233.1005301475525,233.1005301475525,233.1005301475525,233.1005301475525,233.1005301475525,233.1005301475525,234.78935718536377,2,1.8192541599273682,None,,,,,,,,,,,,,,,,,,76,1,2025-02-21_13h17.47.786,comp,2024.2.4,None,2025-02-21 13h18.36.948405 -0500,
101,101,0,critical,whd,20.0,4.0,upper,125.0,200.0,200.0,125.0,141.0,141.0,1,2.0313644409179688,None,,,,,0,0,0,0,0,101,101,95,234.80464386940002,,,,,,,,,,,,,,,,,,,,,,,,,,,,,,,,,,,,,,,,,,,,,,,,,,,,,,,,,,,,,,,,,,,,,,,,,,,,,,,,,125.0,200.0,200.0,125.0,141.0,141.0,4.0,4.2,-258,-15,0,-265,229,-12,234.79083347320557,234.79096794128418,234.794269323349,234.80464386940002,234.9625599384308,234.9625599384308,234.9625599384308,234.9625599384308,234.9625599384308,234.9625599384308,234.9625599384308,236.83798050880432,1,2.0313644409179688,None,,,,,,,,,,,,,,,,,,76,1,2025-02-21_13h17.47.786,comp,2024.2.4,None,2025-02-21 13h18.36.948405 -0500,
102,102,0,filler_random,None,None,None,None,None,None,None,None,None,None,3,0.8450446128845215,None,,,,,0,0,0,0,0,102,102,134,236.85463285446167,,,,,,,,,,,,,,,,,,,,,,,,,,,,,,,,,,,,,,,,,,,,,,,,,,,,,,,,,,,,,,,,,,,,,,,,,,,,,,,,,68.14459570782134,78.947552315721,57.82044140068249,91.3209667107239,165.73728478335232,150.75869742880104,4.0,4.2,-181,-7,0,-281,217,-3,236.8396351337433,236.83971166610718,236.84284043312073,236.85463285446167,237.00999426841736,237.00999426841736,237.00999426841736,237.00999426841736,237.00999426841736,237.00999426841736,237.00999426841736,237.70424842834473,3,0.8450446128845215,None,,,,,,,,,,,,,,,,,,76,1,2025-02-21_13h17.47.786,comp,2024.2.4,None,2025-02-21 13h18.36.948405 -0500,
103,103,0,critical,whd,35.0,1.0,lower,57.0,133.0,133.0,57.0,70.0,70.0,2,1.211949348449707,None,,,,,0,0,0,0,0,103,103,84,237.72024369239807,,,,,,,,,,,,,,,,,,,,,,,,,,,,,,,,,,,,,,,,,,,,,,,,,,,,,,,,,,,,,,,,,,,,,,,,,,,,,,,,,57.0,133.0,133.0,57.0,70.0,70.0,1.0,1.3,289,-260,480,-256,640,-270,237.70567512512207,237.70575070381165,237.70862865447998,237.72024369239807,237.85958695411682,237.85958695411682,237.85958695411682,237.85958695411682,237.85958695411682,237.85958695411682,237.85958695411682,238.94004440307617,2,1.211949348449707,None,,,,,,,,,,,,,,,,,,76,1,2025-02-21_13h17.47.786,comp,2024.2.4,None,2025-02-21 13h18.36.948405 -0500,
104,104,0,filler_square,None,None,None,None,None,None,None,None,None,None,3,0.8796296119689941,None,,,,,0,0,0,0,0,104,104,185,238.95621824264526,,,,,,,,,,,,,,,,,,,,,,,,,,,,,,,,,,,,,,,,,,,,,,,,,,,,,,,,,,,,,,,,,,,,,,,,,,,,,,,,,179.03601889632262,58.260108833765074,119.32679160414271,109.61570666326985,182.21215927202394,182.21215927202394,3.0,3.2,-180,-255,0,-4,242,279,238.94180631637573,238.94193696975708,238.94516897201538,238.95621824264526,239.10590291023254,239.10590291023254,239.10590291023254,239.10590291023254,239.10590291023254,239.10590291023254,239.10590291023254,239.83997225761414,3,0.8796296119689941,None,,,,,,,,,,,,,,,,,,76,1,2025-02-21_13h17.47.786,comp,2024.2.4,None,2025-02-21 13h18.36.948405 -0500,
105,105,0,catch,None,None,None,None,None,None,None,None,None,None,2,0.8180446624755859,None,,,,,0,0,0,0,0,105,105,121,239.8573455810547,,,,,,,,,,,,,,,,,,,,,,,,,,,,,,,,,,,,,,,,,,,,,,,,,,,,,,,,,,,,,,,,,,,,,,,,,,,,,,,,,133,57,132,193,103,87,4.0,4.1,-221,-287,0,-20,236,-258,239.842054605484,239.84213304519653,239.8461172580719,239.8573455810547,240.00407910346985,240.00407910346985,240.00407910346985,240.00407910346985,240.00407910346985,240.00407910346985,240.00407910346985,240.6775505542755,2,0.8180446624755859,None,,,,,,,,,,,,,,,,,,76,1,2025-02-21_13h17.47.786,comp,2024.2.4,None,2025-02-21 13h18.36.948405 -0500,
106,106,0,critical,whd,35.0,2.1,upper,125.0,200.0,200.0,125.0,127.0,127.0,1,1.6336393356323242,None,,,,,0,0,0,0,0,106,106,13,240.69768285751343,,,,,,,,,,,,,,,,,,,,,,,,,,,,,,,,,,,,,,,,,,,,,,,,,,,,,,,,,,,,,,,,,,,,,,,,,,,,,,,,,125.0,200.0,200.0,125.0,127.0,127.0,2.1,2.12,-258,-256,0,-260,222,283,240.67917656898499,240.6792540550232,240.6824746131897,240.69768285751343,240.8404552936554,240.8404552936554,240.8404552936554,240.8404552936554,240.8404552936554,240.8404552936554,240.8404552936554,242.34190893173218,1,1.6336393356323242,None,,,,,,,,,,,,,,,,,,76,1,2025-02-21_13h17.47.786,comp,2024.2.4,None,2025-02-21 13h18.36.948405 -0500,
107,107,0,critical,dwh,20.0,2.1,upper,141.0,141.0,125.0,200.0,200.0,125.0,2,2.1814310550689697,None,,,,,0,0,0,0,0,107,107,31,242.35802674293518,,,,,,,,,,,,,,,,,,,,,,,,,,,,,,,,,,,,,,,,,,,,,,,,,,,,,,,,,,,,,,,,,,,,,,,,,,,,,,,,,141.0,141.0,125.0,200.0,200.0,125.0,2.1,2.12,-266,-260,0,-259,258,276,242.34342193603516,242.34349918365479,242.34696292877197,242.35802674293518,242.50581407546997,242.50581407546997,242.50581407546997,242.50581407546997,242.50581407546997,242.50581407546997,242.50581407546997,244.5575783252716,2,2.1814310550689697,None,,,,,,,,,,,,,,,,,,76,1,2025-02-21_13h17.47.786,comp,2024.2.4,None,2025-02-21 13h18.36.948405 -0500,
108,108,0,critical,dhw,20.0,2.1,upper,141.0,141.0,200.0,125.0,125.0,200.0,3,2.797163248062134,None,,,,,0,0,0,0,0,108,108,3,244.57411861419678,,,,,,,,,,,,,,,,,,,,,,,,,,,,,,,,,,,,,,,,,,,,,,,,,,,,,,,,,,,,,,,,,,,,,,,,,,,,,,,,,141.0,141.0,200.0,125.0,125.0,200.0,2.1,2.11,-229,265,0,269,258,-260,244.55920577049255,244.5592794418335,244.56247735023499,244.57411861419678,244.72536826133728,244.72536826133728,244.72536826133728,244.72536826133728,244.72536826133728,244.72536826133728,244.72536826133728,247.37636470794678,3,2.797163248062134,None,,,,,,,,,,,,,,,,,,76,1,2025-02-21_13h17.47.786,comp,2024.2.4,None,2025-02-21 13h18.36.948405 -0500,
109,109,0,critical,whd,20.0,3.0,lower,57.0,133.0,133.0,57.0,78.0,78.0,1,2.0005810260772705,None,,,,,0,0,0,0,0,109,109,92,247.39470195770264,,,,,,,,,,,,,,,,,,,,,,,,,,,,,,,,,,,,,,,,,,,,,,,,,,,,,,,,,,,,,,,,,,,,,,,,,,,,,,,,,57.0,133.0,133.0,57.0,78.0,78.0,3.0,3.2,-191,-260,0,3,164,278,247.37788605690002,247.37796139717102,247.38111400604248,247.39470195770264,247.5420036315918,247.5420036315918,247.5420036315918,247.5420036315918,247.5420036315918,247.5420036315918,247.5420036315918,249.4117932319641,1,2.0005810260772705,None,,,,,,,,,,,,,,,,,,76,1,2025-02-21_13h17.47.786,comp,2024.2.4,None,2025-02-21 13h18.36.948405 -0500,
110,110,0,critical,hwd,20.0,2.1,upper,200.0,125.0,125.0,200.0,141.0,141.0,1,2.5602080821990967,None,,,,,0,0,0,0,0,110,110,19,249.42761039733887,,,,,,,,,,,,,,,,,,,,,,,,,,,,,,,,,,,,,,,,,,,,,,,,,,,,,,,,,,,,,,,,,,,,,,,,,,,,,,,,,200.0,125.0,125.0,200.0,141.0,141.0,2.1,2.12,-258,-270,0,-256,266,258,249.41341495513916,249.41351556777954,249.41690921783447,249.42761039733887,249.569974899292,249.569974899292,249.569974899292,249.569974899292,249.569974899292,249.569974899292,249.569974899292,251.99284768104553,1,2.5602080821990967,None,,,,,,,,,,,,,,,,,,76,1,2025-02-21_13h17.47.786,comp,2024.2.4,None,2025-02-21 13h18.36.948405 -0500,
111,111,0,filler_random,None,None,None,None,None,None,None,None,None,None,2,1.262253999710083,None,,,,,0,0,0,0,0,111,111,159,252.01301455497742,,,,,,,,,,,,,,,,,,,,,,,,,,,,,,,,,,,,,,,,,,,,,,,,,,,,,,,,,,,,,,,,,,,,,,,,,,,,,,,,,57.843170731989,159.175339947065,86.71513343899683,166.06804776509458,78.09239325124199,169.21329028086646,4.0,4.1,-259,-284,0,-6,264,-277,251.99450492858887,251.99457931518555,251.9975881576538,252.01301455497742,252.1588897705078,252.1588897705078,252.1588897705078,252.1588897705078,252.1588897705078,252.1588897705078,252.1588897705078,253.27863788604736,2,1.262253999710083,None,,,,,,,,,,,,,,,,,,76,1,2025-02-21_13h17.47.786,comp,2024.2.4,None,2025-02-21 13h18.36.948405 -0500,
112,112,0,filler_random,None,None,None,None,None,None,None,None,None,None,3,0.8210983276367188,None,,,,,0,0,0,0,0,112,112,140,253.29485869407654,,,,,,,,,,,,,,,,,,,,,,,,,,,,,,,,,,,,,,,,,,,,,,,,,,,,,,,,,,,,,,,,,,,,,,,,,,,,,,,,,111.78585083760618,114.03404201857771,106.29579805163667,109.83087752005726,180.6326760859232,134.73249406107266,1.0,1.2,-208,0,0,-4,218,-6,253.28051376342773,253.28064846992493,253.28399395942688,253.29485869407654,253.44337439537048,253.44337439537048,253.44337439537048,253.44337439537048,253.44337439537048,253.44337439537048,253.44337439537048,254.12744212150574,3,0.8210983276367188,None,,,,,,,,,,,,,,,,,,76,1,2025-02-21_13h17.47.786,comp,2024.2.4,None,2025-02-21 13h18.36.948405 -0500,
113,113,0,critical,wdh,35.0,3.0,upper,125.0,200.0,127.0,127.0,200.0,125.0,1,2.036990165710449,None,,,,,0,0,0,0,0,113,113,75,254.14245057106018,,,,,,,,,,,,,,,,,,,,,,,,,,,,,,,,,,,,,,,,,,,,,,,,,,,,,,,,,,,,,,,,,,,,,,,,,,,,,,,,,125.0,200.0,127.0,127.0,200.0,125.0,3.0,3.1,-260,272,0,16,222,-268,254.12903094291687,254.12910795211792,254.1325125694275,254.14245057106018,254.29327178001404,254.29327178001404,254.29327178001404,254.29327178001404,254.29327178001404,254.29327178001404,254.29327178001404,256.200804233551,1,2.036990165710449,None,,,,,,,,,,,,,,,,,,76,1,2025-02-21_13h17.47.786,comp,2024.2.4,None,2025-02-21 13h18.36.948405 -0500,
114,114,0,filler_square,None,None,None,None,None,None,None,None,None,None,3,1.5801622867584229,None,,,,,0,0,0,0,0,114,114,179,256.2157120704651,,,,,,,,,,,,,,,,,,,,,,,,,,,,,,,,,,,,,,,,,,,,,,,,,,,,,,,,,,,,,,,,,,,,,,,,,,,,,,,,,61.934441425473246,73.55557586577666,67.3260154134138,69.44157109633963,76.80011841328256,76.80011841328256,2.2,2.22,-167,265,0,-262,169,-254,256.2024748325348,256.2025489807129,256.20534896850586,256.2157120704651,256.36112213134766,256.36112213134766,256.36112213134766,256.36112213134766,256.36112213134766,256.36112213134766,256.36112213134766,257.8025417327881,3,1.5801622867584229,None,,,,,,,,,,,,,,,,,,76,1,2025-02-21_13h17.47.786,comp,2024.2.4,None,2025-02-21 13h18.36.948405 -0500,
115,115,0,critical,dwh,35.0,2.1,lower,70.0,70.0,57.0,133.0,133.0,57.0,2,1.1535356044769287,None,,,,,0,0,0,0,0,115,115,4,257.8184814453125,,,,,,,,,,,,,,,,,,,,,,,,,,,,,,,,,,,,,,,,,,,,,,,,,,,,,,,,,,,,,,,,,,,,,,,,,,,,,,,,,70.0,70.0,57.0,133.0,133.0,57.0,2.1,2.12,-198,-271,0,-260,191,277,257.80404806137085,257.8041250705719,257.8069863319397,257.8184814453125,257.9589352607727,257.9589352607727,257.9589352607727,257.9589352607727,257.9589352607727,257.9589352607727,257.9589352607727,258.97914481163025,2,1.1535356044769287,None,,,,,,,,,,,,,,,,,,76,1,2025-02-21_13h17.47.786,comp,2024.2.4,None,2025-02-21 13h18.36.948405 -0500,
116,116,0,critical,wdh,20.0,1.0,lower,57.0,133.0,78.0,78.0,133.0,57.0,1,1.4326388835906982,None,,,,,0,0,0,0,0,116,116,78,258.9952983856201,,,,,,,,,,,,,,,,,,,,,,,,,,,,,,,,,,,,,,,,,,,,,,,,,,,,,,,,,,,,,,,,,,,,,,,,,,,,,,,,,57.0,133.0,78.0,78.0,133.0,57.0,1.0,1.2,-202,18,0,-11,164,-2,258.9806888103485,258.98078989982605,258.98437333106995,258.9952983856201,259.14622020721436,259.14622020721436,259.14622020721436,259.14622020721436,259.14622020721436,259.14622020721436,259.14622020721436,260.4302616119385,1,1.4326388835906982,None,,,,,,,,,,,,,,,,,,76,1,2025-02-21_13h17.47.786,comp,2024.2.4,None,2025-02-21 13h18.36.948405 -0500,
117,117,0,filler_random,None,None,None,None,None,None,None,None,None,None,1,0.8602845668792725,None,,,,,0,0,0,0,0,117,117,155,260.4473719596863,,,,,,,,,,,,,,,,,,,,,,,,,,,,,,,,,,,,,,,,,,,,,,,,,,,,,,,,,,,,,,,,,,,,,,,,,,,,,,,,,169.04124535088977,193.1342781475487,102.11208922572331,93.09619379895904,178.30708387186937,64.31096538961809,1.0,1.3,241,-273,480,-271,655,-251,260.432008266449,260.4320867061615,260.43602323532104,260.4473719596863,260.5953872203827,260.5953872203827,260.5953872203827,260.5953872203827,260.5953872203827,260.5953872203827,260.5953872203827,261.3143255710602,1,0.8602845668792725,None,,,,,,,,,,,,,,,,,,76,1,2025-02-21_13h17.47.786,comp,2024.2.4,None,2025-02-21 13h18.36.948405 -0500,
118,118,0,critical,whd,20.0,4.0,lower,57.0,133.0,133.0,57.0,78.0,78.0,3,4.361426830291748,None,,,,,0,0,0,0,0,118,118,94,261.33042216300964,,,,,,,,,,,,,,,,,,,,,,,,,,,,,,,,,,,,,,,,,,,,,,,,,,,,,,,,,,,,,,,,,,,,,,,,,,,,,,,,,57.0,133.0,133.0,57.0,78.0,78.0,4.0,4.2,-191,14,0,-288,164,-20,261.31573939323425,261.3158366680145,261.3197190761566,261.33042216300964,261.48310470581055,261.48310470581055,261.48310470581055,261.48310470581055,261.48310470581055,261.48310470581055,261.48310470581055,265.6971616744995,3,4.361426830291748,None,,,,,,,,,,,,,,,,,,76,1,2025-02-21_13h17.47.786,comp,2024.2.4,None,2025-02-21 13h18.36.948405 -0500,
119,119,0,critical,hwd,20.0,2.1,lower,133.0,57.0,57.0,133.0,78.0,78.0,3,2.2155404090881348,None,,,,,0,0,0,0,0,119,119,18,265.7156960964203,,,,,,,,,,,,,,,,,,,,,,,,,,,,,,,,,,,,,,,,,,,,,,,,,,,,,,,,,,,,,,,,,,,,,,,,,,,,,,,,,133.0,57.0,57.0,133.0,78.0,78.0,2.1,2.11,-191,274,0,261,202,-273,265.69858407974243,265.6986598968506,265.70165610313416,265.7156960964203,265.865517616272,265.865517616272,265.865517616272,265.865517616272,265.865517616272,265.865517616272,265.865517616272,267.9362108707428,3,2.2155404090881348,None,,,,,,,,,,,,,,,,,,76,1,2025-02-21_13h17.47.786,comp,2024.2.4,None,2025-02-21 13h18.36.948405 -0500,
120,120,0,filler_square,None,None,None,None,None,None,None,None,None,None,2,0.9239797592163086,None,,,,,0,0,0,0,0,120,120,203,267.95190834999084,,,,,,,,,,,,,,,,,,,,,,,,,,,,,,,,,,,,,,,,,,,,,,,,,,,,,,,,,,,,,,,,,,,,,,,,,,,,,,,,,65.0347036888106,65.63870648127123,120.31578247676899,120.31578247676899,104.7536966873696,72.38374613694839,2.2,2.21,-189,-250,0,274,192,281,267.9380009174347,267.9380786418915,267.94114089012146,267.95190834999084,268.09834122657776,268.09834122657776,268.09834122657776,268.09834122657776,268.09834122657776,268.09834122657776,268.09834122657776,268.8825132846832,2,0.9239797592163086,None,,,,,,,,,,,,,,,,,,76,1,2025-02-21_13h17.47.786,comp,2024.2.4,None,2025-02-21 13h18.36.948405 -0500,
121,121,0,critical,dhw,20.0,2.1,lower,78.0,78.0,133.0,57.0,57.0,133.0,3,2.0556252002716064,None,,,,,0,0,0,0,0,121,121,2,268.89968633651733,,,,,,,,,,,,,,,,,,,,,,,,,,,,,,,,,,,,,,,,,,,,,,,,,,,,,,,,,,,,,,,,,,,,,,,,,,,,,,,,,78.0,78.0,133.0,57.0,57.0,133.0,2.1,2.11,-164,265,0,276,191,-277,268.8840219974518,268.8841004371643,268.8880774974823,268.89968633651733,269.04778003692627,269.04778003692627,269.04778003692627,269.04778003692627,269.04778003692627,269.04778003692627,269.04778003692627,270.9654507637024,3,2.0556252002716064,None,,,,,,,,,,,,,,,,,,76,1,2025-02-21_13h17.47.786,comp,2024.2.4,None,2025-02-21 13h18.36.948405 -0500,
122,122,0,filler_square,None,None,None,None,None,None,None,None,None,None,3,0.8349671363830566,None,,,,,0,0,0,0,0,122,122,190,270.9844460487366,,,,,,,,,,,,,,,,,,,,,,,,,,,,,,,,,,,,,,,,,,,,,,,,,,,,,,,,,,,,,,,,,,,,,,,,,,,,,,,,,86.32214912831847,119.15021988457435,100.49375269903312,86.81530779824011,135.13997656251172,135.13997656251172,3.0,3.2,-199,-269,0,19,207,259,270.9671766757965,270.9672510623932,270.97040915489197,270.9844460487366,271.1212751865387,271.1212751865387,271.1212751865387,271.1212751865387,271.1212751865387,271.1212751865387,271.1212751865387,271.83332204818726,3,0.8349671363830566,None,,,,,,,,,,,,,,,,,,76,1,2025-02-21_13h17.47.786,comp,2024.2.4,None,2025-02-21 13h18.36.948405 -0500,
123,123,0,filler_random,None,None,None,None,None,None,None,None,None,None,3,1.259397268295288,None,,,,,0,0,0,0,0,123,123,135,271.84783720970154,,,,,,,,,,,,,,,,,,,,,,,,,,,,,,,,,,,,,,,,,,,,,,,,,,,,,,,,,,,,,,,,,,,,,,,,,,,,,,,,,110.89636332298647,113.90293120996895,130.21605849344132,91.55704852338252,104.03779379029322,186.29891396126996,3.0,3.2,-199,-281,0,-5,235,273,271.83497285842896,271.83504843711853,271.8382956981659,271.84783720970154,272.00308561325073,272.00308561325073,272.00308561325073,272.00308561325073,272.00308561325073,272.00308561325073,272.00308561325073,273.11678314208984,3,1.259397268295288,None,,,,,,,,,,,,,,,,,,76,1,2025-02-21_13h17.47.786,comp,2024.2.4,None,2025-02-21 13h18.36.948405 -0500,
124,124,0,critical,whd,35.0,3.0,lower,57.0,133.0,133.0,57.0,70.0,70.0,2,1.35805082321167,None,,,,,0,0,0,0,0,124,124,86,273.1332468986511,,,,,,,,,,,,,,,,,,,,,,,,,,,,,,,,,,,,,,,,,,,,,,,,,,,,,,,,,,,,,,,,,,,,,,,,,,,,,,,,,57.0,133.0,133.0,57.0,70.0,70.0,3.0,3.2,-191,-274,0,-19,160,265,273.1184084415436,273.1184923648834,273.1219494342804,273.1332468986511,273.30369782447815,273.30369782447815,273.30369782447815,273.30369782447815,273.30369782447815,273.30369782447815,273.30369782447815,274.50600028038025,2,1.35805082321167,None,,,,,,,,,,,,,,,,,,76,1,2025-02-21_13h17.47.786,comp,2024.2.4,None,2025-02-21 13h18.36.948405 -0500,
125,125,0,critical,hwd,35.0,1.0,lower,133.0,57.0,57.0,133.0,70.0,70.0,2,2.449972152709961,None,,,,,0,0,0,0,0,125,125,96,274.5216066837311,,,,,,,,,,,,,,,,,,,,,,,,,,,,,,,,,,,,,,,,,,,,,,,,,,,,,,,,,,,,,,,,,,,,,,,,,,,,,,,,,133.0,57.0,57.0,133.0,70.0,70.0,1.0,1.2,-191,19,0,-7,198,10,274.50746273994446,274.5075361728668,274.5103495121002,274.5216066837311,274.6667070388794,274.6667070388794,274.6667070388794,274.6667070388794,274.6667070388794,274.6667070388794,274.6667070388794,276.98497462272644,2,2.449972152709961,None,,,,,,,,,,,,,,,,,,76,1,2025-02-21_13h17.47.786,comp,2024.2.4,None,2025-02-21 13h18.36.948405 -0500,
126,126,0,filler_square,None,None,None,None,None,None,None,None,None,None,1,0.8907346725463867,None,,,,,0,0,0,0,0,126,126,191,277.00049686431885,,,,,,,,,,,,,,,,,,,,,,,,,,,,,,,,,,,,,,,,,,,,,,,,,,,,,,,,,,,,,,,,,,,,,,,,,,,,,,,,,185.07708879890336,185.07708879890336,147.9761769979445,86.29000321310473,115.72603004255102,162.1249033498429,2.2,2.21,-232,-266,0,267,220,266,276.98666501045227,276.98674273490906,276.9901542663574,277.00049686431885,277.1521987915039,277.1521987915039,277.1521987915039,277.1521987915039,277.1521987915039,277.1521987915039,277.1521987915039,277.90191292762756,1,0.8907346725463867,None,,,,,,,,,,,,,,,,,,76,1,2025-02-21_13h17.47.786,comp,2024.2.4,None,2025-02-21 13h18.36.948405 -0500,
127,127,0,critical,whd,20.0,1.0,upper,125.0,200.0,200.0,125.0,141.0,141.0,2,2.340616464614868,None,,,,,0,0,0,0,0,127,127,91,277.9191310405731,,,,,,,,,,,,,,,,,,,,,,,,,,,,,,,,,,,,,,,,,,,,,,,,,,,,,,,,,,,,,,,,,,,,,,,,,,,,,,,,,125.0,200.0,200.0,125.0,141.0,141.0,1.0,1.3,222,-275,480,-262,709,-273,277.90394020080566,277.9040186405182,277.9079930782318,277.9191310405731,278.0697202682495,278.0697202682495,278.0697202682495,278.0697202682495,278.0697202682495,278.0697202682495,278.0697202682495,280.2695288658142,2,2.340616464614868,None,,,,,,,,,,,,,,,,,,76,1,2025-02-21_13h17.47.786,comp,2024.2.4,None,2025-02-21 13h18.36.948405 -0500,
128,128,0,critical,wdh,35.0,4.0,upper,125.0,200.0,127.0,127.0,200.0,125.0,1,1.7570290565490723,None,,,,,0,0,0,0,0,128,128,77,280.28645491600037,,,,,,,,,,,,,,,,,,,,,,,,,,,,,,,,,,,,,,,,,,,,,,,,,,,,,,,,,,,,,,,,,,,,,,,,,,,,,,,,,125.0,200.0,127.0,127.0,200.0,125.0,4.0,4.2,-260,-16,0,-277,222,-11,280.27107667922974,280.2711524963379,280.274555683136,280.28645491600037,280.4380819797516,280.4380819797516,280.4380819797516,280.4380819797516,280.4380819797516,280.4380819797516,280.4380819797516,282.0556671619415,1,1.7570290565490723,None,,,,,,,,,,,,,,,,,,76,1,2025-02-21_13h17.47.786,comp,2024.2.4,None,2025-02-21 13h18.36.948405 -0500,
129,129,0,filler_random,None,None,None,None,None,None,None,None,None,None,1,1.0601425170898438,None,,,,,0,0,0,0,0,129,129,133,282.07138776779175,,,,,,,,,,,,,,,,,,,,,,,,,,,,,,,,,,,,,,,,,,,,,,,,,,,,,,,,,,,,,,,,,,,,,,,,,,,,,,,,,118.77455235298852,106.21397045217373,63.975485190510966,151.64819584770305,81.50639590549412,113.98950866527449,1.0,1.1,-705,253,-480,268,-251,274,282.05760502815247,282.0576846599579,282.0605471134186,282.07138776779175,282.220175743103,282.220175743103,282.220175743103,282.220175743103,282.220175743103,282.220175743103,282.220175743103,283.14235973358154,1,1.0601425170898438,None,,,,,,,,,,,,,,,,,,76,1,2025-02-21_13h17.47.786,comp,2024.2.4,None,2025-02-21 13h18.36.948405 -0500,
130,130,0,critical,dwh,35.0,2.1,lower,70.0,70.0,57.0,133.0,133.0,57.0,2,1.2021965980529785,None,,,,,0,0,0,0,0,130,130,28,283.16179180145264,,,,,,,,,,,,,,,,,,,,,,,,,,,,,,,,,,,,,,,,,,,,,,,,,,,,,,,,,,,,,,,,,,,,,,,,,,,,,,,,,70.0,70.0,57.0,133.0,133.0,57.0,2.1,2.12,-198,-287,0,-252,191,256,283.14384508132935,283.14392042160034,283.14672327041626,283.16179180145264,283.3036324977875,283.3036324977875,283.3036324977875,283.3036324977875,283.3036324977875,283.3036324977875,283.3036324977875,284.3699879646301,2,1.2021965980529785,None,,,,,,,,,,,,,,,,,,76,1,2025-02-21_13h17.47.786,comp,2024.2.4,None,2025-02-21 13h18.36.948405 -0500,
131,131,0,critical,hwd,20.0,1.0,upper,200.0,125.0,125.0,200.0,141.0,141.0,2,2.823906183242798,None,,,,,0,0,0,0,0,131,131,103,284.3873882293701,,,,,,,,,,,,,,,,,,,,,,,,,,,,,,,,,,,,,,,,,,,,,,,,,,,,,,,,,,,,,,,,,,,,,,,,,,,,,,,,,200.0,125.0,125.0,200.0,141.0,141.0,1.0,1.3,222,-279,480,-258,746,-280,284.37143325805664,284.3715093135834,284.3743495941162,284.3873882293701,284.537504196167,284.537504196167,284.537504196167,284.537504196167,284.537504196167,284.537504196167,284.537504196167,287.2213845252991,2,2.823906183242798,None,,,,,,,,,,,,,,,,,,76,1,2025-02-21_13h17.47.786,comp,2024.2.4,None,2025-02-21 13h18.36.948405 -0500,
132,132,0,critical,wdh,20.0,2.1,lower,57.0,133.0,78.0,78.0,133.0,57.0,1,1.9491758346557617,None,,,,,0,0,0,0,0,132,132,10,287.23814702033997,,,,,,,,,,,,,,,,,,,,,,,,,,,,,,,,,,,,,,,,,,,,,,,,,,,,,,,,,,,,,,,,,,,,,,,,,,,,,,,,,57.0,133.0,78.0,78.0,133.0,57.0,2.1,2.11,-202,257,0,279,164,-281,287.22284483909607,287.22294092178345,287.22632598876953,287.23814702033997,287.3861656188965,287.3861656188965,287.3861656188965,287.3861656188965,287.3861656188965,287.3861656188965,287.3861656188965,289.1899914741516,1,1.9491758346557617,None,,,,,,,,,,,,,,,,,,76,1,2025-02-21_13h17.47.786,comp,2024.2.4,None,2025-02-21 13h18.36.948405 -0500,
133,133,0,filler_square,None,None,None,None,None,None,None,None,None,None,3,1.1662213802337646,None,,,,,0,0,0,0,0,133,133,196,289.2058947086334,,,,,,,,,,,,,,,,,,,,,,,,,,,,,,,,,,,,,,,,,,,,,,,,,,,,,,,,,,,,,,,,,,,,,,,,,,,,,,,,,96.8514400789897,86.62649940243645,79.76134503925178,106.22468109429462,119.79188553075406,119.79188553075406,4.0,4.1,-192,-281,0,7,209,-254,289.1918487548828,289.1919753551483,289.19509387016296,289.2058947086334,289.3537998199463,289.3537998199463,289.3537998199463,289.3537998199463,289.3537998199463,289.3537998199463,289.3537998199463,290.37527561187744,3,1.1662213802337646,None,,,,,,,,,,,,,,,,,,76,1,2025-02-21_13h17.47.786,comp,2024.2.4,None,2025-02-21 13h18.36.948405 -0500,
134,134,0,filler_random,None,None,None,None,None,None,None,None,None,None,2,1.3959975242614746,None,,,,,0,0,0,0,0,134,134,169,290.39168667793274,,,,,,,,,,,,,,,,,,,,,,,,,,,,,,,,,,,,,,,,,,,,,,,,,,,,,,,,,,,,,,,,,,,,,,,,,,,,,,,,,93.50755938409125,81.48594936769425,155.18308721280943,73.48126279986357,152.71409858960885,68.37183703817692,3.0,3.2,-173,-290,0,-2,167,252,290.37717843055725,290.37725925445557,290.3801715373993,290.39168667793274,290.53861927986145,290.53861927986145,290.53861927986145,290.53861927986145,290.53861927986145,290.53861927986145,290.53861927986145,291.79289269447327,2,1.3959975242614746,None,,,,,,,,,,,,,,,,,,76,1,2025-02-21_13h17.47.786,comp,2024.2.4,None,2025-02-21 13h18.36.948405 -0500,
135,135,0,catch,None,None,None,None,None,None,None,None,None,None,3,1.0083699226379395,None,,,,,0,0,0,0,0,135,135,120,291.8110466003418,,,,,,,,,,,,,,,,,,,,,,,,,,,,,,,,,,,,,,,,,,,,,,,,,,,,,,,,,,,,,,,,,,,,,,,,,,,,,,,,,111,79,117,73,143,182,1.0,1.3,308,-258,480,-263,704,-260,291.7949776649475,291.7950575351715,291.79791045188904,291.8110466003418,291.95573139190674,291.95573139190674,291.95573139190674,291.95573139190674,291.95573139190674,291.95573139190674,291.95573139190674,292.8305068016052,3,1.0083699226379395,None,,,,,,,,,,,,,,,,,,76,1,2025-02-21_13h17.47.786,comp,2024.2.4,None,2025-02-21 13h18.36.948405 -0500,
136,136,0,filler_random,None,None,None,None,None,None,None,None,None,None,1,1.6288254261016846,None,,,,,0,0,0,0,0,136,136,151,292.84648036956787,,,,,,,,,,,,,,,,,,,,,,,,,,,,,,,,,,,,,,,,,,,,,,,,,,,,,,,,,,,,,,,,,,,,,,,,,,,,,,,,,154.32776791107014,99.93742158657932,68.96155613327893,138.35338398772515,62.92462653258748,95.58745670145026,2.2,2.22,-215,289,0,-290,213,-282,292.8323230743408,292.83244132995605,292.8355870246887,292.84648036956787,292.9913876056671,292.9913876056671,292.9913876056671,292.9913876056671,292.9913876056671,292.9913876056671,292.9913876056671,294.4902124404907,1,1.6288254261016846,None,,,,,,,,,,,,,,,,,,76,1,2025-02-21_13h17.47.786,comp,2024.2.4,None,2025-02-21 13h18.36.948405 -0500,
137,137,0,critical,whd,35.0,1.0,upper,125.0,200.0,200.0,125.0,127.0,127.0,2,1.1784477233886719,None,,,,,0,0,0,0,0,137,137,85,294.50547671318054,,,,,,,,,,,,,,,,,,,,,,,,,,,,,,,,,,,,,,,,,,,,,,,,,,,,,,,,,,,,,,,,,,,,,,,,,,,,,,,,,125.0,200.0,200.0,125.0,127.0,127.0,1.0,1.2,-258,-15,0,8,222,5,294.49161314964294,294.4916875362396,294.495126247406,294.50547671318054,294.65803241729736,294.65803241729736,294.65803241729736,294.65803241729736,294.65803241729736,294.65803241729736,294.65803241729736,295.69085574150085,2,1.1784477233886719,None,,,,,,,,,,,,,,,,,,76,1,2025-02-21_13h17.47.786,comp,2024.2.4,None,2025-02-21 13h18.36.948405 -0500,
138,138,0,critical,hdw,20.0,2.1,upper,200.0,125.0,141.0,141.0,125.0,200.0,3,1.745021104812622,None,,,,,0,0,0,0,0,138,138,47,295.7068667411804,,,,,,,,,,,,,,,,,,,,,,,,,,,,,,,,,,,,,,,,,,,,,,,,,,,,,,,,,,,,,,,,,,,,,,,,,,,,,,,,,200.0,125.0,141.0,141.0,125.0,200.0,2.1,2.12,-229,-264,0,-256,266,288,295.6924023628235,295.6924798488617,295.69590044021606,295.7068667411804,295.8550982475281,295.8550982475281,295.8550982475281,295.8550982475281,295.8550982475281,295.8550982475281,295.8550982475281,297.4593560695648,3,1.745021104812622,None,,,,,,,,,,,,,,,,,,76,1,2025-02-21_13h17.47.786,comp,2024.2.4,None,2025-02-21 13h18.36.948405 -0500,
139,139,0,critical,dwh,35.0,1.0,upper,127.0,127.0,125.0,200.0,200.0,125.0,3,1.1675238609313965,None,,,,,0,0,0,0,0,139,139,61,297.4759750366211,,,,,,,,,,,,,,,,,,,,,,,,,,,,,,,,,,,,,,,,,,,,,,,,,,,,,,,,,,,,,,,,,,,,,,,,,,,,,,,,,127.0,127.0,125.0,200.0,200.0,125.0,1.0,1.3,220,-266,480,-258,738,-274,297.4610104560852,297.4611384868622,297.46505904197693,297.4759750366211,297.62517786026,297.62517786026,297.62517786026,297.62517786026,297.62517786026,297.62517786026,297.62517786026,298.6594319343567,3,1.1675238609313965,None,,,,,,,,,,,,,,,,,,76,1,2025-02-21_13h17.47.786,comp,2024.2.4,None,2025-02-21 13h18.36.948405 -0500,
140,140,0,filler_random,None,None,None,None,None,None,None,None,None,None,1,0.7844507694244385,None,,,,,0,0,0,0,0,140,140,141,298.67490673065186,,,,,,,,,,,,,,,,,,,,,,,,,,,,,,,,,,,,,,,,,,,,,,,,,,,,,,,,,,,,,,,,,,,,,,,,,,,,,,,,,164.51444820934248,145.95650752369676,77.91681059891638,188.8677280392233,106.07463822927068,91.4498464206018,1.0,1.3,217,-272,480,-261,716,-267,298.66110157966614,298.6612024307251,298.6645221710205,298.67490673065186,298.8301410675049,298.8301410675049,298.8301410675049,298.8301410675049,298.8301410675049,298.8301410675049,298.8301410675049,299.4742045402527,1,0.7844507694244385,None,,,,,,,,,,,,,,,,,,76,1,2025-02-21_13h17.47.786,comp,2024.2.4,None,2025-02-21 13h18.36.948405 -0500,
141,141,0,critical,hwd,35.0,4.0,upper,200.0,125.0,125.0,200.0,127.0,127.0,2,0.9614622592926025,None,,,,,0,0,0,0,0,141,141,101,299.4905574321747,,,,,,,,,,,,,,,,,,,,,,,,,,,,,,,,,,,,,,,,,,,,,,,,,,,,,,,,,,,,,,,,,,,,,,,,,,,,,,,,,200.0,125.0,125.0,200.0,127.0,127.0,4.0,4.1,-258,-270,0,9,260,-257,299.4757821559906,299.4758622646332,299.47911286354065,299.4905574321747,299.64664030075073,299.64664030075073,299.64664030075073,299.64664030075073,299.64664030075073,299.64664030075073,299.64664030075073,300.45826268196106,2,0.9614622592926025,None,,,,,,,,,,,,,,,,,,76,1,2025-02-21_13h17.47.786,comp,2024.2.4,None,2025-02-21 13h18.36.948405 -0500,
142,142,0,filler_random,None,None,None,None,None,None,None,None,None,None,1,0.7167739868164062,None,,,,,0,0,0,0,0,142,142,150,300.4786102771759,,,,,,,,,,,,,,,,,,,,,,,,,,,,,,,,,,,,,,,,,,,,,,,,,,,,,,,,,,,,,,,,,,,,,,,,,,,,,,,,,169.92698378885166,108.45490574351247,141.63513091288644,85.96767192284231,74.42248433627695,77.11011419356566,4.0,4.2,-193,19,0,-280,178,-5,300.45989632606506,300.45997190475464,300.46297693252563,300.4786102771759,300.62489318847656,300.62489318847656,300.62489318847656,300.62489318847656,300.62489318847656,300.62489318847656,300.62489318847656,301.21969056129456,1,0.7167739868164062,None,,,,,,,,,,,,,,,,,,76,1,2025-02-21_13h17.47.786,comp,2024.2.4,None,2025-02-21 13h18.36.948405 -0500,
