thisN,thisTrialN,thisRepN,effect,order,distance,config,diag,h_1,w_1,h_2,w_2,h_3,w_3,rect_choice.keys,rect_choice.rt,rect_choice.duration,instructions_loop.thisRepN,instructions_loop.thisTrialN,instructions_loop.thisN,instructions_loop.thisIndex,blocks.thisRepN,blocks.thisTrialN,blocks.thisN,blocks.thisIndex,trials.thisRepN,trials.thisTrialN,trials.thisN,trials.thisIndex,thisRow.t,notes,consent.started,agree_button.started,decline_button.started,consent_img.started,mouse.started,consent.stopped,agree_button.numClicks,agree_button.timesOn,agree_button.timesOff,decline_button.numClicks,decline_button.timesOn,decline_button.timesOff,mouse.x,mouse.y,mouse.leftButton,mouse.midButton,mouse.rightButton,mouse.time,mouse.clicked_name,exp_params.started,exp_params.stopped,welcome.started,welcome_text.started,welcome.stopped,instructions_1.started,instructions_1_text_1.started,instructions_1_text_2.started,key_resp.started,instructions_1.stopped,instructions_loop.key_resp.keys,instructions_loop.key_resp.rt,instructions_loop.key_resp.duration,instructions_2.started,instructions_2_text_1.started,instructions_2_text_2.started,key_resp_2.started,instructions_2.stopped,instructions_loop.key_resp_2.keys,instructions_loop.key_resp_2.rt,instructions_loop.key_resp_2.duration,instructions_3.started,instructions_3_text_1.started,r1_instr3.started,r2_instr3.started,r3_instr3.started,r1_instr3_label.started,r2_instr3_label.started,r3_instr3_label.started,instructions_3_text_3.started,instructions_3_text_4.started,key_resp_3.started,instructions_3.stopped,instructions_loop.key_resp_3.keys,instructions_loop.key_resp_3.rt,instructions_loop.key_resp_3.duration,instructions_4.started,instructions_4_text_1.started,instructions_4_text_3.started,instructions_4_text_2.started,key_resp_4.started,instructions_4.stopped,instructions_loop.key_resp_4.keys,instructions_loop.key_resp_4.rt,instructions_loop.key_resp_4.duration,instructions_5.started,instructions_5_text_1.started,instructions_5_text_2.started,key_resp_5.started,instructions_5.stopped,instructions_loop.key_resp_5.keys,instructions_loop.key_resp_5.rt,instructions_loop.key_resp_5.duration,start_exp.started,start_exp_text.started,key_resp_6.started,start_exp.stopped,key_resp_6.keys,key_resp_6.rt,key_resp_6.duration,h_1_tmp,w_1_tmp,h_2_tmp,w_2_tmp,h_3_tmp,w_3_tmp,config_tmp,config_tmp_1,r_1_x,r_1_y,r_2_x,r_2_y,r_3_x,r_3_y,pre_trial.started,pre_trial.stopped,choice_trial.started,rect_choice.started,r_1.started,r_2.started,r_3.started,r_1_label.started,r_2_label.started,r_3_label.started,prompt.started,choice_trial.stopped,trials.rect_choice.keys,trials.rect_choice.rt,trials.rect_choice.duration,end_block.started,end_block_text.started,end_block.stopped,end.started,end_text.started,key_resp_7.started,end.stopped,key_resp_7.keys,key_resp_7.rt,key_resp_7.duration,debriefing.started,debrief_form.started,end_debrief.started,debriefing.stopped,end_debrief.keys,end_debrief.rt,end_debrief.duration,participant,computer,date,expName,psychopyVersion,frameRate,expStart,
,,,,,,,,,,,,,,,,,,,,,,,,,,,,,,,0.01579880714416504,0.042989492416381836,0.042989492416381836,0.042989492416381836,0.015284061431884766,33.74937677383423,0,,,0,,,[-61.0],[-509.0],[1],[0],[0],[33.73302459716797],['agree_button'],,,,,,,,,,,,,,,,,,,,,,,,,,,,,,,,,,,,,,,,,,,,,,,,,,,,,,,,,,,,,,,,,,,,,,,,,,,,,,,,,,,,,,,,,,,,,,,,,,,,,,,,,,,77,3,2025-02-21_13h22.24.251,comp,2024.2.4,60.16159547199906,2025-02-21 13h22.34.881542 -0500,
,,,,,,,,,,,,,,,,,,,,,,,,,,,,,,,,,,,,,,,,,,,,,,,,,,33.749598264694214,33.749632358551025,,,,,,,,,,,,,,,,,,,,,,,,,,,,,,,,,,,,,,,,,,,,,,,,,,,,,,,,,,,,,,,,,,,,,,,,,,,,,,,,,,,,,,,,,,,,,,,,,,,,,,,,,77,3,2025-02-21_13h22.24.251,comp,2024.2.4,60.16159547199906,2025-02-21 13h22.34.881542 -0500,
,,,,,,,,,,,,,,,,,,,,,,,,,,,,,,,,,,,,,,,,,,,,,,,,,,,,33.74965524673462,33.76318407058716,35.752397298812866,,,,,,,,,,,,,,,,,,,,,,,,,,,,,,,,,,,,,,,,,,,,,,,,,,,,,,,,,,,,,,,,,,,,,,,,,,,,,,,,,,,,,,,,,,,,,,,,,,,,,,77,3,2025-02-21_13h22.24.251,comp,2024.2.4,60.16159547199906,2025-02-21 13h22.34.881542 -0500,
0,0,0,,,,,,,,,,,,,,,0,0,0,0,,,,,,,,,35.76914858818054,,,,,,,,,,,,,,,,,,,,,,,,,,35.75320291519165,35.76914858818054,35.76914858818054,37.25228404998779,40.30366611480713,space,3.033520221710205,None,40.30374479293823,40.31918787956238,40.31918787956238,41.81905674934387,45.253777742385864,space,3.433444023132324,None,45.253865242004395,45.27585220336914,45.27585220336914,45.27585220336914,45.27585220336914,45.27585220336914,45.27585220336914,45.27585220336914,45.27585220336914,45.27585220336914,46.753227949142456,52.204129457473755,space,5.44200873374939,None,52.204216957092285,52.219640016555786,52.219640016555786,52.219640016555786,53.71904993057251,59.18682074546814,space,5.451511859893799,None,59.18690609931946,59.202414751052856,59.202414751052856,60.70222306251526,61.73662781715393,space,1.0199956893920898,None,61.73673963546753,61.752137422561646,61.752137422561646,63.1531879901886,space,1.3949775695800781,None,,,,,,,,,,,,,,,,,,,,,,,,,,,,,,,,,,,,,,,,,,,,,,,77,3,2025-02-21_13h22.24.251,comp,2024.2.4,60.16159547199906,2025-02-21 13h22.34.881542 -0500,
0,0,0,critical,wdh,20.0,3.0,lower,57.0,133.0,78.0,78.0,133.0,57.0,3,2.39959979057312,None,,,,,0,0,0,0,0,0,0,80,63.211480379104614,,,,,,,,,,,,,,,,,,,,,,,,,,,,,,,,,,,,,,,,,,,,,,,,,,,,,,,,,,,,,,,,,,,,,,,,,,,,,,,,,57.0,133.0,78.0,78.0,133.0,57.0,3.0,3.1,-202,288,0,11,164,-284,63.197540283203125,63.19758701324463,63.19954037666321,63.211480379104614,63.35915732383728,63.35915732383728,63.35915732383728,63.35915732383728,63.35915732383728,63.35915732383728,63.35915732383728,65.61997270584106,3,2.39959979057312,None,,,,,,,,,,,,,,,,,,77,3,2025-02-21_13h22.24.251,comp,2024.2.4,60.16159547199906,2025-02-21 13h22.34.881542 -0500,
1,1,0,filler_square,None,None,None,None,None,None,None,None,None,None,1,1.6331400871276855,None,,,,,0,0,0,0,0,1,1,191,65.63578176498413,,,,,,,,,,,,,,,,,,,,,,,,,,,,,,,,,,,,,,,,,,,,,,,,,,,,,,,,,,,,,,,,,,,,,,,,,,,,,,,,,139.44892713306444,139.44892713306444,128.9690178400862,89.18961466989933,122.24957409845452,101.71138779465252,2.1,2.12,-210,-259,0,-288,191,251,65.62089443206787,65.62093234062195,65.6232123374939,65.63578176498413,65.78566575050354,65.78566575050354,65.78566575050354,65.78566575050354,65.78566575050354,65.78566575050354,65.78566575050354,67.28689408302307,1,1.6331400871276855,None,,,,,,,,,,,,,,,,,,77,3,2025-02-21_13h22.24.251,comp,2024.2.4,60.16159547199906,2025-02-21 13h22.34.881542 -0500,
2,2,0,critical,wdh,20.0,2.1,lower,57.0,133.0,78.0,78.0,133.0,57.0,3,7.9089274406433105,None,,,,,0,0,0,0,0,2,2,34,67.3021194934845,,,,,,,,,,,,,,,,,,,,,,,,,,,,,,,,,,,,,,,,,,,,,,,,,,,,,,,,,,,,,,,,,,,,,,,,,,,,,,,,,57.0,133.0,78.0,78.0,133.0,57.0,2.1,2.12,-202,-269,0,-271,164,263,67.28772592544556,67.28776717185974,67.28980851173401,67.3021194934845,67.45226764678955,67.45226764678955,67.45226764678955,67.45226764678955,67.45226764678955,67.45226764678955,67.45226764678955,75.22238278388977,3,7.9089274406433105,None,,,,,,,,,,,,,,,,,,77,3,2025-02-21_13h22.24.251,comp,2024.2.4,60.16159547199906,2025-02-21 13h22.34.881542 -0500,
3,3,0,filler_square,None,None,None,None,None,None,None,None,None,None,3,3.264385461807251,None,,,,,0,0,0,0,0,3,3,177,75.23664784431458,,,,,,,,,,,,,,,,,,,,,,,,,,,,,,,,,,,,,,,,,,,,,,,,,,,,,,,,,,,,,,,,,,,,,,,,,,,,,,,,,78.77778280049942,60.830212836482836,95.72419342483845,79.86195804307728,109.27023422566997,109.27023422566997,3.0,3.1,-166,275,0,3,191,-262,75.22321248054504,75.22325134277344,75.22507214546204,75.23664784431458,75.38559627532959,75.38559627532959,75.38559627532959,75.38559627532959,75.38559627532959,75.38559627532959,75.38559627532959,78.50332999229431,3,3.264385461807251,None,,,,,,,,,,,,,,,,,,77,3,2025-02-21_13h22.24.251,comp,2024.2.4,60.16159547199906,2025-02-21 13h22.34.881542 -0500,
4,4,0,critical,dwh,20.0,4.0,lower,78.0,78.0,57.0,133.0,133.0,57.0,3,2.9390547275543213,None,,,,,0,0,0,0,0,4,4,70,78.5189847946167,,,,,,,,,,,,,,,,,,,,,,,,,,,,,,,,,,,,,,,,,,,,,,,,,,,,,,,,,,,,,,,,,,,,,,,,,,,,,,,,,78.0,78.0,57.0,133.0,133.0,57.0,4.0,4.1,-202,-284,0,-11,191,-269,78.50410890579224,78.50414967536926,78.50733613967896,78.5189847946167,78.66892099380493,78.66892099380493,78.66892099380493,78.66892099380493,78.66892099380493,78.66892099380493,78.66892099380493,81.47016882896423,3,2.9390547275543213,None,,,,,,,,,,,,,,,,,,77,3,2025-02-21_13h22.24.251,comp,2024.2.4,60.16159547199906,2025-02-21 13h22.34.881542 -0500,
5,5,0,critical,dhw,35.0,2.1,lower,70.0,70.0,133.0,57.0,57.0,133.0,3,2.3340394496917725,None,,,,,0,0,0,0,0,5,5,0,81.48529171943665,,,,,,,,,,,,,,,,,,,,,,,,,,,,,,,,,,,,,,,,,,,,,,,,,,,,,,,,,,,,,,,,,,,,,,,,,,,,,,,,,70.0,70.0,133.0,57.0,57.0,133.0,2.1,2.11,-160,271,0,270,191,-257,81.47098088264465,81.4710202217102,81.47354316711426,81.48529171943665,81.6353862285614,81.6353862285614,81.6353862285614,81.6353862285614,81.6353862285614,81.6353862285614,81.6353862285614,83.83658528327942,3,2.3340394496917725,None,,,,,,,,,,,,,,,,,,77,3,2025-02-21_13h22.24.251,comp,2024.2.4,60.16159547199906,2025-02-21 13h22.34.881542 -0500,
6,6,0,filler_random,None,None,None,None,None,None,None,None,None,None,1,1.1339857578277588,None,,,,,0,0,0,0,0,6,6,130,83.85204195976257,,,,,,,,,,,,,,,,,,,,,,,,,,,,,,,,,,,,,,,,,,,,,,,,,,,,,,,,,,,,,,,,,,,,,,,,,,,,,,,,,116.70843182675317,167.59195410109612,139.62091660887694,85.10215465421783,100.37853079890316,94.02910573045475,4.0,4.1,-222,-278,0,0,186,-250,83.83749318122864,83.83753442764282,83.83983492851257,83.85204195976257,84.00217390060425,84.00217390060425,84.00217390060425,84.00217390060425,84.00217390060425,84.00217390060425,84.00217390060425,85.00325798988342,1,1.1339857578277588,None,,,,,,,,,,,,,,,,,,77,3,2025-02-21_13h22.24.251,comp,2024.2.4,60.16159547199906,2025-02-21 13h22.34.881542 -0500,
7,7,0,filler_random,None,None,None,None,None,None,None,None,None,None,3,1.271385908126831,None,,,,,0,0,0,0,0,7,7,145,85.01867151260376,,,,,,,,,,,,,,,,,,,,,,,,,,,,,,,,,,,,,,,,,,,,,,,,,,,,,,,,,,,,,,,,,,,,,,,,,,,,,,,,,69.21277242437299,92.79056789403549,74.25140925617862,108.37788144523768,167.20987061787696,182.31358536837442,3.0,3.2,-197,-251,0,12,241,279,85.00418066978455,85.00422167778015,85.00626468658447,85.01867151260376,85.1688756942749,85.1688756942749,85.1688756942749,85.1688756942749,85.1688756942749,85.1688756942749,85.1688756942749,86.3031895160675,3,1.271385908126831,None,,,,,,,,,,,,,,,,,,77,3,2025-02-21_13h22.24.251,comp,2024.2.4,60.16159547199906,2025-02-21 13h22.34.881542 -0500,
8,8,0,critical,whd,20.0,4.0,upper,125.0,200.0,200.0,125.0,141.0,141.0,1,1.5006892681121826,None,,,,,0,0,0,0,0,8,8,95,86.31857013702393,,,,,,,,,,,,,,,,,,,,,,,,,,,,,,,,,,,,,,,,,,,,,,,,,,,,,,,,,,,,,,,,,,,,,,,,,,,,,,,,,125.0,200.0,200.0,125.0,141.0,141.0,4.0,4.1,-258,-283,0,9,229,-255,86.30398297309875,86.3040235042572,86.30655884742737,86.31857013702393,86.46920657157898,86.46920657157898,86.46920657157898,86.46920657157898,86.46920657157898,86.46920657157898,86.46920657157898,87.83669066429138,1,1.5006892681121826,None,,,,,,,,,,,,,,,,,,77,3,2025-02-21_13h22.24.251,comp,2024.2.4,60.16159547199906,2025-02-21 13h22.34.881542 -0500,
9,9,0,critical,hwd,35.0,1.0,upper,200.0,125.0,125.0,200.0,127.0,127.0,1,1.6703174114227295,None,,,,,0,0,0,0,0,9,9,97,87.8519401550293,,,,,,,,,,,,,,,,,,,,,,,,,,,,,,,,,,,,,,,,,,,,,,,,,,,,,,,,,,,,,,,,,,,,,,,,,,,,,,,,,200.0,125.0,125.0,200.0,127.0,127.0,1.0,1.2,-258,-6,0,-11,260,8,87.8374502658844,87.83749008178711,87.8398711681366,87.8519401550293,88.00217723846436,88.00217723846436,88.00217723846436,88.00217723846436,88.00217723846436,88.00217723846436,88.00217723846436,89.53673076629639,1,1.6703174114227295,None,,,,,,,,,,,,,,,,,,77,3,2025-02-21_13h22.24.251,comp,2024.2.4,60.16159547199906,2025-02-21 13h22.34.881542 -0500,
10,10,0,critical,wdh,20.0,2.1,lower,57.0,133.0,78.0,78.0,133.0,57.0,3,3.6589298248291016,None,,,,,0,0,0,0,0,10,10,10,89.55195665359497,,,,,,,,,,,,,,,,,,,,,,,,,,,,,,,,,,,,,,,,,,,,,,,,,,,,,,,,,,,,,,,,,,,,,,,,,,,,,,,,,57.0,133.0,78.0,78.0,133.0,57.0,2.1,2.12,-202,-271,0,-261,164,271,89.5375120639801,89.53755307197571,89.53989219665527,89.55195665359497,89.70242547988892,89.70242547988892,89.70242547988892,89.70242547988892,89.70242547988892,89.70242547988892,89.70242547988892,93.21983194351196,3,3.6589298248291016,None,,,,,,,,,,,,,,,,,,77,3,2025-02-21_13h22.24.251,comp,2024.2.4,60.16159547199906,2025-02-21 13h22.34.881542 -0500,
11,11,0,filler_random,None,None,None,None,None,None,None,None,None,None,1,1.2650103569030762,None,,,,,0,0,0,0,0,11,11,131,93.2354645729065,,,,,,,,,,,,,,,,,,,,,,,,,,,,,,,,,,,,,,,,,,,,,,,,,,,,,,,,,,,,,,,,,,,,,,,,,,,,,,,,,168.31130170613733,90.17786484778418,80.88650663393241,63.33239255394516,120.07482571955723,59.11785819066661,3.0,3.2,-173,-287,0,19,157,273,93.22073173522949,93.22077298164368,93.22275829315186,93.2354645729065,93.38540863990784,93.38540863990784,93.38540863990784,93.38540863990784,93.38540863990784,93.38540863990784,93.38540863990784,94.50354313850403,1,1.2650103569030762,None,,,,,,,,,,,,,,,,,,77,3,2025-02-21_13h22.24.251,comp,2024.2.4,60.16159547199906,2025-02-21 13h22.34.881542 -0500,
12,12,0,critical,hdw,20.0,4.0,lower,133.0,57.0,78.0,78.0,57.0,133.0,1,2.0598995685577393,None,,,,,0,0,0,0,0,12,12,118,94.51894545555115,,,,,,,,,,,,,,,,,,,,,,,,,,,,,,,,,,,,,,,,,,,,,,,,,,,,,,,,,,,,,,,,,,,,,,,,,,,,,,,,,133.0,57.0,78.0,78.0,57.0,133.0,4.0,4.1,-164,-270,0,14,202,-255,94.50433301925659,94.50439071655273,94.50651860237122,94.51894545555115,94.66879534721375,94.66879534721375,94.66879534721375,94.66879534721375,94.66879534721375,94.66879534721375,94.66879534721375,96.58639407157898,1,2.0598995685577393,None,,,,,,,,,,,,,,,,,,77,3,2025-02-21_13h22.24.251,comp,2024.2.4,60.16159547199906,2025-02-21 13h22.34.881542 -0500,
13,13,0,critical,wdh,35.0,3.0,upper,125.0,200.0,127.0,127.0,200.0,125.0,1,1.7135226726531982,None,,,,,0,0,0,0,0,13,13,75,96.60212278366089,,,,,,,,,,,,,,,,,,,,,,,,,,,,,,,,,,,,,,,,,,,,,,,,,,,,,,,,,,,,,,,,,,,,,,,,,,,,,,,,,125.0,200.0,127.0,127.0,200.0,125.0,3.0,3.2,-260,-263,0,7,222,257,96.58717131614685,96.5872118473053,96.58916115760803,96.60212278366089,96.75228071212769,96.75228071212769,96.75228071212769,96.75228071212769,96.75228071212769,96.75228071212769,96.75228071212769,98.32005000114441,1,1.7135226726531982,None,,,,,,,,,,,,,,,,,,77,3,2025-02-21_13h22.24.251,comp,2024.2.4,60.16159547199906,2025-02-21 13h22.34.881542 -0500,
14,14,0,filler_square,None,None,None,None,None,None,None,None,None,None,2,1.034487009048462,None,,,,,0,0,0,0,0,14,14,175,98.33550977706909,,,,,,,,,,,,,,,,,,,,,,,,,,,,,,,,,,,,,,,,,,,,,,,,,,,,,,,,,,,,,,,,,,,,,,,,,,,,,,,,,152.350697081769,79.3142602103955,171.2805334984268,171.2805334984268,99.35533764008849,80.0076391547485,4.0,4.1,-221,-271,0,14,222,-273,98.32103395462036,98.32107400894165,98.32374739646912,98.33550977706909,98.48551273345947,98.48551273345947,98.48551273345947,98.48551273345947,98.48551273345947,98.48551273345947,98.48551273345947,99.3865385055542,2,1.034487009048462,None,,,,,,,,,,,,,,,,,,77,3,2025-02-21_13h22.24.251,comp,2024.2.4,60.16159547199906,2025-02-21 13h22.34.881542 -0500,
15,15,0,filler_square,None,None,None,None,None,None,None,None,None,None,3,5.5681397914886475,None,,,,,0,0,0,0,0,15,15,180,99.40187978744507,,,,,,,,,,,,,,,,,,,,,,,,,,,,,,,,,,,,,,,,,,,,,,,,,,,,,,,,,,,,,,,,,,,,,,,,,,,,,,,,,58.59124616553399,58.81180957786423,57.34047373596046,57.09963474427143,59.063068135871745,59.063068135871745,3.0,3.2,-154,-256,0,-13,154,280,99.38749361038208,99.38753509521484,99.38983225822449,99.40187978744507,99.55204391479492,99.55204391479492,99.55204391479492,99.55204391479492,99.55204391479492,99.55204391479492,99.55204391479492,104.98648238182068,3,5.5681397914886475,None,,,,,,,,,,,,,,,,,,77,3,2025-02-21_13h22.24.251,comp,2024.2.4,60.16159547199906,2025-02-21 13h22.34.881542 -0500,
16,16,0,filler_random,None,None,None,None,None,None,None,None,None,None,2,1.888202428817749,None,,,,,0,0,0,0,0,16,16,158,105.00171446800232,,,,,,,,,,,,,,,,,,,,,,,,,,,,,,,,,,,,,,,,,,,,,,,,,,,,,,,,,,,,,,,,,,,,,,,,,,,,,,,,,155.75395704961645,105.64454469785335,105.54233819172315,160.01245241134094,109.05166127190029,114.5247514025014,2.2,2.22,-229,274,0,-285,233,-267,104.98738408088684,104.98742341995239,104.98969793319702,105.00171446800232,105.152104139328,105.152104139328,105.152104139328,105.152104139328,105.152104139328,105.152104139328,105.152104139328,106.90313768386841,2,1.888202428817749,None,,,,,,,,,,,,,,,,,,77,3,2025-02-21_13h22.24.251,comp,2024.2.4,60.16159547199906,2025-02-21 13h22.34.881542 -0500,
17,17,0,critical,hwd,20.0,2.1,upper,200.0,125.0,125.0,200.0,141.0,141.0,2,2.403630256652832,None,,,,,0,0,0,0,0,17,17,43,106.91848015785217,,,,,,,,,,,,,,,,,,,,,,,,,,,,,,,,,,,,,,,,,,,,,,,,,,,,,,,,,,,,,,,,,,,,,,,,,,,,,,,,,200.0,125.0,125.0,200.0,141.0,141.0,2.1,2.12,-258,-261,0,-274,266,263,106.90394306182861,106.90398287773132,106.90646243095398,106.91848015785217,107.06885862350464,107.06885862350464,107.06885862350464,107.06885862350464,107.06885862350464,107.06885862350464,107.06885862350464,109.33662176132202,2,2.403630256652832,None,,,,,,,,,,,,,,,,,,77,3,2025-02-21_13h22.24.251,comp,2024.2.4,60.16159547199906,2025-02-21 13h22.34.881542 -0500,
18,18,0,catch,None,None,None,None,None,None,None,None,None,None,3,1.3631911277770996,None,,,,,0,0,0,0,0,18,18,124,109.35194563865662,,,,,,,,,,,,,,,,,,,,,,,,,,,,,,,,,,,,,,,,,,,,,,,,,,,,,,,,,,,,,,,,,,,,,,,,,,,,,,,,,98,92,59,131,162,163,4.0,4.2,-208,-3,0,-284,243,20,109.33766436576843,109.3377046585083,109.33976912498474,109.35194563865662,109.50209307670593,109.50209307670593,109.50209307670593,109.50209307670593,109.50209307670593,109.50209307670593,109.50209307670593,110.72004961967468,3,1.3631911277770996,None,,,,,,,,,,,,,,,,,,77,3,2025-02-21_13h22.24.251,comp,2024.2.4,60.16159547199906,2025-02-21 13h22.34.881542 -0500,
19,19,0,critical,hdw,20.0,3.0,lower,133.0,57.0,78.0,78.0,57.0,133.0,1,1.3652422428131104,None,,,,,0,0,0,0,0,19,19,116,110.7354416847229,,,,,,,,,,,,,,,,,,,,,,,,,,,,,,,,,,,,,,,,,,,,,,,,,,,,,,,,,,,,,,,,,,,,,,,,,,,,,,,,,133.0,57.0,78.0,78.0,57.0,133.0,3.0,3.2,-164,-251,0,-5,202,269,110.72083973884583,110.7208788394928,110.72286939620972,110.7354416847229,110.88526940345764,110.88526940345764,110.88526940345764,110.88526940345764,110.88526940345764,110.88526940345764,110.88526940345764,112.10307145118713,1,1.3652422428131104,None,,,,,,,,,,,,,,,,,,77,3,2025-02-21_13h22.24.251,comp,2024.2.4,60.16159547199906,2025-02-21 13h22.34.881542 -0500,
20,20,0,critical,hwd,20.0,4.0,upper,200.0,125.0,125.0,200.0,141.0,141.0,2,1.9081504344940186,None,,,,,0,0,0,0,0,20,20,107,112.11860513687134,,,,,,,,,,,,,,,,,,,,,,,,,,,,,,,,,,,,,,,,,,,,,,,,,,,,,,,,,,,,,,,,,,,,,,,,,,,,,,,,,200.0,125.0,125.0,200.0,141.0,141.0,4.0,4.2,-258,12,0,-268,266,10,112.10386943817139,112.10391020774841,112.1059160232544,112.11860513687134,112.26908254623413,112.26908254623413,112.26908254623413,112.26908254623413,112.26908254623413,112.26908254623413,112.26908254623413,114.03651475906372,2,1.9081504344940186,None,,,,,,,,,,,,,,,,,,77,3,2025-02-21_13h22.24.251,comp,2024.2.4,60.16159547199906,2025-02-21 13h22.34.881542 -0500,
21,21,0,critical,hwd,20.0,2.1,lower,133.0,57.0,57.0,133.0,78.0,78.0,2,1.6322605609893799,None,,,,,0,0,0,0,0,21,21,42,114.05214166641235,,,,,,,,,,,,,,,,,,,,,,,,,,,,,,,,,,,,,,,,,,,,,,,,,,,,,,,,,,,,,,,,,,,,,,,,,,,,,,,,,133.0,57.0,57.0,133.0,78.0,78.0,2.1,2.12,-191,-258,0,-252,202,277,114.03730177879333,114.037353515625,114.03939032554626,114.05214166641235,114.20197582244873,114.20197582244873,114.20197582244873,114.20197582244873,114.20197582244873,114.20197582244873,114.20197582244873,115.68659114837646,2,1.6322605609893799,None,,,,,,,,,,,,,,,,,,77,3,2025-02-21_13h22.24.251,comp,2024.2.4,60.16159547199906,2025-02-21 13h22.34.881542 -0500,
22,22,0,filler_random,None,None,None,None,None,None,None,None,None,None,3,1.2926082611083984,None,,,,,0,0,0,0,0,22,22,139,115.70205974578857,,,,,,,,,,,,,,,,,,,,,,,,,,,,,,,,,,,,,,,,,,,,,,,,,,,,,,,,,,,,,,,,,,,,,,,,,,,,,,,,,77.06125192420767,124.90950944947863,68.80204008357724,136.2718499446442,182.26626722383625,70.71638487710283,4.0,4.1,-227,-251,0,8,199,-274,115.68748259544373,115.68752408027649,115.68956542015076,115.70205974578857,115.8519196510315,115.8519196510315,115.8519196510315,115.8519196510315,115.8519196510315,115.8519196510315,115.8519196510315,117.00299835205078,3,1.2926082611083984,None,,,,,,,,,,,,,,,,,,77,3,2025-02-21_13h22.24.251,comp,2024.2.4,60.16159547199906,2025-02-21 13h22.34.881542 -0500,
23,23,0,critical,dhw,20.0,1.0,lower,78.0,78.0,133.0,57.0,57.0,133.0,3,1.6333949565887451,None,,,,,0,0,0,0,0,23,23,54,117.01857781410217,,,,,,,,,,,,,,,,,,,,,,,,,,,,,,,,,,,,,,,,,,,,,,,,,,,,,,,,,,,,,,,,,,,,,,,,,,,,,,,,,78.0,78.0,133.0,57.0,57.0,133.0,1.0,1.1,-644,256,-480,281,-289,260,117.00382041931152,117.00386190414429,117.00636029243469,117.01857781410217,117.16854190826416,117.16854190826416,117.16854190826416,117.16854190826416,117.16854190826416,117.16854190826416,117.16854190826416,118.6531355381012,3,1.6333949565887451,None,,,,,,,,,,,,,,,,,,77,3,2025-02-21_13h22.24.251,comp,2024.2.4,60.16159547199906,2025-02-21 13h22.34.881542 -0500,
24,24,0,critical,dwh,20.0,1.0,upper,141.0,141.0,125.0,200.0,200.0,125.0,3,1.0530030727386475,None,,,,,0,0,0,0,0,24,24,67,118.66882228851318,,,,,,,,,,,,,,,,,,,,,,,,,,,,,,,,,,,,,,,,,,,,,,,,,,,,,,,,,,,,,,,,,,,,,,,,,,,,,,,,,141.0,141.0,125.0,200.0,200.0,125.0,1.0,1.2,-266,6,0,5,258,1,118.65396976470947,118.65401077270508,118.65602993965149,118.66882228851318,118.8186891078949,118.8186891078949,118.8186891078949,118.8186891078949,118.8186891078949,118.8186891078949,118.8186891078949,119.7372317314148,3,1.0530030727386475,None,,,,,,,,,,,,,,,,,,77,3,2025-02-21_13h22.24.251,comp,2024.2.4,60.16159547199906,2025-02-21 13h22.34.881542 -0500,
25,25,0,critical,whd,35.0,4.0,upper,125.0,200.0,200.0,125.0,127.0,127.0,1,1.132431983947754,None,,,,,0,0,0,0,0,25,25,89,119.7525053024292,,,,,,,,,,,,,,,,,,,,,,,,,,,,,,,,,,,,,,,,,,,,,,,,,,,,,,,,,,,,,,,,,,,,,,,,,,,,,,,,,125.0,200.0,200.0,125.0,127.0,127.0,4.0,4.1,-258,-286,0,6,222,-271,119.73803949356079,119.73808026313782,119.73998928070068,119.7525053024292,119.90289568901062,119.90289568901062,119.90289568901062,119.90289568901062,119.90289568901062,119.90289568901062,119.90289568901062,120.88694906234741,1,1.132431983947754,None,,,,,,,,,,,,,,,,,,77,3,2025-02-21_13h22.24.251,comp,2024.2.4,60.16159547199906,2025-02-21 13h22.34.881542 -0500,
26,26,0,critical,wdh,35.0,3.0,lower,57.0,133.0,70.0,70.0,133.0,57.0,3,1.4363932609558105,None,,,,,0,0,0,0,0,26,26,74,120.90209150314331,,,,,,,,,,,,,,,,,,,,,,,,,,,,,,,,,,,,,,,,,,,,,,,,,,,,,,,,,,,,,,,,,,,,,,,,,,,,,,,,,57.0,133.0,70.0,70.0,133.0,57.0,3.0,3.2,-198,-262,0,-14,160,271,120.88775992393494,120.88780164718628,120.88994145393372,120.90209150314331,121.05216240882874,121.05216240882874,121.05216240882874,121.05216240882874,121.05216240882874,121.05216240882874,121.05216240882874,122.35298466682434,3,1.4363932609558105,None,,,,,,,,,,,,,,,,,,77,3,2025-02-21_13h22.24.251,comp,2024.2.4,60.16159547199906,2025-02-21 13h22.34.881542 -0500,
27,27,0,filler_square,None,None,None,None,None,None,None,None,None,None,3,1.3052432537078857,None,,,,,0,0,0,0,0,27,27,182,122.36848878860474,,,,,,,,,,,,,,,,,,,,,,,,,,,,,,,,,,,,,,,,,,,,,,,,,,,,,,,,,,,,,,,,,,,,,,,,,,,,,,,,,91.17564859594505,108.37684764689305,77.02048176645592,98.45401096143968,117.23760608869678,117.23760608869678,2.1,2.11,-199,282,0,275,204,-262,122.35395383834839,122.35399293899536,122.35644435882568,122.36848878860474,122.51857805252075,122.51857805252075,122.51857805252075,122.51857805252075,122.51857805252075,122.51857805252075,122.51857805252075,123.68647384643555,3,1.3052432537078857,None,,,,,,,,,,,,,,,,,,77,3,2025-02-21_13h22.24.251,comp,2024.2.4,60.16159547199906,2025-02-21 13h22.34.881542 -0500,
28,28,0,critical,wdh,20.0,4.0,lower,57.0,133.0,78.0,78.0,133.0,57.0,3,1.2288668155670166,None,,,,,0,0,0,0,0,28,28,82,123.70176243782043,,,,,,,,,,,,,,,,,,,,,,,,,,,,,,,,,,,,,,,,,,,,,,,,,,,,,,,,,,,,,,,,,,,,,,,,,,,,,,,,,57.0,133.0,78.0,78.0,133.0,57.0,4.0,4.2,-202,-8,0,-287,164,14,123.6872444152832,123.68728494644165,123.68927645683289,123.70176243782043,123.85181188583374,123.85181188583374,123.85181188583374,123.85181188583374,123.85181188583374,123.85181188583374,123.85181188583374,124.93644666671753,3,1.2288668155670166,None,,,,,,,,,,,,,,,,,,77,3,2025-02-21_13h22.24.251,comp,2024.2.4,60.16159547199906,2025-02-21 13h22.34.881542 -0500,
29,29,0,critical,dhw,35.0,2.1,upper,127.0,127.0,200.0,125.0,125.0,200.0,2,1.1545166969299316,None,,,,,0,0,0,0,0,29,29,1,124.95195937156677,,,,,,,,,,,,,,,,,,,,,,,,,,,,,,,,,,,,,,,,,,,,,,,,,,,,,,,,,,,,,,,,,,,,,,,,,,,,,,,,,127.0,127.0,200.0,125.0,125.0,200.0,2.1,2.11,-222,255,0,251,258,-266,124.93722534179688,124.93726587295532,124.9394919872284,124.95195937156677,125.1021020412445,125.1021020412445,125.1021020412445,125.1021020412445,125.1021020412445,125.1021020412445,125.1021020412445,126.11973023414612,2,1.1545166969299316,None,,,,,,,,,,,,,,,,,,77,3,2025-02-21_13h22.24.251,comp,2024.2.4,60.16159547199906,2025-02-21 13h22.34.881542 -0500,
30,30,0,critical,dwh,20.0,2.1,lower,78.0,78.0,57.0,133.0,133.0,57.0,3,1.3387248516082764,None,,,,,0,0,0,0,0,30,30,30,126.13496899604797,,,,,,,,,,,,,,,,,,,,,,,,,,,,,,,,,,,,,,,,,,,,,,,,,,,,,,,,,,,,,,,,,,,,,,,,,,,,,,,,,78.0,78.0,57.0,133.0,133.0,57.0,2.1,2.12,-202,-282,0,-261,191,268,126.12052845954895,126.1205689907074,126.12292385101318,126.13496899604797,126.2852692604065,126.2852692604065,126.2852692604065,126.2852692604065,126.2852692604065,126.2852692604065,126.2852692604065,127.48636746406555,3,1.3387248516082764,None,,,,,,,,,,,,,,,,,,77,3,2025-02-21_13h22.24.251,comp,2024.2.4,60.16159547199906,2025-02-21 13h22.34.881542 -0500,
31,31,0,critical,dhw,20.0,2.1,upper,141.0,141.0,200.0,125.0,125.0,200.0,2,2.460918664932251,None,,,,,0,0,0,0,0,31,31,3,127.5017204284668,,,,,,,,,,,,,,,,,,,,,,,,,,,,,,,,,,,,,,,,,,,,,,,,,,,,,,,,,,,,,,,,,,,,,,,,,,,,,,,,,141.0,141.0,200.0,125.0,125.0,200.0,2.1,2.11,-229,283,0,258,258,-277,127.4871666431427,127.48720645904541,127.48927927017212,127.5017204284668,127.65210175514221,127.65210175514221,127.65210175514221,127.65210175514221,127.65210175514221,127.65210175514221,127.65210175514221,129.9698429107666,2,2.460918664932251,None,,,,,,,,,,,,,,,,,,77,3,2025-02-21_13h22.24.251,comp,2024.2.4,60.16159547199906,2025-02-21 13h22.34.881542 -0500,
32,32,0,critical,wdh,20.0,1.0,lower,57.0,133.0,78.0,78.0,133.0,57.0,3,1.4723670482635498,None,,,,,0,0,0,0,0,32,32,78,129.98527908325195,,,,,,,,,,,,,,,,,,,,,,,,,,,,,,,,,,,,,,,,,,,,,,,,,,,,,,,,,,,,,,,,,,,,,,,,,,,,,,,,,57.0,133.0,78.0,78.0,133.0,57.0,1.0,1.3,278,-280,480,-271,644,-267,129.97063064575195,129.9706733226776,129.9727258682251,129.98527908325195,130.13523697853088,130.13523697853088,130.13523697853088,130.13523697853088,130.13523697853088,130.13523697853088,130.13523697853088,131.4700469970703,3,1.4723670482635498,None,,,,,,,,,,,,,,,,,,77,3,2025-02-21_13h22.24.251,comp,2024.2.4,60.16159547199906,2025-02-21 13h22.34.881542 -0500,
33,33,0,critical,dhw,20.0,4.0,lower,78.0,78.0,133.0,57.0,57.0,133.0,3,1.453019618988037,None,,,,,0,0,0,0,0,33,33,58,131.48499751091003,,,,,,,,,,,,,,,,,,,,,,,,,,,,,,,,,,,,,,,,,,,,,,,,,,,,,,,,,,,,,,,,,,,,,,,,,,,,,,,,,78.0,78.0,133.0,57.0,57.0,133.0,4.0,4.1,-164,-280,0,2,191,-283,131.47092747688293,131.47096705436707,131.47329902648926,131.48499751091003,131.63509821891785,131.63509821891785,131.63509821891785,131.63509821891785,131.63509821891785,131.63509821891785,131.63509821891785,132.9529092311859,3,1.453019618988037,None,,,,,,,,,,,,,,,,,,77,3,2025-02-21_13h22.24.251,comp,2024.2.4,60.16159547199906,2025-02-21 13h22.34.881542 -0500,
34,34,0,critical,whd,35.0,3.0,upper,125.0,200.0,200.0,125.0,127.0,127.0,2,1.050549030303955,None,,,,,0,0,0,0,0,34,34,87,132.9684112071991,,,,,,,,,,,,,,,,,,,,,,,,,,,,,,,,,,,,,,,,,,,,,,,,,,,,,,,,,,,,,,,,,,,,,,,,,,,,,,,,,125.0,200.0,200.0,125.0,127.0,127.0,3.0,3.1,-258,256,0,-13,222,-284,132.95370864868164,132.9537477493286,132.95620012283325,132.9684112071991,133.11885261535645,133.11885261535645,133.11885261535645,133.11885261535645,133.11885261535645,133.11885261535645,133.11885261535645,134.03647470474243,2,1.050549030303955,None,,,,,,,,,,,,,,,,,,77,3,2025-02-21_13h22.24.251,comp,2024.2.4,60.16159547199906,2025-02-21 13h22.34.881542 -0500,
35,35,0,filler_random,None,None,None,None,None,None,None,None,None,None,2,0.774954080581665,None,,,,,0,0,0,0,0,35,35,153,134.05159878730774,,,,,,,,,,,,,,,,,,,,,,,,,,,,,,,,,,,,,,,,,,,,,,,,,,,,,,,,,,,,,,,,,,,,,,,,,,,,,,,,,62.6282819547997,126.35835533262615,155.06539680922265,166.44668004450244,65.75370219535591,70.72304425882214,3.0,3.1,-242,259,0,-5,215,-262,134.0373170375824,134.03736925125122,134.0392816066742,134.05159878730774,134.20178532600403,134.20178532600403,134.20178532600403,134.20178532600403,134.20178532600403,134.20178532600403,134.20178532600403,134.83622980117798,2,0.774954080581665,None,,,,,,,,,,,,,,,,,,77,3,2025-02-21_13h22.24.251,comp,2024.2.4,60.16159547199906,2025-02-21 13h22.34.881542 -0500,
36,36,0,filler_random,None,None,None,None,None,None,None,None,None,None,2,0.8787438869476318,None,,,,,0,0,0,0,0,36,36,133,134.85185170173645,,,,,,,,,,,,,,,,,,,,,,,,,,,,,,,,,,,,,,,,,,,,,,,,,,,,,,,,,,,,,,,,,,,,,,,,,,,,,,,,,68.27176884664715,83.35998594357326,156.9437124434993,110.89042086678353,149.1071513799073,57.605723382396505,4.0,4.2,-193,-7,0,-258,180,15,134.83716917037964,134.8372106552124,134.83987092971802,134.85185170173645,135.0020477771759,135.0020477771759,135.0020477771759,135.0020477771759,135.0020477771759,135.0020477771759,135.0020477771759,135.73625826835632,2,0.8787438869476318,None,,,,,,,,,,,,,,,,,,77,3,2025-02-21_13h22.24.251,comp,2024.2.4,60.16159547199906,2025-02-21 13h22.34.881542 -0500,
37,37,0,filler_random,None,None,None,None,None,None,None,None,None,None,3,1.2019374370574951,None,,,,,0,0,0,0,0,37,37,151,135.75194454193115,,,,,,,,,,,,,,,,,,,,,,,,,,,,,,,,,,,,,,,,,,,,,,,,,,,,,,,,,,,,,,,,,,,,,,,,,,,,,,,,,123.62725331123958,111.56677442411618,148.49660892453488,112.7064392284426,197.4393394789581,198.66722823592994,2.2,2.21,-208,-277,0,269,252,280,135.737202167511,135.73724365234375,135.73927307128906,135.75194454193115,135.90197849273682,135.90197849273682,135.90197849273682,135.90197849273682,135.90197849273682,135.90197849273682,135.90197849273682,136.96973633766174,3,1.2019374370574951,None,,,,,,,,,,,,,,,,,,77,3,2025-02-21_13h22.24.251,comp,2024.2.4,60.16159547199906,2025-02-21 13h22.34.881542 -0500,
38,38,0,filler_random,None,None,None,None,None,None,None,None,None,None,1,1.0885734558105469,None,,,,,0,0,0,0,0,38,38,136,136.9850263595581,,,,,,,,,,,,,,,,,,,,,,,,,,,,,,,,,,,,,,,,,,,,,,,,,,,,,,,,,,,,,,,,,,,,,,,,,,,,,,,,,91.89693897237476,197.2073905951004,191.01004035869784,103.87847597596661,87.57336246003294,127.82501335076138,2.2,2.21,-247,-257,0,254,212,265,136.9706494808197,136.97069096565247,136.97302842140198,136.9850263595581,137.13512063026428,137.13512063026428,137.13512063026428,137.13512063026428,137.13512063026428,137.13512063026428,137.13512063026428,138.08627343177795,1,1.0885734558105469,None,,,,,,,,,,,,,,,,,,77,3,2025-02-21_13h22.24.251,comp,2024.2.4,60.16159547199906,2025-02-21 13h22.34.881542 -0500,
39,39,0,filler_square,None,None,None,None,None,None,None,None,None,None,3,1.2929151058197021,None,,,,,0,0,0,0,0,39,39,207,138.1016297340393,,,,,,,,,,,,,,,,,,,,,,,,,,,,,,,,,,,,,,,,,,,,,,,,,,,,,,,,,,,,,,,,,,,,,,,,,,,,,,,,,82.86536128730529,177.49766483095252,176.97188717231273,117.25937749712318,196.48180811286457,196.48180811286457,4.0,4.1,-243,-288,0,4,253,-260,138.0872323513031,138.08727550506592,138.0892791748047,138.1016297340393,138.25193762779236,138.25193762779236,138.25193762779236,138.25193762779236,138.25193762779236,138.25193762779236,138.25193762779236,139.40320920944214,3,1.2929151058197021,None,,,,,,,,,,,,,,,,,,77,3,2025-02-21_13h22.24.251,comp,2024.2.4,60.16159547199906,2025-02-21 13h22.34.881542 -0500,
40,40,0,critical,dhw,35.0,3.0,upper,127.0,127.0,200.0,125.0,125.0,200.0,3,0.9436068534851074,None,,,,,0,0,0,0,0,40,40,51,139.41891646385193,,,,,,,,,,,,,,,,,,,,,,,,,,,,,,,,,,,,,,,,,,,,,,,,,,,,,,,,,,,,,,,,,,,,,,,,,,,,,,,,,127.0,127.0,200.0,125.0,125.0,200.0,3.0,3.2,-222,-267,0,-15,258,261,139.40404415130615,139.40408444404602,139.40661597251892,139.41891646385193,139.56867671012878,139.56867671012878,139.56867671012878,139.56867671012878,139.56867671012878,139.56867671012878,139.56867671012878,140.3697533607483,3,0.9436068534851074,None,,,,,,,,,,,,,,,,,,77,3,2025-02-21_13h22.24.251,comp,2024.2.4,60.16159547199906,2025-02-21 13h22.34.881542 -0500,
41,41,0,critical,dwh,35.0,1.0,lower,70.0,70.0,57.0,133.0,133.0,57.0,3,1.5045068264007568,None,,,,,0,0,0,0,0,41,41,60,140.38520741462708,,,,,,,,,,,,,,,,,,,,,,,,,,,,,,,,,,,,,,,,,,,,,,,,,,,,,,,,,,,,,,,,,,,,,,,,,,,,,,,,,70.0,70.0,57.0,133.0,133.0,57.0,1.0,1.1,-678,279,-480,270,-289,285,140.37055778503418,140.37059831619263,140.37269735336304,140.38520741462708,140.5349576473236,140.5349576473236,140.5349576473236,140.5349576473236,140.5349576473236,140.5349576473236,140.5349576473236,141.90280199050903,3,1.5045068264007568,None,,,,,,,,,,,,,,,,,,77,3,2025-02-21_13h22.24.251,comp,2024.2.4,60.16159547199906,2025-02-21 13h22.34.881542 -0500,
42,42,0,critical,dwh,35.0,2.1,upper,127.0,127.0,125.0,200.0,200.0,125.0,3,1.0442285537719727,None,,,,,0,0,0,0,0,42,42,29,141.91827511787415,,,,,,,,,,,,,,,,,,,,,,,,,,,,,,,,,,,,,,,,,,,,,,,,,,,,,,,,,,,,,,,,,,,,,,,,,,,,,,,,,127.0,127.0,125.0,200.0,200.0,125.0,2.1,2.11,-260,264,0,284,258,-266,141.90360951423645,141.90364933013916,141.90605235099792,141.91827511787415,142.06863689422607,142.06863689422607,142.06863689422607,142.06863689422607,142.06863689422607,142.06863689422607,142.06863689422607,142.9696764945984,3,1.0442285537719727,None,,,,,,,,,,,,,,,,,,77,3,2025-02-21_13h22.24.251,comp,2024.2.4,60.16159547199906,2025-02-21 13h22.34.881542 -0500,
43,43,0,filler_square,None,None,None,None,None,None,None,None,None,None,2,1.488426923751831,None,,,,,0,0,0,0,0,43,43,198,142.98517227172852,,,,,,,,,,,,,,,,,,,,,,,,,,,,,,,,,,,,,,,,,,,,,,,,,,,,,,,,,,,,,,,,,,,,,,,,,,,,,,,,,99.05272078079156,69.64310566220237,171.23215414727565,171.23215414727565,169.08762266022933,168.45999370327712,2.1,2.12,-216,-278,0,-256,266,286,142.97059392929077,142.9706335067749,142.97259378433228,142.98517227172852,143.13528847694397,143.13528847694397,143.13528847694397,143.13528847694397,143.13528847694397,143.13528847694397,143.13528847694397,144.48641800880432,2,1.488426923751831,None,,,,,,,,,,,,,,,,,,77,3,2025-02-21_13h22.24.251,comp,2024.2.4,60.16159547199906,2025-02-21 13h22.34.881542 -0500,
44,44,0,filler_random,None,None,None,None,None,None,None,None,None,None,1,1.1666123867034912,None,,,,,0,0,0,0,0,44,44,167,144.50149846076965,,,,,,,,,,,,,,,,,,,,,,,,,,,,,,,,,,,,,,,,,,,,,,,,,,,,,,,,,,,,,,,,,,,,,,,,,,,,,,,,,158.14217206634882,159.75967990562907,163.36620825713214,122.52949699380325,119.45959720842527,76.2898189764788,3.0,3.1,-237,269,0,7,195,-261,144.4873538017273,144.48739528656006,144.48971271514893,144.50149846076965,144.65191078186035,144.65191078186035,144.65191078186035,144.65191078186035,144.65191078186035,144.65191078186035,144.65191078186035,145.6862268447876,1,1.1666123867034912,None,,,,,,,,,,,,,,,,,,77,3,2025-02-21_13h22.24.251,comp,2024.2.4,60.16159547199906,2025-02-21 13h22.34.881542 -0500,
45,45,0,critical,hdw,20.0,3.0,upper,200.0,125.0,141.0,141.0,125.0,200.0,1,2.052192449569702,None,,,,,0,0,0,0,0,45,45,117,145.70158076286316,,,,,,,,,,,,,,,,,,,,,,,,,,,,,,,,,,,,,,,,,,,,,,,,,,,,,,,,,,,,,,,,,,,,,,,,,,,,,,,,,200.0,125.0,141.0,141.0,125.0,200.0,3.0,3.1,-229,275,0,-11,266,-273,145.68730878829956,145.68736028671265,145.689777135849,145.70158076286316,145.8518784046173,145.8518784046173,145.8518784046173,145.8518784046173,145.8518784046173,145.8518784046173,145.8518784046173,147.76969408988953,1,2.052192449569702,None,,,,,,,,,,,,,,,,,,77,3,2025-02-21_13h22.24.251,comp,2024.2.4,60.16159547199906,2025-02-21 13h22.34.881542 -0500,
46,46,0,filler_square,None,None,None,None,None,None,None,None,None,None,1,0.9528026580810547,None,,,,,0,0,0,0,0,46,46,192,147.7849040031433,,,,,,,,,,,,,,,,,,,,,,,,,,,,,,,,,,,,,,,,,,,,,,,,,,,,,,,,,,,,,,,,,,,,,,,,,,,,,,,,,169.1327697700657,169.1327697700657,116.15497217107333,86.27255365665744,115.14264640952354,77.04833957898182,4.0,4.1,-224,-270,0,-8,178,-285,147.77060174942017,147.7706401348114,147.77287650108337,147.7849040031433,147.93505930900574,147.93505930900574,147.93505930900574,147.93505930900574,147.93505930900574,147.93505930900574,147.93505930900574,148.75293588638306,1,0.9528026580810547,None,,,,,,,,,,,,,,,,,,77,3,2025-02-21_13h22.24.251,comp,2024.2.4,60.16159547199906,2025-02-21 13h22.34.881542 -0500,
47,47,0,critical,dwh,20.0,2.1,upper,141.0,141.0,125.0,200.0,200.0,125.0,3,2.362084150314331,None,,,,,0,0,0,0,0,47,47,31,148.76831722259521,,,,,,,,,,,,,,,,,,,,,,,,,,,,,,,,,,,,,,,,,,,,,,,,,,,,,,,,,,,,,,,,,,,,,,,,,,,,,,,,,141.0,141.0,125.0,200.0,200.0,125.0,2.1,2.12,-266,-268,0,-278,258,251,148.75374722480774,148.75378727912903,148.75618147850037,148.76831722259521,148.91867780685425,148.91867780685425,148.91867780685425,148.91867780685425,148.91867780685425,148.91867780685425,148.91867780685425,151.13637852668762,3,2.362084150314331,None,,,,,,,,,,,,,,,,,,77,3,2025-02-21_13h22.24.251,comp,2024.2.4,60.16159547199906,2025-02-21 13h22.34.881542 -0500,
48,48,0,filler_square,None,None,None,None,None,None,None,None,None,None,2,1.8832006454467773,None,,,,,0,0,0,0,0,48,48,172,151.15187644958496,,,,,,,,,,,,,,,,,,,,,,,,,,,,,,,,,,,,,,,,,,,,,,,,,,,,,,,,,,,,,,,,,,,,,,,,,,,,,,,,,62.33073746904249,70.85977337084357,74.83815029055879,57.35697773981028,75.75879288347001,75.75879288347001,1.0,1.3,320,-289,480,-270,643,-254,151.13733744621277,151.1373918056488,151.1395559310913,151.15187644958496,151.30155515670776,151.30155515670776,151.30155515670776,151.30155515670776,151.30155515670776,151.30155515670776,151.30155515670776,153.05285382270813,2,1.8832006454467773,None,,,,,,,,,,,,,,,,,,77,3,2025-02-21_13h22.24.251,comp,2024.2.4,60.16159547199906,2025-02-21 13h22.34.881542 -0500,
49,49,0,critical,hwd,35.0,2.1,lower,133.0,57.0,57.0,133.0,70.0,70.0,2,3.1421542167663574,None,,,,,0,0,0,0,0,49,49,16,153.0682828426361,,,,,,,,,,,,,,,,,,,,,,,,,,,,,,,,,,,,,,,,,,,,,,,,,,,,,,,,,,,,,,,,,,,,,,,,,,,,,,,,,133.0,57.0,57.0,133.0,70.0,70.0,2.1,2.11,-191,285,0,286,198,-274,153.0536801815033,153.05372023582458,153.05615210533142,153.0682828426361,153.21829867362976,153.21829867362976,153.21829867362976,153.21829867362976,153.21829867362976,153.21829867362976,153.21829867362976,156.21947073936462,2,3.1421542167663574,None,,,,,,,,,,,,,,,,,,77,3,2025-02-21_13h22.24.251,comp,2024.2.4,60.16159547199906,2025-02-21 13h22.34.881542 -0500,
50,50,0,filler_random,None,None,None,None,None,None,None,None,None,None,2,0.9753072261810303,None,,,,,0,0,0,0,0,50,50,135,156.23514366149902,,,,,,,,,,,,,,,,,,,,,,,,,,,,,,,,,,,,,,,,,,,,,,,,,,,,,,,,,,,,,,,,,,,,,,,,,,,,,,,,,57.04794799280001,175.43098346054512,161.55577614492296,186.30623265241795,120.80007252909806,170.67218969588396,1.0,1.3,203,-251,480,-285,754,-286,156.22047662734985,156.22051620483398,156.22264456748962,156.23514366149902,156.3851776123047,156.3851776123047,156.3851776123047,156.3851776123047,156.3851776123047,156.3851776123047,156.3851776123047,157.2196192741394,2,0.9753072261810303,None,,,,,,,,,,,,,,,,,,77,3,2025-02-21_13h22.24.251,comp,2024.2.4,60.16159547199906,2025-02-21 13h22.34.881542 -0500,
51,51,0,filler_square,None,None,None,None,None,None,None,None,None,None,3,1.2002155780792236,None,,,,,0,0,0,0,0,51,51,204,157.23504662513733,,,,,,,,,,,,,,,,,,,,,,,,,,,,,,,,,,,,,,,,,,,,,,,,,,,,,,,,,,,,,,,,,,,,,,,,,,,,,,,,,65.87134685620383,99.43101611575119,100.26987106709524,101.59150489818572,109.65505271891986,109.65505271891986,2.2,2.21,-197,-258,0,259,202,267,157.22054052352905,157.2205798625946,157.22254133224487,157.23504662513733,157.38489770889282,157.38489770889282,157.38489770889282,157.38489770889282,157.38489770889282,157.38489770889282,157.38489770889282,158.45290851593018,3,1.2002155780792236,None,,,,,,,,,,,,,,,,,,77,3,2025-02-21_13h22.24.251,comp,2024.2.4,60.16159547199906,2025-02-21 13h22.34.881542 -0500,
52,52,0,critical,hwd,35.0,2.1,lower,133.0,57.0,57.0,133.0,70.0,70.0,1,1.4051992893218994,None,,,,,0,0,0,0,0,52,52,40,158.46823954582214,,,,,,,,,,,,,,,,,,,,,,,,,,,,,,,,,,,,,,,,,,,,,,,,,,,,,,,,,,,,,,,,,,,,,,,,,,,,,,,,,133.0,57.0,57.0,133.0,70.0,70.0,2.1,2.11,-191,272,0,275,198,-284,158.4537136554718,158.4537537097931,158.4561219215393,158.46823954582214,158.6182405948639,158.6182405948639,158.6182405948639,158.6182405948639,158.6182405948639,158.6182405948639,158.6182405948639,159.88607668876648,1,1.4051992893218994,None,,,,,,,,,,,,,,,,,,77,3,2025-02-21_13h22.24.251,comp,2024.2.4,60.16159547199906,2025-02-21 13h22.34.881542 -0500,
53,53,0,critical,hwd,20.0,4.0,lower,133.0,57.0,57.0,133.0,78.0,78.0,1,1.43638277053833,None,,,,,0,0,0,0,0,53,53,106,159.9015064239502,,,,,,,,,,,,,,,,,,,,,,,,,,,,,,,,,,,,,,,,,,,,,,,,,,,,,,,,,,,,,,,,,,,,,,,,,,,,,,,,,133.0,57.0,57.0,133.0,78.0,78.0,4.0,4.2,-191,2,0,-287,202,-8,159.886887550354,159.88692712783813,159.88905358314514,159.9015064239502,160.05160927772522,160.05160927772522,160.05160927772522,160.05160927772522,160.05160927772522,160.05160927772522,160.05160927772522,161.35275387763977,1,1.43638277053833,None,,,,,,,,,,,,,,,,,,77,3,2025-02-21_13h22.24.251,comp,2024.2.4,60.16159547199906,2025-02-21 13h22.34.881542 -0500,
54,54,0,filler_random,None,None,None,None,None,None,None,None,None,None,2,1.7382543087005615,None,,,,,0,0,0,0,0,54,54,163,161.3680272102356,,,,,,,,,,,,,,,,,,,,,,,,,,,,,,,,,,,,,,,,,,,,,,,,,,,,,,,,,,,,,,,,,,,,,,,,,,,,,,,,,66.67265798606033,135.76322714680427,79.07244829057178,164.59732854427025,154.13037945141053,79.65906459676803,2.2,2.21,-246,-289,0,265,218,255,161.35363960266113,161.3536810874939,161.35604405403137,161.3680272102356,161.5183629989624,161.5183629989624,161.5183629989624,161.5183629989624,161.5183629989624,161.5183629989624,161.5183629989624,163.11948800086975,2,1.7382543087005615,None,,,,,,,,,,,,,,,,,,77,3,2025-02-21_13h22.24.251,comp,2024.2.4,60.16159547199906,2025-02-21 13h22.34.881542 -0500,
55,55,0,catch,None,None,None,None,None,None,None,None,None,None,2,0.8347716331481934,None,,,,,0,0,0,0,0,55,55,126,163.1348249912262,,,,,,,,,,,,,,,,,,,,,,,,,,,,,,,,,,,,,,,,,,,,,,,,,,,,,,,,,,,,,,,,,,,,,,,,,,,,,,,,,119,71,148,177,71,119,1.0,1.1,-700,284,-480,252,-236,279,163.1205277442932,163.12056922912598,163.12280201911926,163.1348249912262,163.28513646125793,163.28513646125793,163.28513646125793,163.28513646125793,163.28513646125793,163.28513646125793,163.28513646125793,163.98608446121216,2,0.8347716331481934,None,,,,,,,,,,,,,,,,,,77,3,2025-02-21_13h22.24.251,comp,2024.2.4,60.16159547199906,2025-02-21 13h22.34.881542 -0500,
56,56,0,critical,wdh,35.0,2.1,lower,57.0,133.0,70.0,70.0,133.0,57.0,3,1.9135801792144775,None,,,,,0,0,0,0,0,56,56,32,164.00151419639587,,,,,,,,,,,,,,,,,,,,,,,,,,,,,,,,,,,,,,,,,,,,,,,,,,,,,,,,,,,,,,,,,,,,,,,,,,,,,,,,,57.0,133.0,70.0,70.0,133.0,57.0,2.1,2.12,-198,-257,0,-267,160,256,163.98689484596252,163.9869349002838,163.9894561767578,164.00151419639587,164.15156149864197,164.15156149864197,164.15156149864197,164.15156149864197,164.15156149864197,164.15156149864197,164.15156149864197,165.9194724559784,3,1.9135801792144775,None,,,,,,,,,,,,,,,,,,77,3,2025-02-21_13h22.24.251,comp,2024.2.4,60.16159547199906,2025-02-21 13h22.34.881542 -0500,
57,57,0,filler_random,None,None,None,None,None,None,None,None,None,None,3,1.0753893852233887,None,,,,,0,0,0,0,0,57,57,161,165.9350414276123,,,,,,,,,,,,,,,,,,,,,,,,,,,,,,,,,,,,,,,,,,,,,,,,,,,,,,,,,,,,,,,,,,,,,,,,,,,,,,,,,150.433664109657,159.043264568214,120.18425031692607,149.14994710060213,185.98190633936792,137.06414695464898,4.0,4.2,-250,-18,0,-283,239,12,165.92039370536804,165.9204342365265,165.9225037097931,165.9350414276123,166.08497524261475,166.08497524261475,166.08497524261475,166.08497524261475,166.08497524261475,166.08497524261475,166.08497524261475,167.01951932907104,3,1.0753893852233887,None,,,,,,,,,,,,,,,,,,77,3,2025-02-21_13h22.24.251,comp,2024.2.4,60.16159547199906,2025-02-21 13h22.34.881542 -0500,
58,58,0,critical,hwd,20.0,2.1,upper,200.0,125.0,125.0,200.0,141.0,141.0,1,0.9750516414642334,None,,,,,0,0,0,0,0,58,58,19,167.03537154197693,,,,,,,,,,,,,,,,,,,,,,,,,,,,,,,,,,,,,,,,,,,,,,,,,,,,,,,,,,,,,,,,,,,,,,,,,,,,,,,,,200.0,125.0,125.0,200.0,141.0,141.0,2.1,2.12,-258,-290,0,-274,266,263,167.02032709121704,167.02038192749023,167.02248430252075,167.03537154197693,167.18528246879578,167.18528246879578,167.18528246879578,167.18528246879578,167.18528246879578,167.18528246879578,167.18528246879578,168.01956796646118,1,0.9750516414642334,None,,,,,,,,,,,,,,,,,,77,3,2025-02-21_13h22.24.251,comp,2024.2.4,60.16159547199906,2025-02-21 13h22.34.881542 -0500,
59,59,0,critical,whd,35.0,2.1,upper,125.0,200.0,200.0,125.0,127.0,127.0,2,0.9024753570556641,None,,,,,0,0,0,0,0,59,59,13,168.03519892692566,,,,,,,,,,,,,,,,,,,,,,,,,,,,,,,,,,,,,,,,,,,,,,,,,,,,,,,,,,,,,,,,,,,,,,,,,,,,,,,,,125.0,200.0,200.0,125.0,127.0,127.0,2.1,2.11,-258,255,0,280,222,-270,168.02036690711975,168.02040910720825,168.0224645137787,168.03519892692566,168.18507361412048,168.18507361412048,168.18507361412048,168.18507361412048,168.18507361412048,168.18507361412048,168.18507361412048,168.95285439491272,2,0.9024753570556641,None,,,,,,,,,,,,,,,,,,77,3,2025-02-21_13h22.24.251,comp,2024.2.4,60.16159547199906,2025-02-21 13h22.34.881542 -0500,
60,60,0,critical,hdw,35.0,1.0,lower,133.0,57.0,70.0,70.0,57.0,133.0,1,1.1054069995880127,None,,,,,0,0,0,0,0,60,60,108,168.9680368900299,,,,,,,,,,,,,,,,,,,,,,,,,,,,,,,,,,,,,,,,,,,,,,,,,,,,,,,,,,,,,,,,,,,,,,,,,,,,,,,,,133.0,57.0,70.0,70.0,57.0,133.0,1.0,1.3,320,-250,480,-262,678,-280,168.95364022254944,168.9536793231964,168.95595717430115,168.9680368900299,169.11812257766724,169.11812257766724,169.11812257766724,169.11812257766724,169.11812257766724,169.11812257766724,169.11812257766724,170.0859341621399,1,1.1054069995880127,None,,,,,,,,,,,,,,,,,,77,3,2025-02-21_13h22.24.251,comp,2024.2.4,60.16159547199906,2025-02-21 13h22.34.881542 -0500,
61,61,0,critical,hwd,20.0,3.0,lower,133.0,57.0,57.0,133.0,78.0,78.0,2,2.0049188137054443,None,,,,,0,0,0,0,0,61,61,104,170.10128808021545,,,,,,,,,,,,,,,,,,,,,,,,,,,,,,,,,,,,,,,,,,,,,,,,,,,,,,,,,,,,,,,,,,,,,,,,,,,,,,,,,133.0,57.0,57.0,133.0,78.0,78.0,3.0,3.2,-191,-273,0,6,202,276,170.08675074577332,170.08679008483887,170.08924555778503,170.10128808021545,170.2516312599182,170.2516312599182,170.2516312599182,170.2516312599182,170.2516312599182,170.2516312599182,170.2516312599182,172.1192445755005,2,2.0049188137054443,None,,,,,,,,,,,,,,,,,,77,3,2025-02-21_13h22.24.251,comp,2024.2.4,60.16159547199906,2025-02-21 13h22.34.881542 -0500,
62,62,0,critical,whd,35.0,1.0,lower,57.0,133.0,133.0,57.0,70.0,70.0,2,1.138899564743042,None,,,,,0,0,0,0,0,62,62,84,172.13463807106018,,,,,,,,,,,,,,,,,,,,,,,,,,,,,,,,,,,,,,,,,,,,,,,,,,,,,,,,,,,,,,,,,,,,,,,,,,,,,,,,,57.0,133.0,133.0,57.0,70.0,70.0,1.0,1.3,289,-278,480,-279,640,-285,172.12003087997437,172.12007093429565,172.12203812599182,172.13463807106018,172.2851972579956,172.2851972579956,172.2851972579956,172.2851972579956,172.2851972579956,172.2851972579956,172.2851972579956,173.28610253334045,2,1.138899564743042,None,,,,,,,,,,,,,,,,,,77,3,2025-02-21_13h22.24.251,comp,2024.2.4,60.16159547199906,2025-02-21 13h22.34.881542 -0500,
63,63,0,filler_square,None,None,None,None,None,None,None,None,None,None,2,1.1559126377105713,None,,,,,0,0,0,0,0,63,63,206,173.3014976978302,,,,,,,,,,,,,,,,,,,,,,,,,,,,,,,,,,,,,,,,,,,,,,,,,,,,,,,,,,,,,,,,,,,,,,,,,,,,,,,,,139.89828972300757,127.74560136862101,182.02555977649516,182.02555977649516,124.15898642934273,168.47893550572172,2.1,2.12,-251,-267,0,-277,271,257,173.2870786190033,173.28711819648743,173.2897310256958,173.3014976978302,173.45203304290771,173.45203304290771,173.45203304290771,173.45203304290771,173.45203304290771,173.45203304290771,173.45203304290771,174.4698507785797,2,1.1559126377105713,None,,,,,,,,,,,,,,,,,,77,3,2025-02-21_13h22.24.251,comp,2024.2.4,60.16159547199906,2025-02-21 13h22.34.881542 -0500,
64,64,0,filler_random,None,None,None,None,None,None,None,None,None,None,2,0.8214731216430664,None,,,,,0,0,0,0,0,64,64,138,174.48473000526428,,,,,,,,,,,,,,,,,,,,,,,,,,,,,,,,,,,,,,,,,,,,,,,,,,,,,,,,,,,,,,,,,,,,,,,,,,,,,,,,,57.932621025033725,100.90711112602864,160.89066046946465,140.0233087015975,94.78683697460974,78.09905898703741,4.0,4.2,-216,6,0,-275,205,9,174.4707429409027,174.47078371047974,174.47313976287842,174.48473000526428,174.63525319099426,174.63525319099426,174.63525319099426,174.63525319099426,174.63525319099426,174.63525319099426,174.63525319099426,175.31942105293274,2,0.8214731216430664,None,,,,,,,,,,,,,,,,,,77,3,2025-02-21_13h22.24.251,comp,2024.2.4,60.16159547199906,2025-02-21 13h22.34.881542 -0500,
65,65,0,critical,whd,20.0,2.1,upper,125.0,200.0,200.0,125.0,141.0,141.0,2,2.011590003967285,None,,,,,0,0,0,0,0,65,65,15,175.33477997779846,,,,,,,,,,,,,,,,,,,,,,,,,,,,,,,,,,,,,,,,,,,,,,,,,,,,,,,,,,,,,,,,,,,,,,,,,,,,,,,,,125.0,200.0,200.0,125.0,141.0,141.0,2.1,2.11,-258,287,0,271,229,-285,175.3202028274536,175.32024216651917,175.32361674308777,175.33477997779846,175.48553109169006,175.48553109169006,175.48553109169006,175.48553109169006,175.48553109169006,175.48553109169006,175.48553109169006,177.3533113002777,2,2.011590003967285,None,,,,,,,,,,,,,,,,,,77,3,2025-02-21_13h22.24.251,comp,2024.2.4,60.16159547199906,2025-02-21 13h22.34.881542 -0500,
66,66,0,critical,dwh,35.0,4.0,lower,70.0,70.0,57.0,133.0,133.0,57.0,3,1.1136775016784668,None,,,,,0,0,0,0,0,66,66,64,177.3706841468811,,,,,,,,,,,,,,,,,,,,,,,,,,,,,,,,,,,,,,,,,,,,,,,,,,,,,,,,,,,,,,,,,,,,,,,,,,,,,,,,,70.0,70.0,57.0,133.0,133.0,57.0,4.0,4.2,-198,-8,0,-261,191,-20,177.35413146018982,177.35417246818542,177.35791397094727,177.3706841468811,177.5185489654541,177.5185489654541,177.5185489654541,177.5185489654541,177.5185489654541,177.5185489654541,177.5185489654541,178.50251126289368,3,1.1136775016784668,None,,,,,,,,,,,,,,,,,,77,3,2025-02-21_13h22.24.251,comp,2024.2.4,60.16159547199906,2025-02-21 13h22.34.881542 -0500,
67,67,0,critical,hdw,20.0,4.0,upper,200.0,125.0,141.0,141.0,125.0,200.0,3,1.9820833206176758,None,,,,,0,0,0,0,0,67,67,119,178.51803541183472,,,,,,,,,,,,,,,,,,,,,,,,,,,,,,,,,,,,,,,,,,,,,,,,,,,,,,,,,,,,,,,,,,,,,,,,,,,,,,,,,200.0,125.0,141.0,141.0,125.0,200.0,4.0,4.2,-229,-3,0,-281,266,7,178.50325512886047,178.5032923221588,178.50545930862427,178.51803541183472,178.6688859462738,178.6688859462738,178.6688859462738,178.6688859462738,178.6688859462738,178.6688859462738,178.6688859462738,180.5029742717743,3,1.9820833206176758,None,,,,,,,,,,,,,,,,,,77,3,2025-02-21_13h22.24.251,comp,2024.2.4,60.16159547199906,2025-02-21 13h22.34.881542 -0500,
68,68,0,critical,hwd,35.0,4.0,lower,133.0,57.0,57.0,133.0,70.0,70.0,1,1.171055555343628,None,,,,,0,0,0,0,0,68,68,100,180.5183825492859,,,,,,,,,,,,,,,,,,,,,,,,,,,,,,,,,,,,,,,,,,,,,,,,,,,,,,,,,,,,,,,,,,,,,,,,,,,,,,,,,133.0,57.0,57.0,133.0,70.0,70.0,4.0,4.1,-191,-287,0,-17,198,-259,180.50376415252686,180.50380539894104,180.5058708190918,180.5183825492859,180.66842985153198,180.66842985153198,180.66842985153198,180.66842985153198,180.66842985153198,180.66842985153198,180.66842985153198,181.70256423950195,1,1.171055555343628,None,,,,,,,,,,,,,,,,,,77,3,2025-02-21_13h22.24.251,comp,2024.2.4,60.16159547199906,2025-02-21 13h22.34.881542 -0500,
69,69,0,critical,dwh,35.0,2.1,lower,70.0,70.0,57.0,133.0,133.0,57.0,2,1.117051124572754,None,,,,,0,0,0,0,0,69,69,4,181.7179172039032,,,,,,,,,,,,,,,,,,,,,,,,,,,,,,,,,,,,,,,,,,,,,,,,,,,,,,,,,,,,,,,,,,,,,,,,,,,,,,,,,70.0,70.0,57.0,133.0,133.0,57.0,2.1,2.12,-198,-264,0,-260,191,256,181.703360080719,181.70340013504028,181.70568990707397,181.7179172039032,181.8680202960968,181.8680202960968,181.8680202960968,181.8680202960968,181.8680202960968,181.8680202960968,181.8680202960968,182.83619141578674,2,1.117051124572754,None,,,,,,,,,,,,,,,,,,77,3,2025-02-21_13h22.24.251,comp,2024.2.4,60.16159547199906,2025-02-21 13h22.34.881542 -0500,
70,70,0,critical,wdh,35.0,2.1,upper,125.0,200.0,127.0,127.0,200.0,125.0,3,1.247950792312622,None,,,,,0,0,0,0,0,70,70,9,182.8514757156372,,,,,,,,,,,,,,,,,,,,,,,,,,,,,,,,,,,,,,,,,,,,,,,,,,,,,,,,,,,,,,,,,,,,,,,,,,,,,,,,,125.0,200.0,127.0,127.0,200.0,125.0,2.1,2.12,-260,-288,0,-265,222,277,182.83700156211853,182.83704209327698,182.83909130096436,182.8514757156372,183.00161004066467,183.00161004066467,183.00161004066467,183.00161004066467,183.00161004066467,183.00161004066467,183.00161004066467,184.10295462608337,3,1.247950792312622,None,,,,,,,,,,,,,,,,,,77,3,2025-02-21_13h22.24.251,comp,2024.2.4,60.16159547199906,2025-02-21 13h22.34.881542 -0500,
71,71,0,critical,hdw,35.0,4.0,lower,133.0,57.0,70.0,70.0,57.0,133.0,3,0.9241364002227783,None,,,,,0,0,0,0,0,71,71,112,184.11821961402893,,,,,,,,,,,,,,,,,,,,,,,,,,,,,,,,,,,,,,,,,,,,,,,,,,,,,,,,,,,,,,,,,,,,,,,,,,,,,,,,,133.0,57.0,70.0,70.0,57.0,133.0,4.0,4.2,-160,14,0,-260,198,7,184.10371279716492,184.10375142097473,184.1057231426239,184.11821961402893,184.26837801933289,184.26837801933289,184.26837801933289,184.26837801933289,184.26837801933289,184.26837801933289,184.26837801933289,185.05251121520996,3,0.9241364002227783,None,,,,,,,,,,,,,,,,,,77,3,2025-02-21_13h22.24.251,comp,2024.2.4,60.16159547199906,2025-02-21 13h22.34.881542 -0500,
72,72,0,critical,hdw,20.0,1.0,lower,133.0,57.0,78.0,78.0,57.0,133.0,1,0.815777063369751,None,,,,,0,0,0,0,0,72,72,114,185.06815481185913,,,,,,,,,,,,,,,,,,,,,,,,,,,,,,,,,,,,,,,,,,,,,,,,,,,,,,,,,,,,,,,,,,,,,,,,,,,,,,,,,133.0,57.0,78.0,78.0,57.0,133.0,1.0,1.2,-164,15,0,-3,202,7,185.0532763004303,185.053316116333,185.05554699897766,185.06815481185913,185.21810960769653,185.21810960769653,185.21810960769653,185.21810960769653,185.21810960769653,185.21810960769653,185.21810960769653,185.88597655296326,1,0.815777063369751,None,,,,,,,,,,,,,,,,,,77,3,2025-02-21_13h22.24.251,comp,2024.2.4,60.16159547199906,2025-02-21 13h22.34.881542 -0500,
73,73,0,critical,dwh,20.0,3.0,upper,141.0,141.0,125.0,200.0,200.0,125.0,3,1.1980607509613037,None,,,,,0,0,0,0,0,73,73,69,185.90149664878845,,,,,,,,,,,,,,,,,,,,,,,,,,,,,,,,,,,,,,,,,,,,,,,,,,,,,,,,,,,,,,,,,,,,,,,,,,,,,,,,,141.0,141.0,125.0,200.0,200.0,125.0,3.0,3.2,-266,-265,0,-9,258,253,185.88679957389832,185.88683986663818,185.8889021873474,185.90149664878845,186.05170822143555,186.05170822143555,186.05170822143555,186.05170822143555,186.05170822143555,186.05170822143555,186.05170822143555,187.10284805297852,3,1.1980607509613037,None,,,,,,,,,,,,,,,,,,77,3,2025-02-21_13h22.24.251,comp,2024.2.4,60.16159547199906,2025-02-21 13h22.34.881542 -0500,
74,74,0,critical,wdh,20.0,2.1,upper,125.0,200.0,141.0,141.0,200.0,125.0,3,1.0674519538879395,None,,,,,0,0,0,0,0,74,74,11,187.11814832687378,,,,,,,,,,,,,,,,,,,,,,,,,,,,,,,,,,,,,,,,,,,,,,,,,,,,,,,,,,,,,,,,,,,,,,,,,,,,,,,,,125.0,200.0,141.0,141.0,200.0,125.0,2.1,2.12,-266,-264,0,-264,229,257,187.10363388061523,187.10367250442505,187.10567784309387,187.11814832687378,187.26837730407715,187.26837730407715,187.26837730407715,187.26837730407715,187.26837730407715,187.26837730407715,187.26837730407715,188.2028546333313,3,1.0674519538879395,None,,,,,,,,,,,,,,,,,,77,3,2025-02-21_13h22.24.251,comp,2024.2.4,60.16159547199906,2025-02-21 13h22.34.881542 -0500,
75,75,0,catch,None,None,None,None,None,None,None,None,None,None,2,0.8551023006439209,None,,,,,0,0,0,0,0,75,75,127,188.21816325187683,,,,,,,,,,,,,,,,,,,,,,,,,,,,,,,,,,,,,,,,,,,,,,,,,,,,,,,,,,,,,,,,,,,,,,,,,,,,,,,,,80,110,196,129,122,68,3.0,3.2,-216,-267,0,19,194,270,188.20389699935913,188.20393776893616,188.20633625984192,188.21816325187683,188.3680911064148,188.3680911064148,188.3680911064148,188.3680911064148,188.3680911064148,188.3680911064148,188.3680911064148,189.08587956428528,2,0.8551023006439209,None,,,,,,,,,,,,,,,,,,77,3,2025-02-21_13h22.24.251,comp,2024.2.4,60.16159547199906,2025-02-21 13h22.34.881542 -0500,
76,76,0,filler_random,None,None,None,None,None,None,None,None,None,None,1,0.8360998630523682,None,,,,,0,0,0,0,0,76,76,162,189.1013126373291,,,,,,,,,,,,,,,,,,,,,,,,,,,,,,,,,,,,,,,,,,,,,,,,,,,,,,,,,,,,,,,,,,,,,,,,,,,,,,,,,160.05105863941873,184.0439927803523,152.4522323210142,77.98441806730327,122.24838690812176,90.51500951165076,1.0,1.2,-227,-6,0,6,180,-18,189.08675837516785,189.08679795265198,189.08924651145935,189.1013126373291,189.25164890289307,189.25164890289307,189.25164890289307,189.25164890289307,189.25164890289307,189.25164890289307,189.25164890289307,189.95265197753906,1,0.8360998630523682,None,,,,,,,,,,,,,,,,,,77,3,2025-02-21_13h22.24.251,comp,2024.2.4,60.16159547199906,2025-02-21 13h22.34.881542 -0500,
77,77,0,critical,whd,20.0,3.0,upper,125.0,200.0,200.0,125.0,141.0,141.0,1,1.105461835861206,None,,,,,0,0,0,0,0,77,77,93,189.96779799461365,,,,,,,,,,,,,,,,,,,,,,,,,,,,,,,,,,,,,,,,,,,,,,,,,,,,,,,,,,,,,,,,,,,,,,,,,,,,,,,,,125.0,200.0,200.0,125.0,141.0,141.0,3.0,3.2,-258,-271,0,19,229,284,189.95343446731567,189.95347499847412,189.95578360557556,189.96779799461365,190.11821484565735,190.11821484565735,190.11821484565735,190.11821484565735,190.11821484565735,190.11821484565735,190.11821484565735,191.08597707748413,1,1.105461835861206,None,,,,,,,,,,,,,,,,,,77,3,2025-02-21_13h22.24.251,comp,2024.2.4,60.16159547199906,2025-02-21 13h22.34.881542 -0500,
78,78,0,catch,None,None,None,None,None,None,None,None,None,None,3,0.892916202545166,None,,,,,0,0,0,0,0,78,78,120,191.10127758979797,,,,,,,,,,,,,,,,,,,,,,,,,,,,,,,,,,,,,,,,,,,,,,,,,,,,,,,,,,,,,,,,,,,,,,,,,,,,,,,,,102,88,89,101,156,169,2.1,2.12,-190,-273,0,-269,231,279,191.08705592155457,191.08709740638733,191.0895230770111,191.10127758979797,191.25153946876526,191.25153946876526,191.25153946876526,191.25153946876526,191.25153946876526,191.25153946876526,191.25153946876526,192.00252509117126,3,0.892916202545166,None,,,,,,,,,,,,,,,,,,77,3,2025-02-21_13h22.24.251,comp,2024.2.4,60.16159547199906,2025-02-21 13h22.34.881542 -0500,
79,79,0,critical,dhw,20.0,3.0,upper,141.0,141.0,200.0,125.0,125.0,200.0,3,2.287907600402832,None,,,,,0,0,0,0,0,79,79,57,192.01814889907837,,,,,,,,,,,,,,,,,,,,,,,,,,,,,,,,,,,,,,,,,,,,,,,,,,,,,,,,,,,,,,,,,,,,,,,,,,,,,,,,,141.0,141.0,200.0,125.0,125.0,200.0,3.0,3.2,-229,-252,0,8,258,253,192.00333404541016,192.00338625907898,192.00566840171814,192.01814889907837,192.1684124469757,192.1684124469757,192.1684124469757,192.1684124469757,192.1684124469757,192.1684124469757,192.1684124469757,194.3203194141388,3,2.287907600402832,None,,,,,,,,,,,,,,,,,,77,3,2025-02-21_13h22.24.251,comp,2024.2.4,60.16159547199906,2025-02-21 13h22.34.881542 -0500,
80,80,0,filler_square,None,None,None,None,None,None,None,None,None,None,1,1.2117149829864502,None,,,,,0,0,0,0,0,80,80,197,194.3346221446991,,,,,,,,,,,,,,,,,,,,,,,,,,,,,,,,,,,,,,,,,,,,,,,,,,,,,,,,,,,,,,,,,,,,,,,,,,,,,,,,,184.29645797161908,184.29645797161908,135.4136723962137,173.55615587907965,157.1166262141691,165.98631660251834,2.2,2.21,-275,-260,0,252,266,250,194.3212571144104,194.3212969303131,194.32342290878296,194.3346221446991,194.4851152896881,194.4851152896881,194.4851152896881,194.4851152896881,194.4851152896881,194.4851152896881,194.4851152896881,195.55281352996826,1,1.2117149829864502,None,,,,,,,,,,,,,,,,,,77,3,2025-02-21_13h22.24.251,comp,2024.2.4,60.16159547199906,2025-02-21 13h22.34.881542 -0500,
81,81,0,filler_square,None,None,None,None,None,None,None,None,None,None,1,1.0258471965789795,None,,,,,0,0,0,0,0,81,81,184,195.5683081150055,,,,,,,,,,,,,,,,,,,,,,,,,,,,,,,,,,,,,,,,,,,,,,,,,,,,,,,,,,,,,,,,,,,,,,,,,,,,,,,,,142.6617010210563,142.6617010210563,128.7329559932657,120.25701822782835,97.49684515871914,139.81002344820536,1.0,1.3,253,-275,480,-279,706,-266,195.5537667274475,195.55380630493164,195.5562150478363,195.5683081150055,195.71815729141235,195.71815729141235,195.71815729141235,195.71815729141235,195.71815729141235,195.71815729141235,195.71815729141235,196.60256552696228,1,1.0258471965789795,None,,,,,,,,,,,,,,,,,,77,3,2025-02-21_13h22.24.251,comp,2024.2.4,60.16159547199906,2025-02-21 13h22.34.881542 -0500,
82,82,0,filler_square,None,None,None,None,None,None,None,None,None,None,1,1.2336525917053223,None,,,,,0,0,0,0,0,82,82,186,196.61817479133606,,,,,,,,,,,,,,,,,,,,,,,,,,,,,,,,,,,,,,,,,,,,,,,,,,,,,,,,,,,,,,,,,,,,,,,,,,,,,,,,,168.2692089164301,168.2692089164301,96.29426460895053,154.32110050557623,119.11868601301936,136.1695344236348,4.0,4.2,-257,-3,0,-273,241,-17,196.6035394668579,196.60358023643494,196.60592007637024,196.61817479133606,196.76819682121277,196.76819682121277,196.76819682121277,196.76819682121277,196.76819682121277,196.76819682121277,196.76819682121277,197.86929392814636,1,1.2336525917053223,None,,,,,,,,,,,,,,,,,,77,3,2025-02-21_13h22.24.251,comp,2024.2.4,60.16159547199906,2025-02-21 13h22.34.881542 -0500,
83,83,0,filler_square,None,None,None,None,None,None,None,None,None,None,3,1.2147612571716309,None,,,,,0,0,0,0,0,83,83,187,197.8846619129181,,,,,,,,,,,,,,,,,,,,,,,,,,,,,,,,,,,,,,,,,,,,,,,,,,,,,,,,,,,,,,,,,,,,,,,,,,,,,,,,,117.92400712683917,81.92167675145775,138.034864913754,156.28340317071644,157.23102248733784,157.23102248733784,3.0,3.1,-215,276,0,17,253,-252,197.87028002738953,197.87032270431519,197.87281036376953,197.8846619129181,198.0350513458252,198.0350513458252,198.0350513458252,198.0350513458252,198.0350513458252,198.0350513458252,198.0350513458252,199.10272121429443,3,1.2147612571716309,None,,,,,,,,,,,,,,,,,,77,3,2025-02-21_13h22.24.251,comp,2024.2.4,60.16159547199906,2025-02-21 13h22.34.881542 -0500,
84,84,0,filler_random,None,None,None,None,None,None,None,None,None,None,3,1.796567440032959,None,,,,,0,0,0,0,0,84,84,148,199.11810564994812,,,,,,,,,,,,,,,,,,,,,,,,,,,,,,,,,,,,,,,,,,,,,,,,,,,,,,,,,,,,,,,,,,,,,,,,,,,,,,,,,144.22334522583353,175.36202146182353,130.0203301620755,115.77636644044924,155.1165016052985,173.65383237113602,2.2,2.22,-242,275,0,-287,241,-268,199.10361433029175,199.10365414619446,199.10568499565125,199.11810564994812,199.26868343353271,199.26868343353271,199.26868343353271,199.26868343353271,199.26868343353271,199.26868343353271,199.26868343353271,200.91948080062866,3,1.796567440032959,None,,,,,,,,,,,,,,,,,,77,3,2025-02-21_13h22.24.251,comp,2024.2.4,60.16159547199906,2025-02-21 13h22.34.881542 -0500,
85,85,0,critical,hdw,35.0,3.0,upper,200.0,125.0,127.0,127.0,125.0,200.0,1,1.0839269161224365,None,,,,,0,0,0,0,0,85,85,111,200.95147228240967,,,,,,,,,,,,,,,,,,,,,,,,,,,,,,,,,,,,,,,,,,,,,,,,,,,,,,,,,,,,,,,,,,,,,,,,,,,,,,,,,200.0,125.0,127.0,127.0,125.0,200.0,3.0,3.2,-222,-274,0,7,260,260,200.92025566101074,200.9202961921692,200.92260551452637,200.95147228240967,201.0852997303009,201.0852997303009,201.0852997303009,201.0852997303009,201.0852997303009,201.0852997303009,201.0852997303009,202.05255579948425,1,1.0839269161224365,None,,,,,,,,,,,,,,,,,,77,3,2025-02-21_13h22.24.251,comp,2024.2.4,60.16159547199906,2025-02-21 13h22.34.881542 -0500,
86,86,0,critical,hwd,35.0,3.0,lower,133.0,57.0,57.0,133.0,70.0,70.0,2,1.2621848583221436,None,,,,,0,0,0,0,0,86,86,98,202.06791949272156,,,,,,,,,,,,,,,,,,,,,,,,,,,,,,,,,,,,,,,,,,,,,,,,,,,,,,,,,,,,,,,,,,,,,,,,,,,,,,,,,133.0,57.0,57.0,133.0,70.0,70.0,3.0,3.2,-191,-286,0,7,198,264,202.0533390045166,202.05339217185974,202.0566122531891,202.06791949272156,202.21804213523865,202.21804213523865,202.21804213523865,202.21804213523865,202.21804213523865,202.21804213523865,202.21804213523865,203.33583188056946,2,1.2621848583221436,None,,,,,,,,,,,,,,,,,,77,3,2025-02-21_13h22.24.251,comp,2024.2.4,60.16159547199906,2025-02-21 13h22.34.881542 -0500,
87,87,0,critical,hwd,20.0,1.0,upper,200.0,125.0,125.0,200.0,141.0,141.0,1,1.7217521667480469,None,,,,,0,0,0,0,0,87,87,103,203.35145115852356,,,,,,,,,,,,,,,,,,,,,,,,,,,,,,,,,,,,,,,,,,,,,,,,,,,,,,,,,,,,,,,,,,,,,,,,,,,,,,,,,200.0,125.0,125.0,200.0,141.0,141.0,1.0,1.3,222,-286,480,-287,746,-253,203.33673071861267,203.33677053451538,203.3391797542572,203.35145115852356,203.50195956230164,203.50195956230164,203.50195956230164,203.50195956230164,203.50195956230164,203.50195956230164,203.50195956230164,205.08628153800964,1,1.7217521667480469,None,,,,,,,,,,,,,,,,,,77,3,2025-02-21_13h22.24.251,comp,2024.2.4,60.16159547199906,2025-02-21 13h22.34.881542 -0500,
88,88,0,critical,dhw,35.0,1.0,lower,70.0,70.0,133.0,57.0,57.0,133.0,2,1.0200543403625488,None,,,,,0,0,0,0,0,88,88,48,205.10132908821106,,,,,,,,,,,,,,,,,,,,,,,,,,,,,,,,,,,,,,,,,,,,,,,,,,,,,,,,,,,,,,,,,,,,,,,,,,,,,,,,,70.0,70.0,133.0,57.0,57.0,133.0,1.0,1.3,320,-258,480,-285,671,-272,205.0870804786682,205.08712077140808,205.09017872810364,205.10132908821106,205.25137400627136,205.25137400627136,205.25137400627136,205.25137400627136,205.25137400627136,205.25137400627136,205.25137400627136,206.1357045173645,2,1.0200543403625488,None,,,,,,,,,,,,,,,,,,77,3,2025-02-21_13h22.24.251,comp,2024.2.4,60.16159547199906,2025-02-21 13h22.34.881542 -0500,
89,89,0,critical,dwh,35.0,3.0,lower,70.0,70.0,57.0,133.0,133.0,57.0,2,1.2022130489349365,None,,,,,0,0,0,0,0,89,89,62,206.151221036911,,,,,,,,,,,,,,,,,,,,,,,,,,,,,,,,,,,,,,,,,,,,,,,,,,,,,,,,,,,,,,,,,,,,,,,,,,,,,,,,,70.0,70.0,57.0,133.0,133.0,57.0,3.0,3.2,-198,-273,0,-11,191,250,206.13649988174438,206.13653993606567,206.1389183998108,206.151221036911,206.30123376846313,206.30123376846313,206.30123376846313,206.30123376846313,206.30123376846313,206.30123376846313,206.30123376846313,207.36896681785583,2,1.2022130489349365,None,,,,,,,,,,,,,,,,,,77,3,2025-02-21_13h22.24.251,comp,2024.2.4,60.16159547199906,2025-02-21 13h22.34.881542 -0500,
90,90,0,critical,dhw,35.0,2.1,lower,70.0,70.0,133.0,57.0,57.0,133.0,2,1.0886681079864502,None,,,,,0,0,0,0,0,90,90,24,207.38447427749634,,,,,,,,,,,,,,,,,,,,,,,,,,,,,,,,,,,,,,,,,,,,,,,,,,,,,,,,,,,,,,,,,,,,,,,,,,,,,,,,,70.0,70.0,133.0,57.0,57.0,133.0,2.1,2.12,-160,-272,0,-257,191,269,207.3697431087494,207.36978340148926,207.37219548225403,207.38447427749634,207.53492832183838,207.53492832183838,207.53492832183838,207.53492832183838,207.53492832183838,207.53492832183838,207.53492832183838,208.48583555221558,2,1.0886681079864502,None,,,,,,,,,,,,,,,,,,77,3,2025-02-21_13h22.24.251,comp,2024.2.4,60.16159547199906,2025-02-21 13h22.34.881542 -0500,
91,91,0,filler_random,None,None,None,None,None,None,None,None,None,None,1,1.15596342086792,None,,,,,0,0,0,0,0,91,91,134,208.50121402740479,,,,,,,,,,,,,,,,,,,,,,,,,,,,,,,,,,,,,,,,,,,,,,,,,,,,,,,,,,,,,,,,,,,,,,,,,,,,,,,,,146.77920123288547,135.7935260454036,112.30083150951923,100.4018669613534,82.892577320556,198.1837836608024,4.0,4.2,-214,4,0,-254,245,13,208.48675298690796,208.4867925643921,208.48915362358093,208.50121402740479,208.65178203582764,208.65178203582764,208.65178203582764,208.65178203582764,208.65178203582764,208.65178203582764,208.65178203582764,209.66974115371704,1,1.15596342086792,None,,,,,,,,,,,,,,,,,,77,3,2025-02-21_13h22.24.251,comp,2024.2.4,60.16159547199906,2025-02-21 13h22.34.881542 -0500,
92,92,0,critical,whd,35.0,2.1,upper,125.0,200.0,200.0,125.0,127.0,127.0,1,1.1010115146636963,None,,,,,0,0,0,0,0,92,92,37,209.68457436561584,,,,,,,,,,,,,,,,,,,,,,,,,,,,,,,,,,,,,,,,,,,,,,,,,,,,,,,,,,,,,,,,,,,,,,,,,,,,,,,,,125.0,200.0,200.0,125.0,127.0,127.0,2.1,2.12,-258,-274,0,-260,222,278,209.67055535316467,209.67059540748596,209.67270302772522,209.68457436561584,209.8348627090454,209.8348627090454,209.8348627090454,209.8348627090454,209.8348627090454,209.8348627090454,209.8348627090454,210.80264282226562,1,1.1010115146636963,None,,,,,,,,,,,,,,,,,,77,3,2025-02-21_13h22.24.251,comp,2024.2.4,60.16159547199906,2025-02-21 13h22.34.881542 -0500,
93,93,0,critical,dhw,35.0,4.0,upper,127.0,127.0,200.0,125.0,125.0,200.0,3,1.081366777420044,None,,,,,0,0,0,0,0,93,93,53,210.81787395477295,,,,,,,,,,,,,,,,,,,,,,,,,,,,,,,,,,,,,,,,,,,,,,,,,,,,,,,,,,,,,,,,,,,,,,,,,,,,,,,,,127.0,127.0,200.0,125.0,125.0,200.0,4.0,4.2,-222,9,0,-281,258,-12,210.8034291267395,210.80346941947937,210.80575919151306,210.81787395477295,210.9681487083435,210.9681487083435,210.9681487083435,210.9681487083435,210.9681487083435,210.9681487083435,210.9681487083435,211.90267968177795,3,1.081366777420044,None,,,,,,,,,,,,,,,,,,77,3,2025-02-21_13h22.24.251,comp,2024.2.4,60.16159547199906,2025-02-21 13h22.34.881542 -0500,
94,94,0,filler_random,None,None,None,None,None,None,None,None,None,None,2,1.2836709022521973,None,,,,,0,0,0,0,0,94,94,169,211.9181411266327,,,,,,,,,,,,,,,,,,,,,,,,,,,,,,,,,,,,,,,,,,,,,,,,,,,,,,,,,,,,,,,,,,,,,,,,,,,,,,,,,132.35387881445558,97.02062208619408,134.78616655897127,168.29838804528865,133.62409138883316,83.0442255361314,4.0,4.1,-229,-257,0,9,222,-263,211.90359139442444,211.90363097190857,211.90570640563965,211.9181411266327,212.0681254863739,212.0681254863739,212.0681254863739,212.0681254863739,212.0681254863739,212.0681254863739,212.0681254863739,213.21923565864563,2,1.2836709022521973,None,,,,,,,,,,,,,,,,,,77,3,2025-02-21_13h22.24.251,comp,2024.2.4,60.16159547199906,2025-02-21 13h22.34.881542 -0500,
95,95,0,catch,None,None,None,None,None,None,None,None,None,None,3,0.8546643257141113,None,,,,,0,0,0,0,0,95,95,128,213.23454022407532,,,,,,,,,,,,,,,,,,,,,,,,,,,,,,,,,,,,,,,,,,,,,,,,,,,,,,,,,,,,,,,,,,,,,,,,,,,,,,,,,108,82,114,76,139,186,4.0,4.1,-175,-274,0,19,227,-262,213.22030639648438,213.22036242485046,213.22284579277039,213.23454022407532,213.38465237617493,213.38465237617493,213.38465237617493,213.38465237617493,213.38465237617493,213.38465237617493,213.38465237617493,214.10228037834167,3,0.8546643257141113,None,,,,,,,,,,,,,,,,,,77,3,2025-02-21_13h22.24.251,comp,2024.2.4,60.16159547199906,2025-02-21 13h22.34.881542 -0500,
96,96,0,critical,dhw,35.0,2.1,upper,127.0,127.0,200.0,125.0,125.0,200.0,2,0.8442373275756836,None,,,,,0,0,0,0,0,96,96,25,214.11777639389038,,,,,,,,,,,,,,,,,,,,,,,,,,,,,,,,,,,,,,,,,,,,,,,,,,,,,,,,,,,,,,,,,,,,,,,,,,,,,,,,,127.0,127.0,200.0,125.0,125.0,200.0,2.1,2.11,-222,259,0,282,258,-250,214.10307669639587,214.1031174659729,214.10625576972961,214.11777639389038,214.26830577850342,214.26830577850342,214.26830577850342,214.26830577850342,214.26830577850342,214.26830577850342,214.26830577850342,214.96920371055603,2,0.8442373275756836,None,,,,,,,,,,,,,,,,,,77,3,2025-02-21_13h22.24.251,comp,2024.2.4,60.16159547199906,2025-02-21 13h22.34.881542 -0500,
97,97,0,filler_square,None,None,None,None,None,None,None,None,None,None,2,0.9775180816650391,None,,,,,0,0,0,0,0,97,97,203,214.9847490787506,,,,,,,,,,,,,,,,,,,,,,,,,,,,,,,,,,,,,,,,,,,,,,,,,,,,,,,,,,,,,,,,,,,,,,,,,,,,,,,,,110.9195919130072,71.20476521565874,172.05163055932198,172.05163055932198,104.53568778103016,165.33203151095103,3.0,3.1,-218,270,0,0,265,-256,214.9701533317566,214.9701943397522,214.97258186340332,214.9847490787506,215.13470077514648,215.13470077514648,215.13470077514648,215.13470077514648,215.13470077514648,215.13470077514648,215.13470077514648,215.9692509174347,2,0.9775180816650391,None,,,,,,,,,,,,,,,,,,77,3,2025-02-21_13h22.24.251,comp,2024.2.4,60.16159547199906,2025-02-21 13h22.34.881542 -0500,
98,98,0,critical,wdh,35.0,2.1,lower,57.0,133.0,70.0,70.0,133.0,57.0,1,2.05004620552063,None,,,,,0,0,0,0,0,98,98,8,215.98467564582825,,,,,,,,,,,,,,,,,,,,,,,,,,,,,,,,,,,,,,,,,,,,,,,,,,,,,,,,,,,,,,,,,,,,,,,,,,,,,,,,,57.0,133.0,70.0,70.0,133.0,57.0,2.1,2.12,-198,-265,0,-262,160,262,215.97006368637085,215.97010397911072,215.97216176986694,215.98467564582825,216.13472867012024,216.13472867012024,216.13472867012024,216.13472867012024,216.13472867012024,216.13472867012024,216.13472867012024,218.0359537601471,1,2.05004620552063,None,,,,,,,,,,,,,,,,,,77,3,2025-02-21_13h22.24.251,comp,2024.2.4,60.16159547199906,2025-02-21 13h22.34.881542 -0500,
99,99,0,critical,hdw,20.0,2.1,lower,133.0,57.0,78.0,78.0,57.0,133.0,1,0.9178943634033203,None,,,,,0,0,0,0,0,99,99,46,218.05132150650024,,,,,,,,,,,,,,,,,,,,,,,,,,,,,,,,,,,,,,,,,,,,,,,,,,,,,,,,,,,,,,,,,,,,,,,,,,,,,,,,,133.0,57.0,78.0,78.0,57.0,133.0,2.1,2.12,-164,-256,0,-264,202,273,218.03674030303955,218.03678131103516,218.03915143013,218.05132150650024,218.2015175819397,218.2015175819397,218.2015175819397,218.2015175819397,218.2015175819397,218.2015175819397,218.2015175819397,218.98577523231506,1,0.9178943634033203,None,,,,,,,,,,,,,,,,,,77,3,2025-02-21_13h22.24.251,comp,2024.2.4,60.16159547199906,2025-02-21 13h22.34.881542 -0500,
100,100,0,critical,hdw,35.0,2.1,lower,133.0,57.0,70.0,70.0,57.0,133.0,1,1.1201603412628174,None,,,,,0,0,0,0,0,100,100,20,219.0010998249054,,,,,,,,,,,,,,,,,,,,,,,,,,,,,,,,,,,,,,,,,,,,,,,,,,,,,,,,,,,,,,,,,,,,,,,,,,,,,,,,,133.0,57.0,70.0,70.0,57.0,133.0,2.1,2.11,-160,269,0,288,198,-261,218.9866006374359,218.98664140701294,218.98899865150452,219.0010998249054,219.15109372138977,219.15109372138977,219.15109372138977,219.15109372138977,219.15109372138977,219.15109372138977,219.15109372138977,220.13567686080933,1,1.1201603412628174,None,,,,,,,,,,,,,,,,,,77,3,2025-02-21_13h22.24.251,comp,2024.2.4,60.16159547199906,2025-02-21 13h22.34.881542 -0500,
101,101,0,critical,hwd,20.0,3.0,upper,200.0,125.0,125.0,200.0,141.0,141.0,1,1.450913667678833,None,,,,,0,0,0,0,0,101,101,105,220.15105748176575,,,,,,,,,,,,,,,,,,,,,,,,,,,,,,,,,,,,,,,,,,,,,,,,,,,,,,,,,,,,,,,,,,,,,,,,,,,,,,,,,200.0,125.0,125.0,200.0,141.0,141.0,3.0,3.2,-258,-288,0,-13,266,257,220.13647890090942,220.1365180015564,220.13889718055725,220.15105748176575,220.30141496658325,220.30141496658325,220.30141496658325,220.30141496658325,220.30141496658325,220.30141496658325,220.30141496658325,221.61929297447205,1,1.450913667678833,None,,,,,,,,,,,,,,,,,,77,3,2025-02-21_13h22.24.251,comp,2024.2.4,60.16159547199906,2025-02-21 13h22.34.881542 -0500,
102,102,0,filler_square,None,None,None,None,None,None,None,None,None,None,1,1.817185640335083,None,,,,,0,0,0,0,0,102,102,189,221.6344075202942,,,,,,,,,,,,,,,,,,,,,,,,,,,,,,,,,,,,,,,,,,,,,,,,,,,,,,,,,,,,,,,,,,,,,,,,,,,,,,,,,193.82290939528318,193.82290939528318,166.02915149176317,169.18637981851452,146.985017233162,86.69710045575916,3.0,3.2,-278,-273,0,-7,224,265,221.6202051639557,221.6202437877655,221.62238311767578,221.6344075202942,221.78482365608215,221.78482365608215,221.78482365608215,221.78482365608215,221.78482365608215,221.78482365608215,221.78482365608215,223.46929144859314,1,1.817185640335083,None,,,,,,,,,,,,,,,,,,77,3,2025-02-21_13h22.24.251,comp,2024.2.4,60.16159547199906,2025-02-21 13h22.34.881542 -0500,
103,103,0,critical,wdh,20.0,3.0,upper,125.0,200.0,141.0,141.0,200.0,125.0,1,2.2935962677001953,None,,,,,0,0,0,0,0,103,103,81,223.4844048023224,,,,,,,,,,,,,,,,,,,,,,,,,,,,,,,,,,,,,,,,,,,,,,,,,,,,,,,,,,,,,,,,,,,,,,,,,,,,,,,,,125.0,200.0,141.0,141.0,200.0,125.0,3.0,3.2,-266,-282,0,15,229,263,223.4700894355774,223.4701292514801,223.47259998321533,223.4844048023224,223.63480520248413,223.63480520248413,223.63480520248413,223.63480520248413,223.63480520248413,223.63480520248413,223.63480520248413,225.78592991828918,1,2.2935962677001953,None,,,,,,,,,,,,,,,,,,77,3,2025-02-21_13h22.24.251,comp,2024.2.4,60.16159547199906,2025-02-21 13h22.34.881542 -0500,
104,104,0,filler_random,None,None,None,None,None,None,None,None,None,None,2,1.783768892288208,None,,,,,0,0,0,0,0,104,104,152,225.80138516426086,,,,,,,,,,,,,,,,,,,,,,,,,,,,,,,,,,,,,,,,,,,,,,,,,,,,,,,,,,,,,,,,,,,,,,,,,,,,,,,,,132.59044666556105,165.7072809613084,142.4012900760852,146.01997393021273,69.36446057481932,95.61053285208956,3.0,3.1,-252,253,0,18,217,-288,225.7869188785553,225.78696012496948,225.7893934249878,225.80138516426086,225.95155477523804,225.95155477523804,225.95155477523804,225.95155477523804,225.95155477523804,225.95155477523804,225.95155477523804,227.6022651195526,2,1.783768892288208,None,,,,,,,,,,,,,,,,,,77,3,2025-02-21_13h22.24.251,comp,2024.2.4,60.16159547199906,2025-02-21 13h22.34.881542 -0500,
105,105,0,critical,whd,20.0,3.0,lower,57.0,133.0,133.0,57.0,78.0,78.0,2,1.09702467918396,None,,,,,0,0,0,0,0,105,105,92,227.6176609992981,,,,,,,,,,,,,,,,,,,,,,,,,,,,,,,,,,,,,,,,,,,,,,,,,,,,,,,,,,,,,,,,,,,,,,,,,,,,,,,,,57.0,133.0,133.0,57.0,78.0,78.0,3.0,3.2,-191,-289,0,10,164,269,227.60306239128113,227.60310244560242,227.60507440567017,227.6176609992981,227.7677505016327,227.7677505016327,227.7677505016327,227.7677505016327,227.7677505016327,227.7677505016327,227.7677505016327,228.71906757354736,2,1.09702467918396,None,,,,,,,,,,,,,,,,,,77,3,2025-02-21_13h22.24.251,comp,2024.2.4,60.16159547199906,2025-02-21 13h22.34.881542 -0500,
106,106,0,critical,whd,20.0,2.1,upper,125.0,200.0,200.0,125.0,141.0,141.0,2,1.3493578433990479,None,,,,,0,0,0,0,0,106,106,39,228.73450660705566,,,,,,,,,,,,,,,,,,,,,,,,,,,,,,,,,,,,,,,,,,,,,,,,,,,,,,,,,,,,,,,,,,,,,,,,,,,,,,,,,125.0,200.0,200.0,125.0,141.0,141.0,2.1,2.11,-258,268,0,260,229,-255,228.71988224983215,228.71992301940918,228.72198152542114,228.73450660705566,228.88504028320312,228.88504028320312,228.88504028320312,228.88504028320312,228.88504028320312,228.88504028320312,228.88504028320312,230.08587002754211,2,1.3493578433990479,None,,,,,,,,,,,,,,,,,,77,3,2025-02-21_13h22.24.251,comp,2024.2.4,60.16159547199906,2025-02-21 13h22.34.881542 -0500,
107,107,0,critical,dhw,20.0,2.1,lower,78.0,78.0,133.0,57.0,57.0,133.0,3,1.1666100025177002,None,,,,,0,0,0,0,0,107,107,26,230.10127711296082,,,,,,,,,,,,,,,,,,,,,,,,,,,,,,,,,,,,,,,,,,,,,,,,,,,,,,,,,,,,,,,,,,,,,,,,,,,,,,,,,78.0,78.0,133.0,57.0,57.0,133.0,2.1,2.12,-164,-257,0,-288,191,272,230.08667397499084,230.0867133140564,230.0887668132782,230.10127711296082,230.251380443573,230.251380443573,230.251380443573,230.251380443573,230.251380443573,230.251380443573,230.251380443573,231.26917052268982,3,1.1666100025177002,None,,,,,,,,,,,,,,,,,,77,3,2025-02-21_13h22.24.251,comp,2024.2.4,60.16159547199906,2025-02-21 13h22.34.881542 -0500,
108,108,0,critical,dwh,35.0,4.0,upper,127.0,127.0,125.0,200.0,200.0,125.0,2,1.6151177883148193,None,,,,,0,0,0,0,0,108,108,65,231.28447341918945,,,,,,,,,,,,,,,,,,,,,,,,,,,,,,,,,,,,,,,,,,,,,,,,,,,,,,,,,,,,,,,,,,,,,,,,,,,,,,,,,127.0,127.0,125.0,200.0,200.0,125.0,4.0,4.1,-260,-266,0,-11,258,-251,231.2699477672577,231.26998662948608,231.27250385284424,231.28447341918945,231.43463850021362,231.43463850021362,231.43463850021362,231.43463850021362,231.43463850021362,231.43463850021362,231.43463850021362,232.90256547927856,2,1.6151177883148193,None,,,,,,,,,,,,,,,,,,77,3,2025-02-21_13h22.24.251,comp,2024.2.4,60.16159547199906,2025-02-21 13h22.34.881542 -0500,
109,109,0,filler_random,None,None,None,None,None,None,None,None,None,None,1,1.3500568866729736,None,,,,,0,0,0,0,0,109,109,132,232.917902469635,,,,,,,,,,,,,,,,,,,,,,,,,,,,,,,,,,,,,,,,,,,,,,,,,,,,,,,,,,,,,,,,,,,,,,,,,,,,,,,,,106.58548121814758,156.90943637301592,146.8674170803966,107.3753482835456,73.2531819814644,126.72013530901248,2.2,2.21,-228,-265,0,255,213,272,232.9034547805786,232.90349459648132,232.90552735328674,232.917902469635,233.0678005218506,233.0678005218506,233.0678005218506,233.0678005218506,233.0678005218506,233.0678005218506,233.0678005218506,234.2692060470581,1,1.3500568866729736,None,,,,,,,,,,,,,,,,,,77,3,2025-02-21_13h22.24.251,comp,2024.2.4,60.16159547199906,2025-02-21 13h22.34.881542 -0500,
110,110,0,critical,dhw,20.0,1.0,upper,141.0,141.0,200.0,125.0,125.0,200.0,3,1.1832246780395508,None,,,,,0,0,0,0,0,110,110,55,234.28451085090637,,,,,,,,,,,,,,,,,,,,,,,,,,,,,,,,,,,,,,,,,,,,,,,,,,,,,,,,,,,,,,,,,,,,,,,,,,,,,,,,,141.0,141.0,200.0,125.0,125.0,200.0,1.0,1.3,251,-252,480,-260,738,-284,234.27000188827515,234.27004313468933,234.27255296707153,234.28451085090637,234.43459010124207,234.43459010124207,234.43459010124207,234.43459010124207,234.43459010124207,234.43459010124207,234.43459010124207,235.46943426132202,3,1.1832246780395508,None,,,,,,,,,,,,,,,,,,77,3,2025-02-21_13h22.24.251,comp,2024.2.4,60.16159547199906,2025-02-21 13h22.34.881542 -0500,
111,111,0,critical,hdw,35.0,4.0,upper,200.0,125.0,127.0,127.0,125.0,200.0,1,0.983227014541626,None,,,,,0,0,0,0,0,111,111,113,235.48453307151794,,,,,,,,,,,,,,,,,,,,,,,,,,,,,,,,,,,,,,,,,,,,,,,,,,,,,,,,,,,,,,,,,,,,,,,,,,,,,,,,,200.0,125.0,127.0,127.0,125.0,200.0,4.0,4.1,-222,-262,0,-7,260,-267,235.47019696235657,235.4702365398407,235.4725317955017,235.48453307151794,235.63483953475952,235.63483953475952,235.63483953475952,235.63483953475952,235.63483953475952,235.63483953475952,235.63483953475952,236.46929550170898,1,0.983227014541626,None,,,,,,,,,,,,,,,,,,77,3,2025-02-21_13h22.24.251,comp,2024.2.4,60.16159547199906,2025-02-21 13h22.34.881542 -0500,
112,112,0,critical,hdw,20.0,2.1,lower,133.0,57.0,78.0,78.0,57.0,133.0,1,0.9006001949310303,None,,,,,0,0,0,0,0,112,112,22,236.48444747924805,,,,,,,,,,,,,,,,,,,,,,,,,,,,,,,,,,,,,,,,,,,,,,,,,,,,,,,,,,,,,,,,,,,,,,,,,,,,,,,,,133.0,57.0,78.0,78.0,57.0,133.0,2.1,2.12,-164,-277,0,-265,202,264,236.47022771835327,236.47026944160461,236.4723825454712,236.48444747924805,236.63440918922424,236.63440918922424,236.63440918922424,236.63440918922424,236.63440918922424,236.63440918922424,236.63440918922424,237.40205025672913,1,0.9006001949310303,None,,,,,,,,,,,,,,,,,,77,3,2025-02-21_13h22.24.251,comp,2024.2.4,60.16159547199906,2025-02-21 13h22.34.881542 -0500,
113,113,0,filler_square,None,None,None,None,None,None,None,None,None,None,1,1.000739336013794,None,,,,,0,0,0,0,0,113,113,171,237.41766095161438,,,,,,,,,,,,,,,,,,,,,,,,,,,,,,,,,,,,,,,,,,,,,,,,,,,,,,,,,,,,,,,,,,,,,,,,,,,,,,,,,127.37025369724492,127.37025369724492,100.40616150737876,86.35413749136633,92.48739306325572,127.2358894868866,2.2,2.22,-203,263,0,-267,203,-288,237.40300798416138,237.40304851531982,237.40558099746704,237.41766095161438,237.56790041923523,237.56790041923523,237.56790041923523,237.56790041923523,237.56790041923523,237.56790041923523,237.56790041923523,238.43561387062073,1,1.000739336013794,None,,,,,,,,,,,,,,,,,,77,3,2025-02-21_13h22.24.251,comp,2024.2.4,60.16159547199906,2025-02-21 13h22.34.881542 -0500,
114,114,0,critical,dwh,35.0,1.0,upper,127.0,127.0,125.0,200.0,200.0,125.0,3,1.1268341541290283,None,,,,,0,0,0,0,0,114,114,61,238.4509665966034,,,,,,,,,,,,,,,,,,,,,,,,,,,,,,,,,,,,,,,,,,,,,,,,,,,,,,,,,,,,,,,,,,,,,,,,,,,,,,,,,127.0,127.0,125.0,200.0,200.0,125.0,1.0,1.3,220,-290,480,-253,738,-281,238.43642139434814,238.43646216392517,238.43880939483643,238.4509665966034,238.60119342803955,238.60119342803955,238.60119342803955,238.60119342803955,238.60119342803955,238.60119342803955,238.60119342803955,239.5857093334198,3,1.1268341541290283,None,,,,,,,,,,,,,,,,,,77,3,2025-02-21_13h22.24.251,comp,2024.2.4,60.16159547199906,2025-02-21 13h22.34.881542 -0500,
115,115,0,critical,dwh,35.0,2.1,lower,70.0,70.0,57.0,133.0,133.0,57.0,2,1.1604537963867188,None,,,,,0,0,0,0,0,115,115,28,239.60139560699463,,,,,,,,,,,,,,,,,,,,,,,,,,,,,,,,,,,,,,,,,,,,,,,,,,,,,,,,,,,,,,,,,,,,,,,,,,,,,,,,,70.0,70.0,57.0,133.0,133.0,57.0,2.1,2.11,-198,260,0,259,191,-281,239.5864851474762,239.58652424812317,239.5885398387909,239.60139560699463,239.7511260509491,239.7511260509491,239.7511260509491,239.7511260509491,239.7511260509491,239.7511260509491,239.7511260509491,240.76874566078186,2,1.1604537963867188,None,,,,,,,,,,,,,,,,,,77,3,2025-02-21_13h22.24.251,comp,2024.2.4,60.16159547199906,2025-02-21 13h22.34.881542 -0500,
116,116,0,filler_square,None,None,None,None,None,None,None,None,None,None,2,1.083033561706543,None,,,,,0,0,0,0,0,116,116,188,240.7845377922058,,,,,,,,,,,,,,,,,,,,,,,,,,,,,,,,,,,,,,,,,,,,,,,,,,,,,,,,,,,,,,,,,,,,,,,,,,,,,,,,,128.19359295866911,121.44244425627818,185.31837342435918,185.31837342435918,166.68701420843922,157.10511288076708,4.0,4.2,-249,-4,0,-285,267,11,240.76968717575073,240.76972889900208,240.7717604637146,240.7845377922058,240.9379267692566,240.9379267692566,240.9379267692566,240.9379267692566,240.9379267692566,240.9379267692566,240.9379267692566,241.86946868896484,2,1.083033561706543,None,,,,,,,,,,,,,,,,,,77,3,2025-02-21_13h22.24.251,comp,2024.2.4,60.16159547199906,2025-02-21 13h22.34.881542 -0500,
117,117,0,filler_random,None,None,None,None,None,None,None,None,None,None,2,1.004384994506836,None,,,,,0,0,0,0,0,117,117,147,241.88462162017822,,,,,,,,,,,,,,,,,,,,,,,,,,,,,,,,,,,,,,,,,,,,,,,,,,,,,,,,,,,,,,,,,,,,,,,,,,,,,,,,,185.03972592075584,126.65125566003657,101.0606960189869,193.9671762097934,170.89045986448895,85.44826649318026,2.1,2.12,-256,-284,0,-272,236,271,241.8703317642212,241.87038564682007,241.87287878990173,241.88462162017822,242.03494024276733,242.03494024276733,242.03494024276733,242.03494024276733,242.03494024276733,242.03494024276733,242.03494024276733,242.902188539505,2,1.004384994506836,None,,,,,,,,,,,,,,,,,,77,3,2025-02-21_13h22.24.251,comp,2024.2.4,60.16159547199906,2025-02-21 13h22.34.881542 -0500,
118,118,0,filler_square,None,None,None,None,None,None,None,None,None,None,1,0.755316972732544,None,,,,,0,0,0,0,0,118,118,181,242.9176275730133,,,,,,,,,,,,,,,,,,,,,,,,,,,,,,,,,,,,,,,,,,,,,,,,,,,,,,,,,,,,,,,,,,,,,,,,,,,,,,,,,132.33793202801067,132.33793202801067,115.56855036031197,63.83565387303416,99.64821136304577,94.62263913756178,2.2,2.21,-194,-252,0,285,175,258,242.90314650535583,242.90318894386292,242.90570950508118,242.9176275730133,243.06820344924927,243.06820344924927,243.06820344924927,243.06820344924927,243.06820344924927,243.06820344924927,243.06820344924927,243.68549942970276,1,0.755316972732544,None,,,,,,,,,,,,,,,,,,77,3,2025-02-21_13h22.24.251,comp,2024.2.4,60.16159547199906,2025-02-21 13h22.34.881542 -0500,
119,119,0,critical,whd,20.0,1.0,upper,125.0,200.0,200.0,125.0,141.0,141.0,1,0.8360090255737305,None,,,,,0,0,0,0,0,119,119,91,243.7009732723236,,,,,,,,,,,,,,,,,,,,,,,,,,,,,,,,,,,,,,,,,,,,,,,,,,,,,,,,,,,,,,,,,,,,,,,,,,,,,,,,,125.0,200.0,200.0,125.0,141.0,141.0,1.0,1.3,222,-273,480,-261,709,-264,243.68628525733948,243.68632578849792,243.68859219551086,243.7009732723236,243.85153889656067,243.85153889656067,243.85153889656067,243.85153889656067,243.85153889656067,243.85153889656067,243.85153889656067,244.55235481262207,1,0.8360090255737305,None,,,,,,,,,,,,,,,,,,77,3,2025-02-21_13h22.24.251,comp,2024.2.4,60.16159547199906,2025-02-21 13h22.34.881542 -0500,
120,120,0,critical,hdw,20.0,1.0,upper,200.0,125.0,141.0,141.0,125.0,200.0,1,1.20145845413208,None,,,,,0,0,0,0,0,120,120,115,244.56758284568787,,,,,,,,,,,,,,,,,,,,,,,,,,,,,,,,,,,,,,,,,,,,,,,,,,,,,,,,,,,,,,,,,,,,,,,,,,,,,,,,,200.0,125.0,141.0,141.0,125.0,200.0,1.0,1.1,-709,258,-480,250,-214,258,244.55312299728394,244.55316138267517,244.55508494377136,244.56758284568787,244.71785593032837,244.71785593032837,244.71785593032837,244.71785593032837,244.71785593032837,244.71785593032837,244.71785593032837,245.7856307029724,1,1.20145845413208,None,,,,,,,,,,,,,,,,,,77,3,2025-02-21_13h22.24.251,comp,2024.2.4,60.16159547199906,2025-02-21 13h22.34.881542 -0500,
121,121,0,critical,hwd,35.0,2.1,upper,200.0,125.0,125.0,200.0,127.0,127.0,1,0.7681772708892822,None,,,,,0,0,0,0,0,121,121,17,245.80089497566223,,,,,,,,,,,,,,,,,,,,,,,,,,,,,,,,,,,,,,,,,,,,,,,,,,,,,,,,,,,,,,,,,,,,,,,,,,,,,,,,,200.0,125.0,125.0,200.0,127.0,127.0,2.1,2.11,-258,265,0,276,260,-267,245.78643536567688,245.78647541999817,245.78876543045044,245.80089497566223,245.95123147964478,245.95123147964478,245.95123147964478,245.95123147964478,245.95123147964478,245.95123147964478,245.95123147964478,246.5857183933258,1,0.7681772708892822,None,,,,,,,,,,,,,,,,,,77,3,2025-02-21_13h22.24.251,comp,2024.2.4,60.16159547199906,2025-02-21 13h22.34.881542 -0500,
122,122,0,critical,wdh,20.0,4.0,upper,125.0,200.0,141.0,141.0,200.0,125.0,1,0.8088445663452148,None,,,,,0,0,0,0,0,122,122,83,246.60095810890198,,,,,,,,,,,,,,,,,,,,,,,,,,,,,,,,,,,,,,,,,,,,,,,,,,,,,,,,,,,,,,,,,,,,,,,,,,,,,,,,,125.0,200.0,141.0,141.0,200.0,125.0,4.0,4.2,-266,13,0,-264,229,5,246.5864977836609,246.58653616905212,246.58883142471313,246.60095810890198,246.75120496749878,246.75120496749878,246.75120496749878,246.75120496749878,246.75120496749878,246.75120496749878,246.75120496749878,247.41909408569336,1,0.8088445663452148,None,,,,,,,,,,,,,,,,,,77,3,2025-02-21_13h22.24.251,comp,2024.2.4,60.16159547199906,2025-02-21 13h22.34.881542 -0500,
123,123,0,filler_random,None,None,None,None,None,None,None,None,None,None,1,1.0545566082000732,None,,,,,0,0,0,0,0,123,123,159,247.43448424339294,,,,,,,,,,,,,,,,,,,,,,,,,,,,,,,,,,,,,,,,,,,,,,,,,,,,,,,,,,,,,,,,,,,,,,,,,,,,,,,,,138.09495172564985,59.694735221597476,76.41701999197979,98.43948437850383,80.52641724932573,101.50540119185965,1.0,1.1,-655,254,-480,277,-284,271,247.4199993610382,247.42003965377808,247.42211365699768,247.43448424339294,247.58437585830688,247.58437585830688,247.58437585830688,247.58437585830688,247.58437585830688,247.58437585830688,247.58437585830688,248.50218892097473,1,1.0545566082000732,None,,,,,,,,,,,,,,,,,,77,3,2025-02-21_13h22.24.251,comp,2024.2.4,60.16159547199906,2025-02-21 13h22.34.881542 -0500,
124,124,0,critical,whd,35.0,3.0,lower,57.0,133.0,133.0,57.0,70.0,70.0,2,1.2282662391662598,None,,,,,0,0,0,0,0,124,124,86,248.5175061225891,,,,,,,,,,,,,,,,,,,,,,,,,,,,,,,,,,,,,,,,,,,,,,,,,,,,,,,,,,,,,,,,,,,,,,,,,,,,,,,,,57.0,133.0,133.0,57.0,70.0,70.0,3.0,3.1,-191,288,0,9,160,-289,248.5029878616333,248.5030279159546,248.50498819351196,248.5175061225891,248.66775751113892,248.66775751113892,248.66775751113892,248.66775751113892,248.66775751113892,248.66775751113892,248.66775751113892,249.7521312236786,2,1.2282662391662598,None,,,,,,,,,,,,,,,,,,77,3,2025-02-21_13h22.24.251,comp,2024.2.4,60.16159547199906,2025-02-21 13h22.34.881542 -0500,
125,125,0,filler_square,None,None,None,None,None,None,None,None,None,None,2,0.7694113254547119,None,,,,,0,0,0,0,0,125,125,195,249.76774406433105,,,,,,,,,,,,,,,,,,,,,,,,,,,,,,,,,,,,,,,,,,,,,,,,,,,,,,,,,,,,,,,,,,,,,,,,,,,,,,,,,118.12220655833349,66.23021974464481,119.23698270986243,119.23698270986243,69.08739692861147,84.80379046497367,3.0,3.2,-189,-253,0,9,198,287,249.75313258171082,249.75317430496216,249.75567889213562,249.76774406433105,249.91769814491272,249.91769814491272,249.91769814491272,249.91769814491272,249.91769814491272,249.91769814491272,249.91769814491272,250.5522222518921,2,0.7694113254547119,None,,,,,,,,,,,,,,,,,,77,3,2025-02-21_13h22.24.251,comp,2024.2.4,60.16159547199906,2025-02-21 13h22.34.881542 -0500,
126,126,0,filler_random,None,None,None,None,None,None,None,None,None,None,2,0.6262845993041992,None,,,,,0,0,0,0,0,126,126,154,250.5674865245819,,,,,,,,,,,,,,,,,,,,,,,,,,,,,,,,,,,,,,,,,,,,,,,,,,,,,,,,,,,,,,,,,,,,,,,,,,,,,,,,,139.91457909980875,88.38390807759046,151.4645398708579,194.23269900055394,190.97894233869218,69.51547795585965,2.1,2.11,-237,287,0,280,228,-271,250.5531289577484,250.55316948890686,250.55569076538086,250.5674865245819,250.7178237438202,250.7178237438202,250.7178237438202,250.7178237438202,250.7178237438202,250.7178237438202,250.7178237438202,251.20228219032288,2,0.6262845993041992,None,,,,,,,,,,,,,,,,,,77,3,2025-02-21_13h22.24.251,comp,2024.2.4,60.16159547199906,2025-02-21 13h22.34.881542 -0500,
127,127,0,critical,hdw,35.0,2.1,upper,200.0,125.0,127.0,127.0,125.0,200.0,1,0.8877887725830078,None,,,,,0,0,0,0,0,127,127,45,251.21783661842346,,,,,,,,,,,,,,,,,,,,,,,,,,,,,,,,,,,,,,,,,,,,,,,,,,,,,,,,,,,,,,,,,,,,,,,,,,,,,,,,,200.0,125.0,127.0,127.0,125.0,200.0,2.1,2.11,-222,268,0,274,260,-289,251.2030735015869,251.20311188697815,251.2051239013672,251.21783661842346,251.36783027648926,251.36783027648926,251.36783027648926,251.36783027648926,251.36783027648926,251.36783027648926,251.36783027648926,252.118914604187,1,0.8877887725830078,None,,,,,,,,,,,,,,,,,,77,3,2025-02-21_13h22.24.251,comp,2024.2.4,60.16159547199906,2025-02-21 13h22.34.881542 -0500,
128,128,0,filler_square,None,None,None,None,None,None,None,None,None,None,3,1.4917869567871094,None,,,,,0,0,0,0,0,128,128,205,252.13422441482544,,,,,,,,,,,,,,,,,,,,,,,,,,,,,,,,,,,,,,,,,,,,,,,,,,,,,,,,,,,,,,,,,,,,,,,,,,,,,,,,,113.47621756144915,82.26493382671941,72.08619973971463,73.91138485302959,133.22347550435754,133.22347550435754,2.2,2.21,-174,-288,0,289,200,287,252.1198787689209,252.11991810798645,252.12232756614685,252.13422441482544,252.28440380096436,252.28440380096436,252.28440380096436,252.28440380096436,252.28440380096436,252.28440380096436,252.28440380096436,253.63553166389465,3,1.4917869567871094,None,,,,,,,,,,,,,,,,,,77,3,2025-02-21_13h22.24.251,comp,2024.2.4,60.16159547199906,2025-02-21 13h22.34.881542 -0500,
129,129,0,filler_random,None,None,None,None,None,None,None,None,None,None,3,0.9832372665405273,None,,,,,0,0,0,0,0,129,129,144,253.65142250061035,,,,,,,,,,,,,,,,,,,,,,,,,,,,,,,,,,,,,,,,,,,,,,,,,,,,,,,,,,,,,,,,,,,,,,,,,,,,,,,,,129.9976419893609,161.34338605587533,124.41396153619769,87.8260496982983,144.85992647622223,160.79849979863275,2.1,2.11,-221,251,0,253,220,-286,253.63643622398376,253.63647484779358,253.63840293884277,253.65142250061035,253.80110120773315,253.80110120773315,253.80110120773315,253.80110120773315,253.80110120773315,253.80110120773315,253.80110120773315,254.65222454071045,3,0.9832372665405273,None,,,,,,,,,,,,,,,,,,77,3,2025-02-21_13h22.24.251,comp,2024.2.4,60.16159547199906,2025-02-21 13h22.34.881542 -0500,
130,130,0,filler_square,None,None,None,None,None,None,None,None,None,None,1,0.8380296230316162,None,,,,,0,0,0,0,0,130,130,185,254.66755056381226,,,,,,,,,,,,,,,,,,,,,,,,,,,,,,,,,,,,,,,,,,,,,,,,,,,,,,,,,,,,,,,,,,,,,,,,,,,,,,,,,115.16002967873058,115.16002967873058,80.40041459607365,75.4371858433311,71.16045817248671,75.02778769217633,3.0,3.1,-191,282,0,-10,171,-250,254.65317463874817,254.65321564674377,254.65570831298828,254.66755056381226,254.8178675174713,254.8178675174713,254.8178675174713,254.8178675174713,254.8178675174713,254.8178675174713,254.8178675174713,255.51862502098083,1,0.8380296230316162,None,,,,,,,,,,,,,,,,,,77,3,2025-02-21_13h22.24.251,comp,2024.2.4,60.16159547199906,2025-02-21 13h22.34.881542 -0500,
131,131,0,critical,wdh,35.0,2.1,upper,125.0,200.0,127.0,127.0,200.0,125.0,1,0.7868876457214355,None,,,,,0,0,0,0,0,131,131,33,255.53413367271423,,,,,,,,,,,,,,,,,,,,,,,,,,,,,,,,,,,,,,,,,,,,,,,,,,,,,,,,,,,,,,,,,,,,,,,,,,,,,,,,,125.0,200.0,127.0,127.0,200.0,125.0,2.1,2.11,-260,289,0,284,222,-280,255.51942205429077,255.51946210861206,255.52179312705994,255.53413367271423,255.6845245361328,255.6845245361328,255.6845245361328,255.6845245361328,255.6845245361328,255.6845245361328,255.6845245361328,256.33558416366577,1,0.7868876457214355,None,,,,,,,,,,,,,,,,,,77,3,2025-02-21_13h22.24.251,comp,2024.2.4,60.16159547199906,2025-02-21 13h22.34.881542 -0500,
132,132,0,critical,wdh,20.0,2.1,upper,125.0,200.0,141.0,141.0,200.0,125.0,3,0.9219467639923096,None,,,,,0,0,0,0,0,132,132,35,256.35085463523865,,,,,,,,,,,,,,,,,,,,,,,,,,,,,,,,,,,,,,,,,,,,,,,,,,,,,,,,,,,,,,,,,,,,,,,,,,,,,,,,,125.0,200.0,141.0,141.0,200.0,125.0,2.1,2.12,-266,-251,0,-282,229,289,256.3363230228424,256.33637380599976,256.3386995792389,256.35085463523865,256.5016510486603,256.5016510486603,256.5016510486603,256.5016510486603,256.5016510486603,256.5016510486603,256.5016510486603,257.2857668399811,3,0.9219467639923096,None,,,,,,,,,,,,,,,,,,77,3,2025-02-21_13h22.24.251,comp,2024.2.4,60.16159547199906,2025-02-21 13h22.34.881542 -0500,
133,133,0,filler_square,None,None,None,None,None,None,None,None,None,None,2,0.9501910209655762,None,,,,,0,0,0,0,0,133,133,183,257.30092430114746,,,,,,,,,,,,,,,,,,,,,,,,,,,,,,,,,,,,,,,,,,,,,,,,,,,,,,,,,,,,,,,,,,,,,,,,,,,,,,,,,98.92714114729719,102.80077336901566,145.11043339941995,145.11043339941995,57.197098148819634,102.06191300902691,2.2,2.22,-220,272,0,-264,220,-271,257.28671622276306,257.28675746917725,257.2890679836273,257.30092430114746,257.45101833343506,257.45101833343506,257.45101833343506,257.45101833343506,257.45101833343506,257.45101833343506,257.45101833343506,258.2687623500824,2,0.9501910209655762,None,,,,,,,,,,,,,,,,,,77,3,2025-02-21_13h22.24.251,comp,2024.2.4,60.16159547199906,2025-02-21 13h22.34.881542 -0500,
134,134,0,critical,whd,20.0,4.0,lower,57.0,133.0,133.0,57.0,78.0,78.0,1,2.0614309310913086,None,,,,,0,0,0,0,0,134,134,94,258.2841782569885,,,,,,,,,,,,,,,,,,,,,,,,,,,,,,,,,,,,,,,,,,,,,,,,,,,,,,,,,,,,,,,,,,,,,,,,,,,,,,,,,57.0,133.0,133.0,57.0,78.0,78.0,4.0,4.1,-191,-251,0,-3,164,-259,258.2695744037628,258.2696142196655,258.2719988822937,258.2841782569885,258.4343135356903,258.4343135356903,258.4343135356903,258.4343135356903,258.4343135356903,258.4343135356903,258.4343135356903,260.35205817222595,1,2.0614309310913086,None,,,,,,,,,,,,,,,,,,77,3,2025-02-21_13h22.24.251,comp,2024.2.4,60.16159547199906,2025-02-21 13h22.34.881542 -0500,
135,135,0,filler_square,None,None,None,None,None,None,None,None,None,None,3,1.6504738330841064,None,,,,,0,0,0,0,0,135,135,170,260.3677041530609,,,,,,,,,,,,,,,,,,,,,,,,,,,,,,,,,,,,,,,,,,,,,,,,,,,,,,,,,,,,,,,,,,,,,,,,,,,,,,,,,90.81969435817834,90.81969435817834,80.02282201410617,70.91122258958079,88.71299032032684,71.50325384122922,3.0,3.1,-177,271,0,13,167,-280,260.35301303863525,260.3530538082123,260.3556957244873,260.3677041530609,260.51752972602844,260.51752972602844,260.51752972602844,260.51752972602844,260.51752972602844,260.51752972602844,260.51752972602844,262.03537487983704,3,1.6504738330841064,None,,,,,,,,,,,,,,,,,,77,3,2025-02-21_13h22.24.251,comp,2024.2.4,60.16159547199906,2025-02-21 13h22.34.881542 -0500,
136,136,0,critical,whd,35.0,2.1,lower,57.0,133.0,133.0,57.0,70.0,70.0,2,0.9180822372436523,None,,,,,0,0,0,0,0,136,136,12,262.0508494377136,,,,,,,,,,,,,,,,,,,,,,,,,,,,,,,,,,,,,,,,,,,,,,,,,,,,,,,,,,,,,,,,,,,,,,,,,,,,,,,,,57.0,133.0,133.0,57.0,70.0,70.0,2.1,2.12,-191,-287,0,-252,160,258,262.03619480133057,262.0362343788147,262.0382468700409,262.0508494377136,262.2009127140045,262.2009127140045,262.2009127140045,262.2009127140045,262.2009127140045,262.2009127140045,262.2009127140045,262.98529291152954,2,0.9180822372436523,None,,,,,,,,,,,,,,,,,,77,3,2025-02-21_13h22.24.251,comp,2024.2.4,60.16159547199906,2025-02-21 13h22.34.881542 -0500,
137,137,0,critical,dhw,20.0,3.0,lower,78.0,78.0,133.0,57.0,57.0,133.0,2,0.8006751537322998,None,,,,,0,0,0,0,0,137,137,56,263.00077724456787,,,,,,,,,,,,,,,,,,,,,,,,,,,,,,,,,,,,,,,,,,,,,,,,,,,,,,,,,,,,,,,,,,,,,,,,,,,,,,,,,78.0,78.0,133.0,57.0,57.0,133.0,3.0,3.2,-164,-250,0,-11,191,254,262.9860622882843,262.9861009120941,262.9879825115204,263.00077724456787,263.1510715484619,263.1510715484619,263.1510715484619,263.1510715484619,263.1510715484619,263.1510715484619,263.1510715484619,263.81869649887085,2,0.8006751537322998,None,,,,,,,,,,,,,,,,,,77,3,2025-02-21_13h22.24.251,comp,2024.2.4,60.16159547199906,2025-02-21 13h22.34.881542 -0500,
138,138,0,filler_square,None,None,None,None,None,None,None,None,None,None,1,0.7115514278411865,None,,,,,0,0,0,0,0,138,138,176,263.83421063423157,,,,,,,,,,,,,,,,,,,,,,,,,,,,,,,,,,,,,,,,,,,,,,,,,,,,,,,,,,,,,,,,,,,,,,,,,,,,,,,,,165.2533975788312,165.2533975788312,111.28008263421262,140.07854842825856,75.05136620169873,105.86007908507631,1.0,1.1,-729,281,-480,289,-261,252,263.81967425346375,263.81971549987793,263.82206320762634,263.83421063423157,263.98436999320984,263.98436999320984,263.98436999320984,263.98436999320984,263.98436999320984,263.98436999320984,263.98436999320984,264.5521445274353,1,0.7115514278411865,None,,,,,,,,,,,,,,,,,,77,3,2025-02-21_13h22.24.251,comp,2024.2.4,60.16159547199906,2025-02-21 13h22.34.881542 -0500,
139,139,0,critical,hdw,20.0,2.1,upper,200.0,125.0,141.0,141.0,125.0,200.0,1,1.4748411178588867,None,,,,,0,0,0,0,0,139,139,23,264.5675992965698,,,,,,,,,,,,,,,,,,,,,,,,,,,,,,,,,,,,,,,,,,,,,,,,,,,,,,,,,,,,,,,,,,,,,,,,,,,,,,,,,200.0,125.0,141.0,141.0,125.0,200.0,2.1,2.12,-229,-254,0,-285,266,280,264.5529463291168,264.5529885292053,264.55566906929016,264.5675992965698,264.71771216392517,264.71771216392517,264.71771216392517,264.71771216392517,264.71771216392517,264.71771216392517,264.71771216392517,266.0521950721741,1,1.4748411178588867,None,,,,,,,,,,,,,,,,,,77,3,2025-02-21_13h22.24.251,comp,2024.2.4,60.16159547199906,2025-02-21 13h22.34.881542 -0500,
