thisN,thisTrialN,thisRepN,effect,order,distance,config,diag,h_1,w_1,h_2,w_2,h_3,w_3,rect_choice.keys,rect_choice.rt,rect_choice.duration,instructions_loop.thisRepN,instructions_loop.thisTrialN,instructions_loop.thisN,instructions_loop.thisIndex,blocks.thisRepN,blocks.thisTrialN,blocks.thisN,blocks.thisIndex,trials.thisRepN,trials.thisTrialN,trials.thisN,trials.thisIndex,thisRow.t,notes,consent.started,agree_button.started,decline_button.started,consent_img.started,mouse.started,consent.stopped,agree_button.numClicks,agree_button.timesOn,agree_button.timesOff,decline_button.numClicks,decline_button.timesOn,decline_button.timesOff,mouse.x,mouse.y,mouse.leftButton,mouse.midButton,mouse.rightButton,mouse.time,mouse.clicked_name,exp_params.started,exp_params.stopped,welcome.started,welcome_text.started,welcome.stopped,instructions_1.started,instructions_1_text_1.started,instructions_1_text_2.started,key_resp.started,instructions_1.stopped,instructions_loop.key_resp.keys,instructions_loop.key_resp.rt,instructions_loop.key_resp.duration,instructions_2.started,instructions_2_text_1.started,instructions_2_text_2.started,key_resp_2.started,instructions_2.stopped,instructions_loop.key_resp_2.keys,instructions_loop.key_resp_2.rt,instructions_loop.key_resp_2.duration,instructions_3.started,instructions_3_text_1.started,r1_instr3.started,r2_instr3.started,r3_instr3.started,r1_instr3_label.started,r2_instr3_label.started,r3_instr3_label.started,instructions_3_text_3.started,instructions_3_text_4.started,key_resp_3.started,instructions_3.stopped,instructions_loop.key_resp_3.keys,instructions_loop.key_resp_3.rt,instructions_loop.key_resp_3.duration,instructions_4.started,instructions_4_text_1.started,instructions_4_text_3.started,instructions_4_text_2.started,key_resp_4.started,instructions_4.stopped,instructions_loop.key_resp_4.keys,instructions_loop.key_resp_4.rt,instructions_loop.key_resp_4.duration,instructions_5.started,instructions_5_text_1.started,instructions_5_text_2.started,key_resp_5.started,instructions_5.stopped,instructions_loop.key_resp_5.keys,instructions_loop.key_resp_5.rt,instructions_loop.key_resp_5.duration,start_exp.started,start_exp_text.started,key_resp_6.started,start_exp.stopped,key_resp_6.keys,key_resp_6.rt,key_resp_6.duration,h_1_tmp,w_1_tmp,h_2_tmp,w_2_tmp,h_3_tmp,w_3_tmp,config_tmp,config_tmp_1,r_1_x,r_1_y,r_2_x,r_2_y,r_3_x,r_3_y,pre_trial.started,pre_trial.stopped,choice_trial.started,rect_choice.started,r_1.started,r_2.started,r_3.started,r_1_label.started,r_2_label.started,r_3_label.started,prompt.started,choice_trial.stopped,trials.rect_choice.keys,trials.rect_choice.rt,trials.rect_choice.duration,end_block.started,end_block_text.started,end_block.stopped,end.started,end_text.started,key_resp_7.started,end.stopped,key_resp_7.keys,key_resp_7.rt,key_resp_7.duration,debriefing.started,debrief_form.started,end_debrief.started,debriefing.stopped,end_debrief.keys,end_debrief.rt,end_debrief.duration,participant,computer,date,expName,psychopyVersion,frameRate,expStart,
,,,,,,,,,,,,,,,,,,,,,,,,,,,,,,,0.015204191207885742,0.0810554027557373,0.0810554027557373,0.0810554027557373,0.01493072509765625,19.84100604057312,1,[19.757431507110596],[19.757452487945557],0,,,[-74.0],[-491.0],[1],[0],[0],[19.806988954544067],['agree_button'],,,,,,,,,,,,,,,,,,,,,,,,,,,,,,,,,,,,,,,,,,,,,,,,,,,,,,,,,,,,,,,,,,,,,,,,,,,,,,,,,,,,,,,,,,,,,,,,,,,,,,,,,,,78,2,2025-02-21_13h23.27.897,comp,2024.2.4,None,2025-02-21 13h24.31.636854 -0500,
,,,,,,,,,,,,,,,,,,,,,,,,,,,,,,,,,,,,,,,,,,,,,,,,,,19.841615915298462,19.84167766571045,,,,,,,,,,,,,,,,,,,,,,,,,,,,,,,,,,,,,,,,,,,,,,,,,,,,,,,,,,,,,,,,,,,,,,,,,,,,,,,,,,,,,,,,,,,,,,,,,,,,,,,,,78,2,2025-02-21_13h23.27.897,comp,2024.2.4,None,2025-02-21 13h24.31.636854 -0500,
,,,,,,,,,,,,,,,,,,,,,,,,,,,,,,,,,,,,,,,,,,,,,,,,,,,,19.841719388961792,19.860127449035645,21.854488849639893,,,,,,,,,,,,,,,,,,,,,,,,,,,,,,,,,,,,,,,,,,,,,,,,,,,,,,,,,,,,,,,,,,,,,,,,,,,,,,,,,,,,,,,,,,,,,,,,,,,,,,78,2,2025-02-21_13h23.27.897,comp,2024.2.4,None,2025-02-21 13h24.31.636854 -0500,
0,0,0,,,,,,,,,,,,,,,0,0,0,0,,,,,,,,,21.873109340667725,,,,,,,,,,,,,,,,,,,,,,,,,,21.85540509223938,21.873109340667725,21.873109340667725,23.354758739471436,24.42433762550354,space,1.0545122623443604,None,24.42448854446411,24.44022274017334,24.44022274017334,25.938970804214478,28.575841665267944,space,2.630645751953125,None,28.575994968414307,28.624936819076538,28.624936819076538,28.624936819076538,28.624936819076538,28.624936819076538,28.624936819076538,28.624936819076538,28.624936819076538,28.624936819076538,30.079463958740234,31.140800714492798,space,1.041788101196289,None,31.140973806381226,31.162112951278687,31.162112951278687,31.162112951278687,32.641183853149414,34.896878719329834,space,2.2399230003356934,None,34.89703965187073,34.91208243370056,34.91208243370056,36.41001892089844,36.89313006401062,space,0.47966933250427246,None,36.89334440231323,36.913185596466064,36.913185596466064,37.52859139442444,space,0.608299732208252,None,,,,,,,,,,,,,,,,,,,,,,,,,,,,,,,,,,,,,,,,,,,,,,,78,2,2025-02-21_13h23.27.897,comp,2024.2.4,None,2025-02-21 13h24.31.636854 -0500,
0,0,0,critical,hdw,20.0,3.0,upper,200.0,125.0,141.0,141.0,125.0,200.0,3,5.286811113357544,None,,,,,0,0,0,0,0,0,0,117,37.706849813461304,,,,,,,,,,,,,,,,,,,,,,,,,,,,,,,,,,,,,,,,,,,,,,,,,,,,,,,,,,,,,,,,,,,,,,,,,,,,,,,,,200.0,125.0,141.0,141.0,125.0,200.0,3.0,3.1,-229,279,0,-14,266,-251,37.68834567070007,37.688475608825684,37.69160556793213,37.706849813461304,37.85184073448181,37.85184073448181,37.85184073448181,37.85184073448181,37.85184073448181,37.85184073448181,37.85184073448181,43.01227116584778,3,5.286811113357544,None,,,,,,,,,,,,,,,,,,78,2,2025-02-21_13h23.27.897,comp,2024.2.4,None,2025-02-21 13h24.31.636854 -0500,
1,1,0,filler_square,None,None,None,None,None,None,None,None,None,None,1,3.3105506896972656,None,,,,,0,0,0,0,0,1,1,186,43.02792191505432,,,,,,,,,,,,,,,,,,,,,,,,,,,,,,,,,,,,,,,,,,,,,,,,,,,,,,,,,,,,,,,,,,,,,,,,,,,,,,,,,78.40061089687559,72.50153172124814,79.40290169604813,79.40290169604813,63.53383726725994,77.68458614097281,2.2,2.21,-172,-265,0,276,175,289,43.01405429840088,43.014164447784424,43.01748085021973,43.02792191505432,43.18149447441101,43.18149447441101,43.18149447441101,43.18149447441101,43.18149447441101,43.18149447441101,43.18149447441101,46.34679436683655,1,3.3105506896972656,None,,,,,,,,,,,,,,,,,,78,2,2025-02-21_13h23.27.897,comp,2024.2.4,None,2025-02-21 13h24.31.636854 -0500,
2,2,0,critical,whd,35.0,4.0,lower,57.0,133.0,133.0,57.0,70.0,70.0,1,3.8461101055145264,None,,,,,0,0,0,0,0,2,2,88,46.36291289329529,,,,,,,,,,,,,,,,,,,,,,,,,,,,,,,,,,,,,,,,,,,,,,,,,,,,,,,,,,,,,,,,,,,,,,,,,,,,,,,,,57.0,133.0,133.0,57.0,70.0,70.0,4.0,4.1,-191,-270,0,-18,160,-263,46.3484148979187,46.34852933883667,46.35197901725769,46.36291289329529,46.514997482299805,46.514997482299805,46.514997482299805,46.514997482299805,46.514997482299805,46.514997482299805,46.514997482299805,50.22512102127075,1,3.8461101055145264,None,,,,,,,,,,,,,,,,,,78,2,2025-02-21_13h23.27.897,comp,2024.2.4,None,2025-02-21 13h24.31.636854 -0500,
3,3,0,critical,dhw,20.0,4.0,upper,141.0,141.0,200.0,125.0,125.0,200.0,3,3.588456869125366,None,,,,,0,0,0,0,0,3,3,59,50.24464654922485,,,,,,,,,,,,,,,,,,,,,,,,,,,,,,,,,,,,,,,,,,,,,,,,,,,,,,,,,,,,,,,,,,,,,,,,,,,,,,,,,141.0,141.0,200.0,125.0,125.0,200.0,4.0,4.2,-229,4,0,-252,258,13,50.226603984832764,50.22668099403381,50.22974443435669,50.24464654922485,50.381537437438965,50.381537437438965,50.381537437438965,50.381537437438965,50.381537437438965,50.381537437438965,50.381537437438965,53.8352313041687,3,3.588456869125366,None,,,,,,,,,,,,,,,,,,78,2,2025-02-21_13h23.27.897,comp,2024.2.4,None,2025-02-21 13h24.31.636854 -0500,
4,4,0,filler_random,None,None,None,None,None,None,None,None,None,None,3,4.517350912094116,None,,,,,0,0,0,0,0,4,4,156,53.85187029838562,,,,,,,,,,,,,,,,,,,,,,,,,,,,,,,,,,,,,,,,,,,,,,,,,,,,,,,,,,,,,,,,,,,,,,,,,,,,,,,,,64.59248835304007,81.70142143004642,79.19199887943535,115.87334935766128,72.67632511187618,198.82363878491944,4.0,4.2,-195,3,0,-281,253,0,53.83727216720581,53.837403774261475,53.84112048149109,53.85187029838562,53.998440742492676,53.998440742492676,53.998440742492676,53.998440742492676,53.998440742492676,53.998440742492676,53.998440742492676,58.38497853279114,3,4.517350912094116,None,,,,,,,,,,,,,,,,,,78,2,2025-02-21_13h23.27.897,comp,2024.2.4,None,2025-02-21 13h24.31.636854 -0500,
5,5,0,critical,hwd,20.0,2.1,lower,133.0,57.0,57.0,133.0,78.0,78.0,1,6.905562400817871,None,,,,,0,0,0,0,0,5,5,18,58.399630546569824,,,,,,,,,,,,,,,,,,,,,,,,,,,,,,,,,,,,,,,,,,,,,,,,,,,,,,,,,,,,,,,,,,,,,,,,,,,,,,,,,133.0,57.0,57.0,133.0,78.0,78.0,2.1,2.11,-191,260,0,260,202,-288,58.38667273521423,58.38674807548523,58.39044260978699,58.399630546569824,58.55415606498718,58.55415606498718,58.55415606498718,58.55415606498718,58.55415606498718,58.55415606498718,58.55415606498718,65.32047057151794,1,6.905562400817871,None,,,,,,,,,,,,,,,,,,78,2,2025-02-21_13h23.27.897,comp,2024.2.4,None,2025-02-21 13h24.31.636854 -0500,
6,6,0,critical,dhw,35.0,2.1,lower,70.0,70.0,133.0,57.0,57.0,133.0,3,1.6425974369049072,None,,,,,0,0,0,0,0,6,6,24,65.33623719215393,,,,,,,,,,,,,,,,,,,,,,,,,,,,,,,,,,,,,,,,,,,,,,,,,,,,,,,,,,,,,,,,,,,,,,,,,,,,,,,,,70.0,70.0,133.0,57.0,57.0,133.0,2.1,2.11,-160,285,0,269,191,-251,65.3222439289093,65.3223569393158,65.32591843605042,65.33623719215393,65.48903703689575,65.48903703689575,65.48903703689575,65.48903703689575,65.48903703689575,65.48903703689575,65.48903703689575,66.98920607566833,3,1.6425974369049072,None,,,,,,,,,,,,,,,,,,78,2,2025-02-21_13h23.27.897,comp,2024.2.4,None,2025-02-21 13h24.31.636854 -0500,
7,7,0,critical,wdh,35.0,3.0,upper,125.0,200.0,127.0,127.0,200.0,125.0,1,2.9711854457855225,None,,,,,0,0,0,0,0,7,7,75,67.00586986541748,,,,,,,,,,,,,,,,,,,,,,,,,,,,,,,,,,,,,,,,,,,,,,,,,,,,,,,,,,,,,,,,,,,,,,,,,,,,,,,,,125.0,200.0,127.0,127.0,200.0,125.0,3.0,3.2,-260,-273,0,-3,222,281,66.990807056427,66.99093699455261,66.99513173103333,67.00586986541748,67.16156196594238,67.16156196594238,67.16156196594238,67.16156196594238,67.16156196594238,67.16156196594238,67.16156196594238,69.98757100105286,1,2.9711854457855225,None,,,,,,,,,,,,,,,,,,78,2,2025-02-21_13h23.27.897,comp,2024.2.4,None,2025-02-21 13h24.31.636854 -0500,
8,8,0,filler_random,None,None,None,None,None,None,None,None,None,None,1,4.412539482116699,None,,,,,0,0,0,0,0,8,8,144,70.00516247749329,,,,,,,,,,,,,,,,,,,,,,,,,,,,,,,,,,,,,,,,,,,,,,,,,,,,,,,,,,,,,,,,,,,,,,,,,,,,,,,,,160.92255914748287,89.22335688334314,155.00311504993223,66.49235095812557,84.75052818710347,167.43347333094317,2.1,2.12,-174,-267,0,-257,213,287,69.98955655097961,69.98964071273804,69.9932701587677,70.00516247749329,70.1561553478241,70.1561553478241,70.1561553478241,70.1561553478241,70.1561553478241,70.1561553478241,70.1561553478241,74.42170643806458,1,4.412539482116699,None,,,,,,,,,,,,,,,,,,78,2,2025-02-21_13h23.27.897,comp,2024.2.4,None,2025-02-21 13h24.31.636854 -0500,
9,9,0,filler_random,None,None,None,None,None,None,None,None,None,None,1,3.4108290672302246,None,,,,,0,0,0,0,0,9,9,135,74.43824410438538,,,,,,,,,,,,,,,,,,,,,,,,,,,,,,,,,,,,,,,,,,,,,,,,,,,,,,,,,,,,,,,,,,,,,,,,,,,,,,,,,149.77759171862033,172.20041098647266,197.72186431653122,139.9368178805662,119.18018386753417,139.90835932940962,3.0,3.1,-252,261,0,-3,236,-285,74.42361497879028,74.42372822761536,74.42734670639038,74.43824410438538,74.59527111053467,74.59527111053467,74.59527111053467,74.59527111053467,74.59527111053467,74.59527111053467,74.59527111053467,77.85954141616821,1,3.4108290672302246,None,,,,,,,,,,,,,,,,,,78,2,2025-02-21_13h23.27.897,comp,2024.2.4,None,2025-02-21 13h24.31.636854 -0500,
10,10,0,filler_square,None,None,None,None,None,None,None,None,None,None,1,0.9663710594177246,None,,,,,0,0,0,0,0,10,10,202,77.87575697898865,,,,,,,,,,,,,,,,,,,,,,,,,,,,,,,,,,,,,,,,,,,,,,,,,,,,,,,,,,,,,,,,,,,,,,,,,,,,,,,,,152.96672974451153,152.96672974451153,150.71460867012462,74.12222557896499,126.29770945150935,75.83990673956116,4.0,4.1,-210,-285,0,0,171,-285,77.86153507232666,77.86162114143372,77.86500310897827,77.87575697898865,78.02391910552979,78.02391910552979,78.02391910552979,78.02391910552979,78.02391910552979,78.02391910552979,78.02391910552979,78.84469747543335,1,0.9663710594177246,None,,,,,,,,,,,,,,,,,,78,2,2025-02-21_13h23.27.897,comp,2024.2.4,None,2025-02-21 13h24.31.636854 -0500,
11,11,0,filler_square,None,None,None,None,None,None,None,None,None,None,1,2.3727784156799316,None,,,,,0,0,0,0,0,11,11,205,78.86066031455994,,,,,,,,,,,,,,,,,,,,,,,,,,,,,,,,,,,,,,,,,,,,,,,,,,,,,,,,,,,,,,,,,,,,,,,,,,,,,,,,,101.99922331907791,101.99922331907791,94.6291346342509,95.70990238742905,73.1737664436661,58.09676379198476,2.1,2.12,-195,-270,0,-289,173,261,78.84656286239624,78.84664249420166,78.84991145133972,78.86066031455994,79.00635433197021,79.00635433197021,79.00635433197021,79.00635433197021,79.00635433197021,79.00635433197021,79.00635433197021,81.24884295463562,1,2.3727784156799316,None,,,,,,,,,,,,,,,,,,78,2,2025-02-21_13h23.27.897,comp,2024.2.4,None,2025-02-21 13h24.31.636854 -0500,
12,12,0,critical,hwd,35.0,4.0,lower,133.0,57.0,57.0,133.0,70.0,70.0,1,3.820298910140991,None,,,,,0,0,0,0,0,12,12,100,81.26883506774902,,,,,,,,,,,,,,,,,,,,,,,,,,,,,,,,,,,,,,,,,,,,,,,,,,,,,,,,,,,,,,,,,,,,,,,,,,,,,,,,,133.0,57.0,57.0,133.0,70.0,70.0,4.0,4.1,-191,-279,0,-20,198,-253,81.25054049491882,81.25067734718323,81.2541720867157,81.26883506774902,81.41447067260742,81.41447067260742,81.41447067260742,81.41447067260742,81.41447067260742,81.41447067260742,81.41447067260742,85.10208463668823,1,3.820298910140991,None,,,,,,,,,,,,,,,,,,78,2,2025-02-21_13h23.27.897,comp,2024.2.4,None,2025-02-21 13h24.31.636854 -0500,
13,13,0,filler_random,None,None,None,None,None,None,None,None,None,None,3,1.3736958503723145,None,,,,,0,0,0,0,0,13,13,141,85.12356328964233,,,,,,,,,,,,,,,,,,,,,,,,,,,,,,,,,,,,,,,,,,,,,,,,,,,,,,,,,,,,,,,,,,,,,,,,,,,,,,,,,183.83217536752966,109.06410564847754,111.40775285524515,188.34720862612997,182.1148211348925,162.63554346788214,2.1,2.12,-245,-276,0,-275,271,268,85.10410928726196,85.10419225692749,85.10769844055176,85.12356328964233,85.26273679733276,85.26273679733276,85.26273679733276,85.26273679733276,85.26273679733276,85.26273679733276,85.26273679733276,86.51355147361755,3,1.3736958503723145,None,,,,,,,,,,,,,,,,,,78,2,2025-02-21_13h23.27.897,comp,2024.2.4,None,2025-02-21 13h24.31.636854 -0500,
14,14,0,critical,hdw,20.0,1.0,lower,133.0,57.0,78.0,78.0,57.0,133.0,1,6.08057427406311,None,,,,,0,0,0,0,0,14,14,114,86.52956438064575,,,,,,,,,,,,,,,,,,,,,,,,,,,,,,,,,,,,,,,,,,,,,,,,,,,,,,,,,,,,,,,,,,,,,,,,,,,,,,,,,133.0,57.0,78.0,78.0,57.0,133.0,1.0,1.1,-644,263,-480,286,-278,272,86.51519346237183,86.51527667045593,86.51843690872192,86.52956438064575,86.67648959159851,86.67648959159851,86.67648959159851,86.67648959159851,86.67648959159851,86.67648959159851,86.67648959159851,92.61397337913513,1,6.08057427406311,None,,,,,,,,,,,,,,,,,,78,2,2025-02-21_13h23.27.897,comp,2024.2.4,None,2025-02-21 13h24.31.636854 -0500,
15,15,0,filler_square,None,None,None,None,None,None,None,None,None,None,2,7.874061346054077,None,,,,,0,0,0,0,0,15,15,170,92.63183665275574,,,,,,,,,,,,,,,,,,,,,,,,,,,,,,,,,,,,,,,,,,,,,,,,,,,,,,,,,,,,,,,,,,,,,,,,,,,,,,,,,57.00255378329674,57.14474986149556,57.00703792726699,57.21183062242851,57.224819924803896,57.224819924803896,2.1,2.11,-153,281,0,259,153,-286,92.61608982086182,92.6161847114563,92.62021255493164,92.63183665275574,92.77918601036072,92.77918601036072,92.77918601036072,92.77918601036072,92.77918601036072,92.77918601036072,92.77918601036072,100.51421046257019,2,7.874061346054077,None,,,,,,,,,,,,,,,,,,78,2,2025-02-21_13h23.27.897,comp,2024.2.4,None,2025-02-21 13h24.31.636854 -0500,
16,16,0,critical,wdh,20.0,3.0,upper,125.0,200.0,141.0,141.0,200.0,125.0,2,3.8182406425476074,None,,,,,0,0,0,0,0,16,16,81,100.53485369682312,,,,,,,,,,,,,,,,,,,,,,,,,,,,,,,,,,,,,,,,,,,,,,,,,,,,,,,,,,,,,,,,,,,,,,,,,,,,,,,,,125.0,200.0,141.0,141.0,200.0,125.0,3.0,3.2,-266,-275,0,3,229,274,100.51577520370483,100.51586270332336,100.5193932056427,100.53485369682312,100.68198871612549,100.68198871612549,100.68198871612549,100.68198871612549,100.68198871612549,100.68198871612549,100.68198871612549,104.36617159843445,2,3.8182406425476074,None,,,,,,,,,,,,,,,,,,78,2,2025-02-21_13h23.27.897,comp,2024.2.4,None,2025-02-21 13h24.31.636854 -0500,
17,17,0,critical,hwd,35.0,1.0,upper,200.0,125.0,125.0,200.0,127.0,127.0,2,2.530210494995117,None,,,,,0,0,0,0,0,17,17,97,104.38326978683472,,,,,,,,,,,,,,,,,,,,,,,,,,,,,,,,,,,,,,,,,,,,,,,,,,,,,,,,,,,,,,,,,,,,,,,,,,,,,,,,,200.0,125.0,125.0,200.0,127.0,127.0,1.0,1.1,-738,255,-480,252,-220,279,104.36778211593628,104.36786127090454,104.37117886543274,104.38326978683472,104.53589010238647,104.53589010238647,104.53589010238647,104.53589010238647,104.53589010238647,104.53589010238647,104.53589010238647,106.91999578475952,2,2.530210494995117,None,,,,,,,,,,,,,,,,,,78,2,2025-02-21_13h23.27.897,comp,2024.2.4,None,2025-02-21 13h24.31.636854 -0500,
18,18,0,filler_random,None,None,None,None,None,None,None,None,None,None,1,3.169816255569458,None,,,,,0,0,0,0,0,18,18,150,106.93604254722595,,,,,,,,,,,,,,,,,,,,,,,,,,,,,,,,,,,,,,,,,,,,,,,,,,,,,,,,,,,,,,,,,,,,,,,,,,,,,,,,,136.18197924511622,146.3256044884891,186.30146349935987,80.86325620770674,171.83613649973256,104.2738880389888,1.0,1.1,-690,252,-480,287,-291,261,106.92187547683716,106.9219582080841,106.92527794837952,106.93604254722595,107.08389115333557,107.08389115333557,107.08389115333557,107.08389115333557,107.08389115333557,107.08389115333557,107.08389115333557,110.12210726737976,1,3.169816255569458,None,,,,,,,,,,,,,,,,,,78,2,2025-02-21_13h23.27.897,comp,2024.2.4,None,2025-02-21 13h24.31.636854 -0500,
19,19,0,critical,wdh,35.0,2.1,lower,57.0,133.0,70.0,70.0,133.0,57.0,3,4.022932052612305,None,,,,,0,0,0,0,0,19,19,8,110.13816905021667,,,,,,,,,,,,,,,,,,,,,,,,,,,,,,,,,,,,,,,,,,,,,,,,,,,,,,,,,,,,,,,,,,,,,,,,,,,,,,,,,57.0,133.0,70.0,70.0,133.0,57.0,2.1,2.11,-198,282,0,277,160,-275,110.1237313747406,110.12380409240723,110.1270432472229,110.13816905021667,110.28470849990845,110.28470849990845,110.28470849990845,110.28470849990845,110.28470849990845,110.28470849990845,110.28470849990845,114.17038440704346,3,4.022932052612305,None,,,,,,,,,,,,,,,,,,78,2,2025-02-21_13h23.27.897,comp,2024.2.4,None,2025-02-21 13h24.31.636854 -0500,
20,20,0,filler_random,None,None,None,None,None,None,None,None,None,None,2,0.9982962608337402,None,,,,,0,0,0,0,0,20,20,133,114.18709373474121,,,,,,,,,,,,,,,,,,,,,,,,,,,,,,,,,,,,,,,,,,,,,,,,,,,,,,,,,,,,,,,,,,,,,,,,,,,,,,,,,109.33879408256105,137.2812599160182,134.1973716093652,161.61503506999935,75.58054478757043,176.6864420990769,1.0,1.2,-245,2,0,4,265,-18,114.17232370376587,114.17240500450134,114.17610144615173,114.18709373474121,114.3368763923645,114.3368763923645,114.3368763923645,114.3368763923645,114.3368763923645,114.3368763923645,114.3368763923645,115.19740867614746,2,0.9982962608337402,None,,,,,,,,,,,,,,,,,,78,2,2025-02-21_13h23.27.897,comp,2024.2.4,None,2025-02-21 13h24.31.636854 -0500,
21,21,0,filler_random,None,None,None,None,None,None,None,None,None,None,3,0.917464017868042,None,,,,,0,0,0,0,0,21,21,145,115.2133321762085,,,,,,,,,,,,,,,,,,,,,,,,,,,,,,,,,,,,,,,,,,,,,,,,,,,,,,,,,,,,,,,,,,,,,,,,,,,,,,,,,66.01312291023578,149.2121939874861,146.38574045080912,170.31911846005056,178.75685860086577,174.4335162546393,2.1,2.11,-256,271,0,267,268,-278,115.1991331577301,115.19921016693115,115.20236039161682,115.2133321762085,115.35357689857483,115.35357689857483,115.35357689857483,115.35357689857483,115.35357689857483,115.35357689857483,115.35357689857483,116.1352961063385,3,0.917464017868042,None,,,,,,,,,,,,,,,,,,78,2,2025-02-21_13h23.27.897,comp,2024.2.4,None,2025-02-21 13h24.31.636854 -0500,
22,22,0,critical,dwh,35.0,2.1,lower,70.0,70.0,57.0,133.0,133.0,57.0,3,2.4656875133514404,None,,,,,0,0,0,0,0,22,22,4,116.15190529823303,,,,,,,,,,,,,,,,,,,,,,,,,,,,,,,,,,,,,,,,,,,,,,,,,,,,,,,,,,,,,,,,,,,,,,,,,,,,,,,,,70.0,70.0,57.0,133.0,133.0,57.0,2.1,2.12,-198,-279,0,-278,191,281,116.13684606552124,116.1369264125824,116.14024829864502,116.15190529823303,116.29114389419556,116.29114389419556,116.29114389419556,116.29114389419556,116.29114389419556,116.29114389419556,116.29114389419556,118.61988854408264,3,2.4656875133514404,None,,,,,,,,,,,,,,,,,,78,2,2025-02-21_13h23.27.897,comp,2024.2.4,None,2025-02-21 13h24.31.636854 -0500,
23,23,0,filler_square,None,None,None,None,None,None,None,None,None,None,2,0.8195927143096924,None,,,,,0,0,0,0,0,23,23,176,118.63773560523987,,,,,,,,,,,,,,,,,,,,,,,,,,,,,,,,,,,,,,,,,,,,,,,,,,,,,,,,,,,,,,,,,,,,,,,,,,,,,,,,,96.2466842708642,72.58275597205942,98.50850191845456,98.50850191845456,68.75657613222725,83.83613990618431,2.1,2.11,-182,271,0,285,187,-274,118.62164306640625,118.62171959877014,118.62512564659119,118.63773560523987,118.78756403923035,118.78756403923035,118.78756403923035,118.78756403923035,118.78756403923035,118.78756403923035,118.78756403923035,119.46833229064941,2,0.8195927143096924,None,,,,,,,,,,,,,,,,,,78,2,2025-02-21_13h23.27.897,comp,2024.2.4,None,2025-02-21 13h24.31.636854 -0500,
24,24,0,critical,hwd,35.0,2.1,lower,133.0,57.0,57.0,133.0,70.0,70.0,1,3.4363901615142822,None,,,,,0,0,0,0,0,24,24,40,119.4850525856018,,,,,,,,,,,,,,,,,,,,,,,,,,,,,,,,,,,,,,,,,,,,,,,,,,,,,,,,,,,,,,,,,,,,,,,,,,,,,,,,,133.0,57.0,57.0,133.0,70.0,70.0,2.1,2.11,-191,257,0,264,198,-279,119.47009754180908,119.47017765045166,119.47334456443787,119.4850525856018,119.62583136558533,119.62583136558533,119.62583136558533,119.62583136558533,119.62583136558533,119.62583136558533,119.62583136558533,122.93595266342163,1,3.4363901615142822,None,,,,,,,,,,,,,,,,,,78,2,2025-02-21_13h23.27.897,comp,2024.2.4,None,2025-02-21 13h24.31.636854 -0500,
25,25,0,critical,dwh,20.0,2.1,lower,78.0,78.0,57.0,133.0,133.0,57.0,1,7.872461318969727,None,,,,,0,0,0,0,0,25,25,30,122.95276832580566,,,,,,,,,,,,,,,,,,,,,,,,,,,,,,,,,,,,,,,,,,,,,,,,,,,,,,,,,,,,,,,,,,,,,,,,,,,,,,,,,78.0,78.0,57.0,133.0,133.0,57.0,2.1,2.11,-202,282,0,259,191,-251,122.9375958442688,122.93772768974304,122.94129776954651,122.95276832580566,123.08855843544006,123.08855843544006,123.08855843544006,123.08855843544006,123.08855843544006,123.08855843544006,123.08855843544006,130.84256267547607,1,7.872461318969727,None,,,,,,,,,,,,,,,,,,78,2,2025-02-21_13h23.27.897,comp,2024.2.4,None,2025-02-21 13h24.31.636854 -0500,
26,26,0,critical,dhw,35.0,2.1,upper,127.0,127.0,200.0,125.0,125.0,200.0,3,3.5343711376190186,None,,,,,0,0,0,0,0,26,26,1,130.85887789726257,,,,,,,,,,,,,,,,,,,,,,,,,,,,,,,,,,,,,,,,,,,,,,,,,,,,,,,,,,,,,,,,,,,,,,,,,,,,,,,,,127.0,127.0,200.0,125.0,125.0,200.0,2.1,2.12,-222,-263,0,-273,258,282,130.84427976608276,130.84440684318542,130.84855699539185,130.85887789726257,131.01097178459167,131.01097178459167,131.01097178459167,131.01097178459167,131.01097178459167,131.01097178459167,131.01097178459167,134.4084038734436,3,3.5343711376190186,None,,,,,,,,,,,,,,,,,,78,2,2025-02-21_13h23.27.897,comp,2024.2.4,None,2025-02-21 13h24.31.636854 -0500,
27,27,0,critical,dhw,20.0,1.0,upper,141.0,141.0,200.0,125.0,125.0,200.0,1,3.623425245285034,None,,,,,0,0,0,0,0,27,27,55,134.42654585838318,,,,,,,,,,,,,,,,,,,,,,,,,,,,,,,,,,,,,,,,,,,,,,,,,,,,,,,,,,,,,,,,,,,,,,,,,,,,,,,,,141.0,141.0,200.0,125.0,125.0,200.0,1.0,1.3,251,-279,480,-259,738,-281,134.4099521636963,134.41003131866455,134.41346859931946,134.42654585838318,134.5765872001648,134.5765872001648,134.5765872001648,134.5765872001648,134.5765872001648,134.5765872001648,134.5765872001648,138.06464529037476,1,3.623425245285034,None,,,,,,,,,,,,,,,,,,78,2,2025-02-21_13h23.27.897,comp,2024.2.4,None,2025-02-21 13h24.31.636854 -0500,
28,28,0,filler_square,None,None,None,None,None,None,None,None,None,None,2,0.8620197772979736,None,,,,,0,0,0,0,0,28,28,207,138.08331823349,,,,,,,,,,,,,,,,,,,,,,,,,,,,,,,,,,,,,,,,,,,,,,,,,,,,,,,,,,,,,,,,,,,,,,,,,,,,,,,,,189.93741448161498,189.93741448161498,178.83493203951195,188.7662053221663,68.77824210470264,114.20430224124425,2.2,2.21,-285,-274,0,271,247,258,138.06698536872864,138.06708669662476,138.07020163536072,138.08331823349,138.2272629737854,138.2272629737854,138.2272629737854,138.2272629737854,138.2272629737854,138.2272629737854,138.2272629737854,138.95977997779846,2,0.8620197772979736,None,,,,,,,,,,,,,,,,,,78,2,2025-02-21_13h23.27.897,comp,2024.2.4,None,2025-02-21 13h24.31.636854 -0500,
29,29,0,critical,wdh,35.0,1.0,lower,57.0,133.0,70.0,70.0,133.0,57.0,3,2.9094479084014893,None,,,,,0,0,0,0,0,29,29,72,138.9797866344452,,,,,,,,,,,,,,,,,,,,,,,,,,,,,,,,,,,,,,,,,,,,,,,,,,,,,,,,,,,,,,,,,,,,,,,,,,,,,,,,,57.0,133.0,70.0,70.0,133.0,57.0,1.0,1.2,-198,7,0,-16,160,-9,138.96128678321838,138.96136212348938,138.96470737457275,138.9797866344452,139.12728428840637,139.12728428840637,139.12728428840637,139.12728428840637,139.12728428840637,139.12728428840637,139.12728428840637,141.90258741378784,3,2.9094479084014893,None,,,,,,,,,,,,,,,,,,78,2,2025-02-21_13h23.27.897,comp,2024.2.4,None,2025-02-21 13h24.31.636854 -0500,
30,30,0,critical,hwd,35.0,3.0,upper,200.0,125.0,125.0,200.0,127.0,127.0,2,1.5398533344268799,None,,,,,0,0,0,0,0,30,30,99,141.9177224636078,,,,,,,,,,,,,,,,,,,,,,,,,,,,,,,,,,,,,,,,,,,,,,,,,,,,,,,,,,,,,,,,,,,,,,,,,,,,,,,,,200.0,125.0,125.0,200.0,127.0,127.0,3.0,3.2,-258,-255,0,7,260,259,141.90414547920227,141.90422344207764,141.90735745429993,141.9177224636078,142.05671334266663,142.05671334266663,142.05671334266663,142.05671334266663,142.05671334266663,142.05671334266663,142.05671334266663,143.46113562583923,2,1.5398533344268799,None,,,,,,,,,,,,,,,,,,78,2,2025-02-21_13h23.27.897,comp,2024.2.4,None,2025-02-21 13h24.31.636854 -0500,
31,31,0,catch,None,None,None,None,None,None,None,None,None,None,1,1.0033082962036133,None,,,,,0,0,0,0,0,31,31,124,143.4780466556549,,,,,,,,,,,,,,,,,,,,,,,,,,,,,,,,,,,,,,,,,,,,,,,,,,,,,,,,,,,,,,,,,,,,,,,,,,,,,,,,,189,136,129,61,68,122,1.0,1.1,-674,274,-480,288,-292,288,143.46316981315613,143.46324944496155,143.46660733222961,143.4780466556549,143.6249759197235,143.6249759197235,143.6249759197235,143.6249759197235,143.6249759197235,143.6249759197235,143.6249759197235,144.49599599838257,1,1.0033082962036133,None,,,,,,,,,,,,,,,,,,78,2,2025-02-21_13h23.27.897,comp,2024.2.4,None,2025-02-21 13h24.31.636854 -0500,
32,32,0,critical,wdh,20.0,4.0,lower,57.0,133.0,78.0,78.0,133.0,57.0,3,3.6280674934387207,None,,,,,0,0,0,0,0,32,32,82,144.51213121414185,,,,,,,,,,,,,,,,,,,,,,,,,,,,,,,,,,,,,,,,,,,,,,,,,,,,,,,,,,,,,,,,,,,,,,,,,,,,,,,,,57.0,133.0,78.0,78.0,133.0,57.0,4.0,4.1,-202,-284,0,16,164,-251,144.49753975868225,144.4976146221161,144.50182151794434,144.51213121414185,144.66246461868286,144.66246461868286,144.66246461868286,144.66246461868286,144.66246461868286,144.66246461868286,144.66246461868286,148.14565467834473,3,3.6280674934387207,None,,,,,,,,,,,,,,,,,,78,2,2025-02-21_13h23.27.897,comp,2024.2.4,None,2025-02-21 13h24.31.636854 -0500,
33,33,0,critical,wdh,20.0,4.0,upper,125.0,200.0,141.0,141.0,200.0,125.0,1,4.096100330352783,None,,,,,0,0,0,0,0,33,33,83,148.16221451759338,,,,,,,,,,,,,,,,,,,,,,,,,,,,,,,,,,,,,,,,,,,,,,,,,,,,,,,,,,,,,,,,,,,,,,,,,,,,,,,,,125.0,200.0,141.0,141.0,200.0,125.0,4.0,4.2,-266,-10,0,-257,229,-3,148.14713191986084,148.1472089290619,148.15058779716492,148.16221451759338,148.3135211467743,148.3135211467743,148.3135211467743,148.3135211467743,148.3135211467743,148.3135211467743,148.3135211467743,152.26283431053162,1,4.096100330352783,None,,,,,,,,,,,,,,,,,,78,2,2025-02-21_13h23.27.897,comp,2024.2.4,None,2025-02-21 13h24.31.636854 -0500,
34,34,0,critical,dhw,35.0,3.0,upper,127.0,127.0,200.0,125.0,125.0,200.0,3,2.4097115993499756,None,,,,,0,0,0,0,0,34,34,51,152.27952599525452,,,,,,,,,,,,,,,,,,,,,,,,,,,,,,,,,,,,,,,,,,,,,,,,,,,,,,,,,,,,,,,,,,,,,,,,,,,,,,,,,127.0,127.0,200.0,125.0,125.0,200.0,3.0,3.1,-222,282,0,11,258,-274,152.26445817947388,152.26453757286072,152.26781010627747,152.27952599525452,152.43236374855042,152.43236374855042,152.43236374855042,152.43236374855042,152.43236374855042,152.43236374855042,152.43236374855042,154.69975686073303,3,2.4097115993499756,None,,,,,,,,,,,,,,,,,,78,2,2025-02-21_13h23.27.897,comp,2024.2.4,None,2025-02-21 13h24.31.636854 -0500,
35,35,0,critical,hdw,35.0,4.0,lower,133.0,57.0,70.0,70.0,57.0,133.0,1,3.573420524597168,None,,,,,0,0,0,0,0,35,35,112,154.71586775779724,,,,,,,,,,,,,,,,,,,,,,,,,,,,,,,,,,,,,,,,,,,,,,,,,,,,,,,,,,,,,,,,,,,,,,,,,,,,,,,,,133.0,57.0,70.0,70.0,57.0,133.0,4.0,4.2,-160,4,0,-285,198,5,154.70140314102173,154.70148468017578,154.70510840415955,154.71586775779724,154.8664140701294,154.8664140701294,154.8664140701294,154.8664140701294,154.8664140701294,154.8664140701294,154.8664140701294,158.2987084388733,1,3.573420524597168,None,,,,,,,,,,,,,,,,,,78,2,2025-02-21_13h23.27.897,comp,2024.2.4,None,2025-02-21 13h24.31.636854 -0500,
36,36,0,critical,dhw,35.0,3.0,lower,70.0,70.0,133.0,57.0,57.0,133.0,3,1.9574551582336426,None,,,,,0,0,0,0,0,36,36,50,158.3157980442047,,,,,,,,,,,,,,,,,,,,,,,,,,,,,,,,,,,,,,,,,,,,,,,,,,,,,,,,,,,,,,,,,,,,,,,,,,,,,,,,,70.0,70.0,133.0,57.0,57.0,133.0,3.0,3.1,-160,282,0,-14,191,-261,158.3002758026123,158.30035495758057,158.30374550819397,158.3157980442047,158.47302985191345,158.47302985191345,158.47302985191345,158.47302985191345,158.47302985191345,158.47302985191345,158.47302985191345,160.28359723091125,3,1.9574551582336426,None,,,,,,,,,,,,,,,,,,78,2,2025-02-21_13h23.27.897,comp,2024.2.4,None,2025-02-21 13h24.31.636854 -0500,
37,37,0,filler_random,None,None,None,None,None,None,None,None,None,None,2,1.6691968441009521,None,,,,,0,0,0,0,0,37,37,169,160.30127549171448,,,,,,,,,,,,,,,,,,,,,,,,,,,,,,,,,,,,,,,,,,,,,,,,,,,,,,,,,,,,,,,,,,,,,,,,,,,,,,,,,196.33696415714994,128.21095894025518,152.22848776038865,158.56437482806425,115.34286135312202,155.27242375293218,2.2,2.21,-239,-251,0,265,253,256,160.28565573692322,160.2857367992401,160.2897186279297,160.30127549171448,160.45077848434448,160.45077848434448,160.45077848434448,160.45077848434448,160.45077848434448,160.45077848434448,160.45077848434448,161.97657799720764,2,1.6691968441009521,None,,,,,,,,,,,,,,,,,,78,2,2025-02-21_13h23.27.897,comp,2024.2.4,None,2025-02-21 13h24.31.636854 -0500,
38,38,0,critical,dhw,35.0,2.1,lower,70.0,70.0,133.0,57.0,57.0,133.0,2,3.1292507648468018,None,,,,,0,0,0,0,0,38,38,0,161.9919672012329,,,,,,,,,,,,,,,,,,,,,,,,,,,,,,,,,,,,,,,,,,,,,,,,,,,,,,,,,,,,,,,,,,,,,,,,,,,,,,,,,70.0,70.0,133.0,57.0,57.0,133.0,2.1,2.12,-160,-284,0,-280,191,269,161.97808504104614,161.97816491127014,161.9812376499176,161.9919672012329,162.1359977722168,162.1359977722168,162.1359977722168,162.1359977722168,162.1359977722168,162.1359977722168,162.1359977722168,165.13500881195068,2,3.1292507648468018,None,,,,,,,,,,,,,,,,,,78,2,2025-02-21_13h23.27.897,comp,2024.2.4,None,2025-02-21 13h24.31.636854 -0500,
39,39,0,filler_square,None,None,None,None,None,None,None,None,None,None,1,1.6699042320251465,None,,,,,0,0,0,0,0,39,39,173,165.1556363105774,,,,,,,,,,,,,,,,,,,,,,,,,,,,,,,,,,,,,,,,,,,,,,,,,,,,,,,,,,,,,,,,,,,,,,,,,,,,,,,,,154.3573772744977,154.3573772744977,112.72043577289827,65.14531549569494,78.97591654792468,149.99471843220147,2.1,2.12,-206,-267,0,-280,204,272,165.13687825202942,165.13695788383484,165.14035439491272,165.1556363105774,165.30152082443237,165.30152082443237,165.30152082443237,165.30152082443237,165.30152082443237,165.30152082443237,165.30152082443237,166.83664107322693,1,1.6699042320251465,None,,,,,,,,,,,,,,,,,,78,2,2025-02-21_13h23.27.897,comp,2024.2.4,None,2025-02-21 13h24.31.636854 -0500,
40,40,0,critical,dwh,20.0,2.1,upper,141.0,141.0,125.0,200.0,200.0,125.0,3,4.033733129501343,None,,,,,0,0,0,0,0,40,40,7,166.8555498123169,,,,,,,,,,,,,,,,,,,,,,,,,,,,,,,,,,,,,,,,,,,,,,,,,,,,,,,,,,,,,,,,,,,,,,,,,,,,,,,,,141.0,141.0,125.0,200.0,200.0,125.0,2.1,2.11,-266,272,0,287,258,-277,166.83779549598694,166.83783411979675,166.8403606414795,166.8555498123169,167.00220370292664,167.00220370292664,167.00220370292664,167.00220370292664,167.00220370292664,167.00220370292664,167.00220370292664,170.9037365913391,3,4.033733129501343,None,,,,,,,,,,,,,,,,,,78,2,2025-02-21_13h23.27.897,comp,2024.2.4,None,2025-02-21 13h24.31.636854 -0500,
41,41,0,critical,whd,35.0,2.1,lower,57.0,133.0,133.0,57.0,70.0,70.0,1,8.866498947143555,None,,,,,0,0,0,0,0,41,41,36,170.91934609413147,,,,,,,,,,,,,,,,,,,,,,,,,,,,,,,,,,,,,,,,,,,,,,,,,,,,,,,,,,,,,,,,,,,,,,,,,,,,,,,,,57.0,133.0,133.0,57.0,70.0,70.0,2.1,2.12,-191,-260,0,-268,160,266,170.90531420707703,170.90539860725403,170.90897130966187,170.91934609413147,171.0740258693695,171.0740258693695,171.0740258693695,171.0740258693695,171.0740258693695,171.0740258693695,171.0740258693695,179.7927417755127,1,8.866498947143555,None,,,,,,,,,,,,,,,,,,78,2,2025-02-21_13h23.27.897,comp,2024.2.4,None,2025-02-21 13h24.31.636854 -0500,
42,42,0,catch,None,None,None,None,None,None,None,None,None,None,1,1.3275189399719238,None,,,,,0,0,0,0,0,42,42,127,179.8097608089447,,,,,,,,,,,,,,,,,,,,,,,,,,,,,,,,,,,,,,,,,,,,,,,,,,,,,,,,,,,,,,,,,,,,,,,,,,,,,,,,,135,190,105,85,67,123,2.1,2.11,-234,279,0,258,200,-287,179.79490089416504,179.79498100280762,179.79901599884033,179.8097608089447,179.95837807655334,179.95837807655334,179.95837807655334,179.95837807655334,179.95837807655334,179.95837807655334,179.95837807655334,181.14079880714417,1,1.3275189399719238,None,,,,,,,,,,,,,,,,,,78,2,2025-02-21_13h23.27.897,comp,2024.2.4,None,2025-02-21 13h24.31.636854 -0500,
43,43,0,filler_random,None,None,None,None,None,None,None,None,None,None,2,1.174898624420166,None,,,,,0,0,0,0,0,43,43,134,181.15687441825867,,,,,,,,,,,,,,,,,,,,,,,,,,,,,,,,,,,,,,,,,,,,,,,,,,,,,,,,,,,,,,,,,,,,,,,,,,,,,,,,,190.38664801609906,113.88030412253369,144.90319199463437,194.28130819798022,146.73100443381708,103.63444404972381,2.2,2.22,-250,273,0,-255,245,-261,181.14257144927979,181.14265155792236,181.14627647399902,181.15687441825867,181.310240983963,181.310240983963,181.310240983963,181.310240983963,181.310240983963,181.310240983963,181.310240983963,182.34217405319214,2,1.174898624420166,None,,,,,,,,,,,,,,,,,,78,2,2025-02-21_13h23.27.897,comp,2024.2.4,None,2025-02-21 13h24.31.636854 -0500,
44,44,0,critical,hwd,20.0,4.0,upper,200.0,125.0,125.0,200.0,141.0,141.0,2,4.077046871185303,None,,,,,0,0,0,0,0,44,44,107,182.35848832130432,,,,,,,,,,,,,,,,,,,,,,,,,,,,,,,,,,,,,,,,,,,,,,,,,,,,,,,,,,,,,,,,,,,,,,,,,,,,,,,,,200.0,125.0,125.0,200.0,141.0,141.0,4.0,4.1,-258,-273,0,-7,266,-255,182.34370827674866,182.34378719329834,182.34748482704163,182.35848832130432,182.50818276405334,182.50818276405334,182.50818276405334,182.50818276405334,182.50818276405334,182.50818276405334,182.50818276405334,186.44055485725403,2,4.077046871185303,None,,,,,,,,,,,,,,,,,,78,2,2025-02-21_13h23.27.897,comp,2024.2.4,None,2025-02-21 13h24.31.636854 -0500,
45,45,0,filler_square,None,None,None,None,None,None,None,None,None,None,2,3.3681302070617676,None,,,,,0,0,0,0,0,45,45,190,186.4574682712555,,,,,,,,,,,,,,,,,,,,,,,,,,,,,,,,,,,,,,,,,,,,,,,,,,,,,,,,,,,,,,,,,,,,,,,,,,,,,,,,,59.83642997523822,60.34258859316488,67.09136709624592,67.09136709624592,57.713995185084336,60.3509363682876,1.0,1.2,-160,-3,0,13,160,6,186.4423451423645,186.4424228668213,186.44575428962708,186.4574682712555,186.5913290977478,186.5913290977478,186.5913290977478,186.5913290977478,186.5913290977478,186.5913290977478,186.5913290977478,189.8428237438202,2,3.3681302070617676,None,,,,,,,,,,,,,,,,,,78,2,2025-02-21_13h23.27.897,comp,2024.2.4,None,2025-02-21 13h24.31.636854 -0500,
46,46,0,filler_square,None,None,None,None,None,None,None,None,None,None,1,1.6545445919036865,None,,,,,0,0,0,0,0,46,46,182,189.85903406143188,,,,,,,,,,,,,,,,,,,,,,,,,,,,,,,,,,,,,,,,,,,,,,,,,,,,,,,,,,,,,,,,,,,,,,,,,,,,,,,,,106.84722968962544,106.84722968962544,58.12434425390286,101.47277050706751,68.450330754796,80.68685097733226,1.0,1.1,-680,267,-480,267,-293,278,189.84486770629883,189.84494495391846,189.8487355709076,189.85903406143188,190.0080382823944,190.0080382823944,190.0080382823944,190.0080382823944,190.0080382823944,190.0080382823944,190.0080382823944,191.52696228027344,1,1.6545445919036865,None,,,,,,,,,,,,,,,,,,78,2,2025-02-21_13h23.27.897,comp,2024.2.4,None,2025-02-21 13h24.31.636854 -0500,
47,47,0,filler_random,None,None,None,None,None,None,None,None,None,None,2,1.5867955684661865,None,,,,,0,0,0,0,0,47,47,136,191.54253244400024,,,,,,,,,,,,,,,,,,,,,,,,,,,,,,,,,,,,,,,,,,,,,,,,,,,,,,,,,,,,,,,,,,,,,,,,,,,,,,,,,76.56124602150501,119.34482195241539,98.54774347044008,174.16049257841308,75.57533499014355,193.5683525485757,4.0,4.2,-243,10,0,-283,280,-7,191.52868723869324,191.52876377105713,191.53227734565735,191.54253244400024,191.69092655181885,191.69092655181885,191.69092655181885,191.69092655181885,191.69092655181885,191.69092655181885,191.69092655181885,193.14351058006287,2,1.5867955684661865,None,,,,,,,,,,,,,,,,,,78,2,2025-02-21_13h23.27.897,comp,2024.2.4,None,2025-02-21 13h24.31.636854 -0500,
48,48,0,critical,whd,20.0,4.0,upper,125.0,200.0,200.0,125.0,141.0,141.0,1,1.6219654083251953,None,,,,,0,0,0,0,0,48,48,95,193.1633279323578,,,,,,,,,,,,,,,,,,,,,,,,,,,,,,,,,,,,,,,,,,,,,,,,,,,,,,,,,,,,,,,,,,,,,,,,,,,,,,,,,125.0,200.0,200.0,125.0,141.0,141.0,4.0,4.2,-258,18,0,-279,229,15,193.1449670791626,193.14504075050354,193.14816904067993,193.1633279323578,193.31110191345215,193.31110191345215,193.31110191345215,193.31110191345215,193.31110191345215,193.31110191345215,193.31110191345215,194.80179166793823,1,1.6219654083251953,None,,,,,,,,,,,,,,,,,,78,2,2025-02-21_13h23.27.897,comp,2024.2.4,None,2025-02-21 13h24.31.636854 -0500,
49,49,0,critical,whd,35.0,2.1,lower,57.0,133.0,133.0,57.0,70.0,70.0,2,2.6631600856781006,None,,,,,0,0,0,0,0,49,49,12,194.8182647228241,,,,,,,,,,,,,,,,,,,,,,,,,,,,,,,,,,,,,,,,,,,,,,,,,,,,,,,,,,,,,,,,,,,,,,,,,,,,,,,,,57.0,133.0,133.0,57.0,70.0,70.0,2.1,2.12,-191,-282,0,-280,160,282,194.8034164905548,194.80349206924438,194.80697512626648,194.8182647228241,194.961092710495,194.961092710495,194.961092710495,194.961092710495,194.961092710495,194.961092710495,194.961092710495,197.49622750282288,2,2.6631600856781006,None,,,,,,,,,,,,,,,,,,78,2,2025-02-21_13h23.27.897,comp,2024.2.4,None,2025-02-21 13h24.31.636854 -0500,
50,50,0,critical,whd,35.0,3.0,lower,57.0,133.0,133.0,57.0,70.0,70.0,2,9.21779751777649,None,,,,,0,0,0,0,0,50,50,86,197.5117380619049,,,,,,,,,,,,,,,,,,,,,,,,,,,,,,,,,,,,,,,,,,,,,,,,,,,,,,,,,,,,,,,,,,,,,,,,,,,,,,,,,57.0,133.0,133.0,57.0,70.0,70.0,3.0,3.1,-191,287,0,-10,160,-250,197.4977250099182,197.49780082702637,197.5014009475708,197.5117380619049,197.66067576408386,197.66067576408386,197.66067576408386,197.66067576408386,197.66067576408386,197.66067576408386,197.66067576408386,206.7478232383728,2,9.21779751777649,None,,,,,,,,,,,,,,,,,,78,2,2025-02-21_13h23.27.897,comp,2024.2.4,None,2025-02-21 13h24.31.636854 -0500,
51,51,0,catch,None,None,None,None,None,None,None,None,None,None,3,2.557060718536377,None,,,,,0,0,0,0,0,51,51,122,206.76432585716248,,,,,,,,,,,,,,,,,,,,,,,,,,,,,,,,,,,,,,,,,,,,,,,,,,,,,,,,,,,,,,,,,,,,,,,,,,,,,,,,,116,74,84,106,152,173,2.1,2.12,-186,-261,0,-263,236,265,206.74973821640015,206.7498161792755,206.7532160282135,206.76432585716248,206.91527152061462,206.91527152061462,206.91527152061462,206.91527152061462,206.91527152061462,206.91527152061462,206.91527152061462,209.3265335559845,3,2.557060718536377,None,,,,,,,,,,,,,,,,,,78,2,2025-02-21_13h23.27.897,comp,2024.2.4,None,2025-02-21 13h24.31.636854 -0500,
52,52,0,critical,hdw,35.0,4.0,upper,200.0,125.0,127.0,127.0,125.0,200.0,3,4.989767551422119,None,,,,,0,0,0,0,0,52,52,113,209.34762811660767,,,,,,,,,,,,,,,,,,,,,,,,,,,,,,,,,,,,,,,,,,,,,,,,,,,,,,,,,,,,,,,,,,,,,,,,,,,,,,,,,200.0,125.0,127.0,127.0,125.0,200.0,4.0,4.1,-222,-284,0,13,260,-267,209.3281421661377,209.3282630443573,209.33180141448975,209.34762811660767,209.4835648536682,209.4835648536682,209.4835648536682,209.4835648536682,209.4835648536682,209.4835648536682,209.4835648536682,214.35090470314026,3,4.989767551422119,None,,,,,,,,,,,,,,,,,,78,2,2025-02-21_13h23.27.897,comp,2024.2.4,None,2025-02-21 13h24.31.636854 -0500,
53,53,0,critical,dhw,20.0,4.0,lower,78.0,78.0,133.0,57.0,57.0,133.0,2,3.369476079940796,None,,,,,0,0,0,0,0,53,53,58,214.37667655944824,,,,,,,,,,,,,,,,,,,,,,,,,,,,,,,,,,,,,,,,,,,,,,,,,,,,,,,,,,,,,,,,,,,,,,,,,,,,,,,,,78.0,78.0,133.0,57.0,57.0,133.0,4.0,4.2,-164,-3,0,-263,191,-3,214.35247111320496,214.3525471687317,214.35570096969604,214.37667655944824,214.5182638168335,214.5182638168335,214.5182638168335,214.5182638168335,214.5182638168335,214.5182638168335,214.5182638168335,217.75418043136597,2,3.369476079940796,None,,,,,,,,,,,,,,,,,,78,2,2025-02-21_13h23.27.897,comp,2024.2.4,None,2025-02-21 13h24.31.636854 -0500,
54,54,0,filler_square,None,None,None,None,None,None,None,None,None,None,2,2.7614057064056396,None,,,,,0,0,0,0,0,54,54,185,217.7758915424347,,,,,,,,,,,,,,,,,,,,,,,,,,,,,,,,,,,,,,,,,,,,,,,,,,,,,,,,,,,,,,,,,,,,,,,,,,,,,,,,,88.47646860796125,93.36260849622758,101.21939493439956,101.21939493439956,80.77939884123185,99.30013128813407,2.1,2.12,-193,-263,0,-270,196,256,217.7562427520752,217.7563750743866,217.7602038383484,217.7758915424347,217.91871881484985,217.91871881484985,217.91871881484985,217.91871881484985,217.91871881484985,217.91871881484985,217.91871881484985,220.54722714424133,2,2.7614057064056396,None,,,,,,,,,,,,,,,,,,78,2,2025-02-21_13h23.27.897,comp,2024.2.4,None,2025-02-21 13h24.31.636854 -0500,
55,55,0,critical,hdw,35.0,2.1,lower,133.0,57.0,70.0,70.0,57.0,133.0,3,2.6707260608673096,None,,,,,0,0,0,0,0,55,55,20,220.56370520591736,,,,,,,,,,,,,,,,,,,,,,,,,,,,,,,,,,,,,,,,,,,,,,,,,,,,,,,,,,,,,,,,,,,,,,,,,,,,,,,,,133.0,57.0,70.0,70.0,57.0,133.0,2.1,2.12,-160,-266,0,-280,198,273,220.54876613616943,220.54884672164917,220.55197405815125,220.56370520591736,220.70195817947388,220.70195817947388,220.70195817947388,220.70195817947388,220.70195817947388,220.70195817947388,220.70195817947388,223.24112272262573,3,2.6707260608673096,None,,,,,,,,,,,,,,,,,,78,2,2025-02-21_13h23.27.897,comp,2024.2.4,None,2025-02-21 13h24.31.636854 -0500,
56,56,0,critical,dhw,35.0,4.0,upper,127.0,127.0,200.0,125.0,125.0,200.0,3,4.256806135177612,None,,,,,0,0,0,0,0,56,56,53,223.25729942321777,,,,,,,,,,,,,,,,,,,,,,,,,,,,,,,,,,,,,,,,,,,,,,,,,,,,,,,,,,,,,,,,,,,,,,,,,,,,,,,,,127.0,127.0,200.0,125.0,125.0,200.0,4.0,4.1,-222,-262,0,-13,258,-265,223.2427248954773,223.24280285835266,223.24646401405334,223.25729942321777,223.4091238975525,223.4091238975525,223.4091238975525,223.4091238975525,223.4091238975525,223.4091238975525,223.4091238975525,227.52180194854736,3,4.256806135177612,None,,,,,,,,,,,,,,,,,,78,2,2025-02-21_13h23.27.897,comp,2024.2.4,None,2025-02-21 13h24.31.636854 -0500,
57,57,0,catch,None,None,None,None,None,None,None,None,None,None,2,1.525414228439331,None,,,,,0,0,0,0,0,57,57,123,227.54052233695984,,,,,,,,,,,,,,,,,,,,,,,,,,,,,,,,,,,,,,,,,,,,,,,,,,,,,,,,,,,,,,,,,,,,,,,,,,,,,,,,,103,87,131,194,66,124,3.0,3.1,-236,267,0,-10,255,-282,227.5236794948578,227.52376103401184,227.52729988098145,227.54052233695984,227.68954300880432,227.68954300880432,227.68954300880432,227.68954300880432,227.68954300880432,227.68954300880432,227.68954300880432,229.07243180274963,2,1.525414228439331,None,,,,,,,,,,,,,,,,,,78,2,2025-02-21_13h23.27.897,comp,2024.2.4,None,2025-02-21 13h24.31.636854 -0500,
58,58,0,filler_random,None,None,None,None,None,None,None,None,None,None,3,2.2234995365142822,None,,,,,0,0,0,0,0,58,58,158,229.0907163619995,,,,,,,,,,,,,,,,,,,,,,,,,,,,,,,,,,,,,,,,,,,,,,,,,,,,,,,,,,,,,,,,,,,,,,,,,,,,,,,,,127.97572333437844,90.71390229109747,133.47107001251504,72.33634511792836,111.25026576829259,174.27509398231783,1.0,1.3,302,-270,480,-290,699,-277,229.07441806793213,229.07450342178345,229.07868766784668,229.0907163619995,229.24577140808105,229.24577140808105,229.24577140808105,229.24577140808105,229.24577140808105,229.24577140808105,229.24577140808105,231.32305645942688,3,2.2234995365142822,None,,,,,,,,,,,,,,,,,,78,2,2025-02-21_13h23.27.897,comp,2024.2.4,None,2025-02-21 13h24.31.636854 -0500,
59,59,0,filler_random,None,None,None,None,None,None,None,None,None,None,2,1.726546287536621,None,,,,,0,0,0,0,0,59,59,148,231.33956813812256,,,,,,,,,,,,,,,,,,,,,,,,,,,,,,,,,,,,,,,,,,,,,,,,,,,,,,,,,,,,,,,,,,,,,,,,,,,,,,,,,127.67240735195209,115.92775502213121,161.10948962572377,140.7309176348204,124.73654165807032,150.64203184685118,2.2,2.21,-224,-265,0,262,242,257,231.32488584518433,231.32496786117554,231.32868480682373,231.33956813812256,231.48886466026306,231.48886466026306,231.48886466026306,231.48886466026306,231.48886466026306,231.48886466026306,231.48886466026306,233.0734348297119,2,1.726546287536621,None,,,,,,,,,,,,,,,,,,78,2,2025-02-21_13h23.27.897,comp,2024.2.4,None,2025-02-21 13h24.31.636854 -0500,
60,60,0,critical,whd,20.0,1.0,upper,125.0,200.0,200.0,125.0,141.0,141.0,3,5.839960336685181,None,,,,,0,0,0,0,0,60,60,91,233.08942770957947,,,,,,,,,,,,,,,,,,,,,,,,,,,,,,,,,,,,,,,,,,,,,,,,,,,,,,,,,,,,,,,,,,,,,,,,,,,,,,,,,125.0,200.0,200.0,125.0,141.0,141.0,1.0,1.2,-258,4,0,12,229,17,233.07497811317444,233.07508039474487,233.07865262031555,233.08942770957947,233.2381727695465,233.2381727695465,233.2381727695465,233.2381727695465,233.2381727695465,233.2381727695465,233.2381727695465,238.94562554359436,3,5.839960336685181,None,,,,,,,,,,,,,,,,,,78,2,2025-02-21_13h23.27.897,comp,2024.2.4,None,2025-02-21 13h24.31.636854 -0500,
61,61,0,filler_random,None,None,None,None,None,None,None,None,None,None,1,3.1712191104888916,None,,,,,0,0,0,0,0,61,61,152,238.96612644195557,,,,,,,,,,,,,,,,,,,,,,,,,,,,,,,,,,,,,,,,,,,,,,,,,,,,,,,,,,,,,,,,,,,,,,,,,,,,,,,,,196.18651042416636,99.1072592894986,176.98079599109496,109.98067622458832,128.93367475101454,193.19911564990664,2.1,2.11,-201,255,0,257,248,-288,238.94755268096924,238.9476354122162,238.95080184936523,238.96612644195557,239.1097056865692,239.1097056865692,239.1097056865692,239.1097056865692,239.1097056865692,239.1097056865692,239.1097056865692,242.14750933647156,1,3.1712191104888916,None,,,,,,,,,,,,,,,,,,78,2,2025-02-21_13h23.27.897,comp,2024.2.4,None,2025-02-21 13h24.31.636854 -0500,
62,62,0,critical,wdh,20.0,1.0,upper,125.0,200.0,141.0,141.0,200.0,125.0,1,5.940218210220337,None,,,,,0,0,0,0,0,62,62,79,242.16547274589539,,,,,,,,,,,,,,,,,,,,,,,,,,,,,,,,,,,,,,,,,,,,,,,,,,,,,,,,,,,,,,,,,,,,,,,,,,,,,,,,,125.0,200.0,141.0,141.0,200.0,125.0,1.0,1.3,214,-277,480,-258,709,-257,242.14951610565186,242.1495976448059,242.15280652046204,242.16547274589539,242.31360912322998,242.31360912322998,242.31360912322998,242.31360912322998,242.31360912322998,242.31360912322998,242.31360912322998,248.1126003265381,1,5.940218210220337,None,,,,,,,,,,,,,,,,,,78,2,2025-02-21_13h23.27.897,comp,2024.2.4,None,2025-02-21 13h24.31.636854 -0500,
63,63,0,critical,dwh,20.0,1.0,upper,141.0,141.0,125.0,200.0,200.0,125.0,2,2.0273351669311523,None,,,,,0,0,0,0,0,63,63,67,248.13401913642883,,,,,,,,,,,,,,,,,,,,,,,,,,,,,,,,,,,,,,,,,,,,,,,,,,,,,,,,,,,,,,,,,,,,,,,,,,,,,,,,,141.0,141.0,125.0,200.0,200.0,125.0,1.0,1.2,-266,8,0,-14,258,12,248.11414456367493,248.11422967910767,248.11823177337646,248.13401913642883,248.2832226753235,248.2832226753235,248.2832226753235,248.2832226753235,248.2832226753235,248.2832226753235,248.2832226753235,250.1748559474945,2,2.0273351669311523,None,,,,,,,,,,,,,,,,,,78,2,2025-02-21_13h23.27.897,comp,2024.2.4,None,2025-02-21 13h24.31.636854 -0500,
64,64,0,filler_square,None,None,None,None,None,None,None,None,None,None,3,1.699918270111084,None,,,,,0,0,0,0,0,64,64,188,250.19022369384766,,,,,,,,,,,,,,,,,,,,,,,,,,,,,,,,,,,,,,,,,,,,,,,,,,,,,,,,,,,,,,,,,,,,,,,,,,,,,,,,,76.40917285733659,67.74534507602833,76.01500427670801,83.96277659141978,93.49978901785965,93.49978901785965,2.1,2.11,-172,287,0,252,185,-267,250.17667412757874,250.17675018310547,250.17988348007202,250.19022369384766,250.32849979400635,250.32849979400635,250.32849979400635,250.32849979400635,250.32849979400635,250.32849979400635,250.32849979400635,251.8944149017334,3,1.699918270111084,None,,,,,,,,,,,,,,,,,,78,2,2025-02-21_13h23.27.897,comp,2024.2.4,None,2025-02-21 13h24.31.636854 -0500,
65,65,0,critical,hwd,35.0,2.1,lower,133.0,57.0,57.0,133.0,70.0,70.0,2,3.291422128677368,None,,,,,0,0,0,0,0,65,65,16,251.91090059280396,,,,,,,,,,,,,,,,,,,,,,,,,,,,,,,,,,,,,,,,,,,,,,,,,,,,,,,,,,,,,,,,,,,,,,,,,,,,,,,,,133.0,57.0,57.0,133.0,70.0,70.0,2.1,2.12,-191,-284,0,-285,198,277,251.89585375785828,251.89593076705933,251.89917540550232,251.91090059280396,252.05077266693115,252.05077266693115,252.05077266693115,252.05077266693115,252.05077266693115,252.05077266693115,252.05077266693115,255.21426725387573,2,3.291422128677368,None,,,,,,,,,,,,,,,,,,78,2,2025-02-21_13h23.27.897,comp,2024.2.4,None,2025-02-21 13h24.31.636854 -0500,
66,66,0,critical,whd,35.0,2.1,upper,125.0,200.0,200.0,125.0,127.0,127.0,2,4.018772840499878,None,,,,,0,0,0,0,0,66,66,13,255.23062562942505,,,,,,,,,,,,,,,,,,,,,,,,,,,,,,,,,,,,,,,,,,,,,,,,,,,,,,,,,,,,,,,,,,,,,,,,,,,,,,,,,125.0,200.0,200.0,125.0,127.0,127.0,2.1,2.12,-258,-281,0,-285,222,272,255.21579217910767,255.21586966514587,255.2203197479248,255.23062562942505,255.38051867485046,255.38051867485046,255.38051867485046,255.38051867485046,255.38051867485046,255.38051867485046,255.38051867485046,259.2515573501587,2,4.018772840499878,None,,,,,,,,,,,,,,,,,,78,2,2025-02-21_13h23.27.897,comp,2024.2.4,None,2025-02-21 13h24.31.636854 -0500,
67,67,0,critical,dwh,35.0,2.1,upper,127.0,127.0,125.0,200.0,200.0,125.0,2,3.664965867996216,None,,,,,0,0,0,0,0,67,67,5,259.272500038147,,,,,,,,,,,,,,,,,,,,,,,,,,,,,,,,,,,,,,,,,,,,,,,,,,,,,,,,,,,,,,,,,,,,,,,,,,,,,,,,,127.0,127.0,125.0,200.0,200.0,125.0,2.1,2.11,-260,264,0,271,258,-262,259.2532856464386,259.25338888168335,259.2567129135132,259.272500038147,259.4152693748474,259.4152693748474,259.4152693748474,259.4152693748474,259.4152693748474,259.4152693748474,259.4152693748474,262.9501338005066,2,3.664965867996216,None,,,,,,,,,,,,,,,,,,78,2,2025-02-21_13h23.27.897,comp,2024.2.4,None,2025-02-21 13h24.31.636854 -0500,
68,68,0,filler_square,None,None,None,None,None,None,None,None,None,None,3,1.4097459316253662,None,,,,,0,0,0,0,0,68,68,198,262.96832728385925,,,,,,,,,,,,,,,,,,,,,,,,,,,,,,,,,,,,,,,,,,,,,,,,,,,,,,,,,,,,,,,,,,,,,,,,,,,,,,,,,121.50856710257719,122.38758995173016,122.58021879664017,131.6846238456548,192.0302420033139,192.0302420033139,2.1,2.12,-223,-260,0,-252,258,284,262.9518976211548,262.95197677612305,262.95534658432007,262.96832728385925,263.11614418029785,263.11614418029785,263.11614418029785,263.11614418029785,263.11614418029785,263.11614418029785,263.11614418029785,264.3842077255249,3,1.4097459316253662,None,,,,,,,,,,,,,,,,,,78,2,2025-02-21_13h23.27.897,comp,2024.2.4,None,2025-02-21 13h24.31.636854 -0500,
69,69,0,critical,wdh,35.0,2.1,upper,125.0,200.0,127.0,127.0,200.0,125.0,1,3.680697202682495,None,,,,,0,0,0,0,0,69,69,33,264.4007999897003,,,,,,,,,,,,,,,,,,,,,,,,,,,,,,,,,,,,,,,,,,,,,,,,,,,,,,,,,,,,,,,,,,,,,,,,,,,,,,,,,125.0,200.0,127.0,127.0,200.0,125.0,2.1,2.11,-260,261,0,283,222,-288,264.38590931892395,264.38605260849,264.39000844955444,264.4007999897003,264.5494873523712,264.5494873523712,264.5494873523712,264.5494873523712,264.5494873523712,264.5494873523712,264.5494873523712,268.10052704811096,1,3.680697202682495,None,,,,,,,,,,,,,,,,,,78,2,2025-02-21_13h23.27.897,comp,2024.2.4,None,2025-02-21 13h24.31.636854 -0500,
70,70,0,critical,dwh,20.0,4.0,lower,78.0,78.0,57.0,133.0,133.0,57.0,3,4.323730707168579,None,,,,,0,0,0,0,0,70,70,70,268.11858105659485,,,,,,,,,,,,,,,,,,,,,,,,,,,,,,,,,,,,,,,,,,,,,,,,,,,,,,,,,,,,,,,,,,,,,,,,,,,,,,,,,78.0,78.0,57.0,133.0,133.0,57.0,4.0,4.1,-202,-254,0,-14,191,-267,268.10218691825867,268.10230708122253,268.1058588027954,268.11858105659485,268.2678864002228,268.2678864002228,268.2678864002228,268.2678864002228,268.2678864002228,268.2678864002228,268.2678864002228,272.4533522129059,3,4.323730707168579,None,,,,,,,,,,,,,,,,,,78,2,2025-02-21_13h23.27.897,comp,2024.2.4,None,2025-02-21 13h24.31.636854 -0500,
71,71,0,critical,wdh,35.0,2.1,upper,125.0,200.0,127.0,127.0,200.0,125.0,2,2.163519859313965,None,,,,,0,0,0,0,0,71,71,9,272.470139503479,,,,,,,,,,,,,,,,,,,,,,,,,,,,,,,,,,,,,,,,,,,,,,,,,,,,,,,,,,,,,,,,,,,,,,,,,,,,,,,,,125.0,200.0,127.0,127.0,200.0,125.0,2.1,2.12,-260,-281,0,-277,222,288,272.4549367427826,272.45501947402954,272.4592504501343,272.470139503479,272.6204571723938,272.6204571723938,272.6204571723938,272.6204571723938,272.6204571723938,272.6204571723938,272.6204571723938,274.6401844024658,2,2.163519859313965,None,,,,,,,,,,,,,,,,,,78,2,2025-02-21_13h23.27.897,comp,2024.2.4,None,2025-02-21 13h24.31.636854 -0500,
72,72,0,filler_square,None,None,None,None,None,None,None,None,None,None,1,3.1432671546936035,None,,,,,0,0,0,0,0,72,72,192,274.65880370140076,,,,,,,,,,,,,,,,,,,,,,,,,,,,,,,,,,,,,,,,,,,,,,,,,,,,,,,,,,,,,,,,,,,,,,,,,,,,,,,,,144.49285217543968,144.49285217543968,87.58200954839313,66.7895621315211,79.76426060247903,102.67836526086485,4.0,4.1,-202,-285,0,18,181,-256,274.64221692085266,274.6422963142395,274.6457324028015,274.65880370140076,274.80486941337585,274.80486941337585,274.80486941337585,274.80486941337585,274.80486941337585,274.80486941337585,274.80486941337585,277.8041739463806,1,3.1432671546936035,None,,,,,,,,,,,,,,,,,,78,2,2025-02-21_13h23.27.897,comp,2024.2.4,None,2025-02-21 13h24.31.636854 -0500,
73,73,0,critical,hwd,20.0,1.0,upper,200.0,125.0,125.0,200.0,141.0,141.0,1,3.82060170173645,None,,,,,0,0,0,0,0,73,73,103,277.8208649158478,,,,,,,,,,,,,,,,,,,,,,,,,,,,,,,,,,,,,,,,,,,,,,,,,,,,,,,,,,,,,,,,,,,,,,,,,,,,,,,,,200.0,125.0,125.0,200.0,141.0,141.0,1.0,1.2,-258,-14,0,3,266,0,277.8057210445404,277.8058030605316,277.80948543548584,277.8208649158478,277.9711527824402,277.9711527824402,277.9711527824402,277.9711527824402,277.9711527824402,277.9711527824402,277.9711527824402,281.65735697746277,1,3.82060170173645,None,,,,,,,,,,,,,,,,,,78,2,2025-02-21_13h23.27.897,comp,2024.2.4,None,2025-02-21 13h24.31.636854 -0500,
74,74,0,filler_square,None,None,None,None,None,None,None,None,None,None,2,3.894958257675171,None,,,,,0,0,0,0,0,74,74,200,281.67443919181824,,,,,,,,,,,,,,,,,,,,,,,,,,,,,,,,,,,,,,,,,,,,,,,,,,,,,,,,,,,,,,,,,,,,,,,,,,,,,,,,,61.94147720896525,60.08574783118923,66.00723061658125,66.00723061658125,65.14798192192077,65.14337847386419,3.0,3.2,-159,-262,0,5,162,259,281.6595456600189,281.659627199173,281.6634941101074,281.67443919181824,281.82057881355286,281.82057881355286,281.82057881355286,281.82057881355286,281.82057881355286,281.82057881355286,281.82057881355286,285.5730359554291,2,3.894958257675171,None,,,,,,,,,,,,,,,,,,78,2,2025-02-21_13h23.27.897,comp,2024.2.4,None,2025-02-21 13h24.31.636854 -0500,
75,75,0,critical,hdw,20.0,4.0,upper,200.0,125.0,141.0,141.0,125.0,200.0,1,4.564548969268799,None,,,,,0,0,0,0,0,75,75,119,285.5896632671356,,,,,,,,,,,,,,,,,,,,,,,,,,,,,,,,,,,,,,,,,,,,,,,,,,,,,,,,,,,,,,,,,,,,,,,,,,,,,,,,,200.0,125.0,141.0,141.0,125.0,200.0,4.0,4.1,-229,-282,0,13,266,-279,285.57466435432434,285.57474541664124,285.5784788131714,285.5896632671356,285.739141702652,285.739141702652,285.739141702652,285.739141702652,285.739141702652,285.739141702652,285.739141702652,290.160471200943,1,4.564548969268799,None,,,,,,,,,,,,,,,,,,78,2,2025-02-21_13h23.27.897,comp,2024.2.4,None,2025-02-21 13h24.31.636854 -0500,
76,76,0,catch,None,None,None,None,None,None,None,None,None,None,2,0.9605579376220703,None,,,,,0,0,0,0,0,76,76,128,290.17752385139465,,,,,,,,,,,,,,,,,,,,,,,,,,,,,,,,,,,,,,,,,,,,,,,,,,,,,,,,,,,,,,,,,,,,,,,,,,,,,,,,,64,126,175,150,61,129,2.1,2.11,-234,285,0,272,236,-250,290.16285610198975,290.16294050216675,290.16656589508057,290.17752385139465,290.32499957084656,290.32499957084656,290.32499957084656,290.32499957084656,290.32499957084656,290.32499957084656,290.32499957084656,291.14151668548584,2,0.9605579376220703,None,,,,,,,,,,,,,,,,,,78,2,2025-02-21_13h23.27.897,comp,2024.2.4,None,2025-02-21 13h24.31.636854 -0500,
77,77,0,critical,hdw,20.0,3.0,lower,133.0,57.0,78.0,78.0,57.0,133.0,1,2.7326347827911377,None,,,,,0,0,0,0,0,77,77,116,291.1573283672333,,,,,,,,,,,,,,,,,,,,,,,,,,,,,,,,,,,,,,,,,,,,,,,,,,,,,,,,,,,,,,,,,,,,,,,,,,,,,,,,,133.0,57.0,78.0,78.0,57.0,133.0,3.0,3.2,-164,-264,0,-1,202,280,291.14305233955383,291.1431519985199,291.14671754837036,291.1573283672333,291.310423374176,291.310423374176,291.310423374176,291.310423374176,291.310423374176,291.310423374176,291.310423374176,293.8949394226074,1,2.7326347827911377,None,,,,,,,,,,,,,,,,,,78,2,2025-02-21_13h23.27.897,comp,2024.2.4,None,2025-02-21 13h24.31.636854 -0500,
78,78,0,critical,dhw,35.0,1.0,upper,127.0,127.0,200.0,125.0,125.0,200.0,3,2.2541286945343018,None,,,,,0,0,0,0,0,78,78,49,293.91532158851624,,,,,,,,,,,,,,,,,,,,,,,,,,,,,,,,,,,,,,,,,,,,,,,,,,,,,,,,,,,,,,,,,,,,,,,,,,,,,,,,,127.0,127.0,200.0,125.0,125.0,200.0,1.0,1.2,-222,5,0,-8,258,3,293.8966157436371,293.89674973487854,293.89992475509644,293.91532158851624,294.0559067726135,294.0559067726135,294.0559067726135,294.0559067726135,294.0559067726135,294.0559067726135,294.0559067726135,296.1847333908081,3,2.2541286945343018,None,,,,,,,,,,,,,,,,,,78,2,2025-02-21_13h23.27.897,comp,2024.2.4,None,2025-02-21 13h24.31.636854 -0500,
79,79,0,critical,whd,20.0,2.1,lower,57.0,133.0,133.0,57.0,78.0,78.0,1,5.938468933105469,None,,,,,0,0,0,0,0,79,79,14,296.1998839378357,,,,,,,,,,,,,,,,,,,,,,,,,,,,,,,,,,,,,,,,,,,,,,,,,,,,,,,,,,,,,,,,,,,,,,,,,,,,,,,,,57.0,133.0,133.0,57.0,78.0,78.0,2.1,2.11,-191,262,0,274,164,-267,296.1862895488739,296.1863706111908,296.18951392173767,296.1998839378357,296.3428285121918,296.3428285121918,296.3428285121918,296.3428285121918,296.3428285121918,296.3428285121918,296.3428285121918,302.1442172527313,1,5.938468933105469,None,,,,,,,,,,,,,,,,,,78,2,2025-02-21_13h23.27.897,comp,2024.2.4,None,2025-02-21 13h24.31.636854 -0500,
80,80,0,filler_square,None,None,None,None,None,None,None,None,None,None,2,1.7770464420318604,None,,,,,0,0,0,0,0,80,80,204,302.16303181648254,,,,,,,,,,,,,,,,,,,,,,,,,,,,,,,,,,,,,,,,,,,,,,,,,,,,,,,,,,,,,,,,,,,,,,,,,,,,,,,,,60.62777917224668,63.888833316228954,66.28648101712125,66.28648101712125,57.67695470844241,57.23766569967459,1.0,1.3,319,-289,480,-269,638,-277,302.1461925506592,302.1462721824646,302.149733543396,302.16303181648254,302.3126175403595,302.3126175403595,302.3126175403595,302.3126175403595,302.3126175403595,302.3126175403595,302.3126175403595,303.9429919719696,2,1.7770464420318604,None,,,,,,,,,,,,,,,,,,78,2,2025-02-21_13h23.27.897,comp,2024.2.4,None,2025-02-21 13h24.31.636854 -0500,
81,81,0,filler_square,None,None,None,None,None,None,None,None,None,None,3,0.9858551025390625,None,,,,,0,0,0,0,0,81,81,187,303.9596471786499,,,,,,,,,,,,,,,,,,,,,,,,,,,,,,,,,,,,,,,,,,,,,,,,,,,,,,,,,,,,,,,,,,,,,,,,,,,,,,,,,67.7723425703599,119.62041070432907,87.81167947639376,72.42163269722604,133.47319322808164,133.47319322808164,4.0,4.2,-192,-2,0,-273,199,-16,303.944771528244,303.94484877586365,303.9479224681854,303.9596471786499,304.112829208374,304.112829208374,304.112829208374,304.112829208374,304.112829208374,304.112829208374,304.112829208374,304.9632132053375,3,0.9858551025390625,None,,,,,,,,,,,,,,,,,,78,2,2025-02-21_13h23.27.897,comp,2024.2.4,None,2025-02-21 13h24.31.636854 -0500,
82,82,0,filler_square,None,None,None,None,None,None,None,None,None,None,3,2.414659023284912,None,,,,,0,0,0,0,0,82,82,201,304.97920179367065,,,,,,,,,,,,,,,,,,,,,,,,,,,,,,,,,,,,,,,,,,,,,,,,,,,,,,,,,,,,,,,,,,,,,,,,,,,,,,,,,68.39306698287241,71.04742326520639,72.09050821792334,66.53507293745524,75.17454156205513,75.17454156205513,3.0,3.1,-165,278,0,-1,167,-278,304.9651219844818,304.9652042388916,304.96887612342834,304.97920179367065,305.1287875175476,305.1287875175476,305.1287875175476,305.1287875175476,305.1287875175476,305.1287875175476,305.1287875175476,307.39949131011963,3,2.414659023284912,None,,,,,,,,,,,,,,,,,,78,2,2025-02-21_13h23.27.897,comp,2024.2.4,None,2025-02-21 13h24.31.636854 -0500,
83,83,0,critical,hdw,35.0,2.1,upper,200.0,125.0,127.0,127.0,125.0,200.0,3,1.8651854991912842,None,,,,,0,0,0,0,0,83,83,21,307.416250705719,,,,,,,,,,,,,,,,,,,,,,,,,,,,,,,,,,,,,,,,,,,,,,,,,,,,,,,,,,,,,,,,,,,,,,,,,,,,,,,,,200.0,125.0,127.0,127.0,125.0,200.0,2.1,2.12,-222,-262,0,-267,260,268,307.4013018608093,307.4013843536377,307.40546226501465,307.416250705719,307.56903553009033,307.56903553009033,307.56903553009033,307.56903553009033,307.56903553009033,307.56903553009033,307.56903553009033,309.29793787002563,3,1.8651854991912842,None,,,,,,,,,,,,,,,,,,78,2,2025-02-21_13h23.27.897,comp,2024.2.4,None,2025-02-21 13h24.31.636854 -0500,
84,84,0,critical,hwd,20.0,3.0,upper,200.0,125.0,125.0,200.0,141.0,141.0,2,3.9929428100585938,None,,,,,0,0,0,0,0,84,84,105,309.3134136199951,,,,,,,,,,,,,,,,,,,,,,,,,,,,,,,,,,,,,,,,,,,,,,,,,,,,,,,,,,,,,,,,,,,,,,,,,,,,,,,,,200.0,125.0,125.0,200.0,141.0,141.0,3.0,3.2,-258,-274,0,1,266,270,309.2994976043701,309.2995798587799,309.3031487464905,309.3134136199951,309.46323704719543,309.46323704719543,309.46323704719543,309.46323704719543,309.46323704719543,309.46323704719543,309.46323704719543,313.311975479126,2,3.9929428100585938,None,,,,,,,,,,,,,,,,,,78,2,2025-02-21_13h23.27.897,comp,2024.2.4,None,2025-02-21 13h24.31.636854 -0500,
85,85,0,critical,hwd,20.0,2.1,upper,200.0,125.0,125.0,200.0,141.0,141.0,1,2.7298762798309326,None,,,,,0,0,0,0,0,85,85,43,313.32871437072754,,,,,,,,,,,,,,,,,,,,,,,,,,,,,,,,,,,,,,,,,,,,,,,,,,,,,,,,,,,,,,,,,,,,,,,,,,,,,,,,,200.0,125.0,125.0,200.0,141.0,141.0,2.1,2.12,-258,-252,0,-273,266,282,313.3136885166168,313.31379771232605,313.3173260688782,313.32871437072754,313.47404885292053,313.47404885292053,313.47404885292053,313.47404885292053,313.47404885292053,313.47404885292053,313.47404885292053,316.06614089012146,1,2.7298762798309326,None,,,,,,,,,,,,,,,,,,78,2,2025-02-21_13h23.27.897,comp,2024.2.4,None,2025-02-21 13h24.31.636854 -0500,
86,86,0,critical,dwh,35.0,4.0,lower,70.0,70.0,57.0,133.0,133.0,57.0,2,1.9514267444610596,None,,,,,0,0,0,0,0,86,86,64,316.0819854736328,,,,,,,,,,,,,,,,,,,,,,,,,,,,,,,,,,,,,,,,,,,,,,,,,,,,,,,,,,,,,,,,,,,,,,,,,,,,,,,,,70.0,70.0,57.0,133.0,133.0,57.0,4.0,4.1,-198,-276,0,16,191,-256,316.06762742996216,316.06770491600037,316.07128524780273,316.0819854736328,316.23002552986145,316.23002552986145,316.23002552986145,316.23002552986145,316.23002552986145,316.23002552986145,316.23002552986145,318.04969573020935,2,1.9514267444610596,None,,,,,,,,,,,,,,,,,,78,2,2025-02-21_13h23.27.897,comp,2024.2.4,None,2025-02-21 13h24.31.636854 -0500,
87,87,0,filler_random,None,None,None,None,None,None,None,None,None,None,3,1.4096448421478271,None,,,,,0,0,0,0,0,87,87,140,318.06380462646484,,,,,,,,,,,,,,,,,,,,,,,,,,,,,,,,,,,,,,,,,,,,,,,,,,,,,,,,,,,,,,,,,,,,,,,,,,,,,,,,,120.77585331901011,132.8006973804077,145.64025256107374,58.76808631573333,127.53828355029401,191.60307300118933,1.0,1.2,-192,11,0,7,221,9,318.05135703086853,318.05143332481384,318.0547788143158,318.06380462646484,318.2161822319031,318.2161822319031,318.2161822319031,318.2161822319031,318.2161822319031,318.2161822319031,318.2161822319031,319.48794627189636,3,1.4096448421478271,None,,,,,,,,,,,,,,,,,,78,2,2025-02-21_13h23.27.897,comp,2024.2.4,None,2025-02-21 13h24.31.636854 -0500,
88,88,0,filler_square,None,None,None,None,None,None,None,None,None,None,3,0.9123489856719971,None,,,,,0,0,0,0,0,88,88,171,319.50519037246704,,,,,,,,,,,,,,,,,,,,,,,,,,,,,,,,,,,,,,,,,,,,,,,,,,,,,,,,,,,,,,,,,,,,,,,,,,,,,,,,,71.04721832737415,60.20681782468399,103.37660930158385,75.9162631024664,109.57231726369072,109.57231726369072,3.0,3.2,-164,-265,0,-17,189,274,319.4899868965149,319.4901022911072,319.49403738975525,319.50519037246704,319.64841651916504,319.64841651916504,319.64841651916504,319.64841651916504,319.64841651916504,319.64841651916504,319.64841651916504,320.43391585350037,3,0.9123489856719971,None,,,,,,,,,,,,,,,,,,78,2,2025-02-21_13h23.27.897,comp,2024.2.4,None,2025-02-21 13h24.31.636854 -0500,
89,89,0,filler_square,None,None,None,None,None,None,None,None,None,None,3,0.8319692611694336,None,,,,,0,0,0,0,0,89,89,199,320.4502773284912,,,,,,,,,,,,,,,,,,,,,,,,,,,,,,,,,,,,,,,,,,,,,,,,,,,,,,,,,,,,,,,,,,,,,,,,,,,,,,,,,71.12003458915214,131.53064957459736,109.7479020835286,136.44220086390933,173.6571975718224,173.6571975718224,1.0,1.2,-230,19,0,-2,251,17,320.43601512908936,320.43612790107727,320.43991589546204,320.4502773284912,320.59928917884827,320.59928917884827,320.59928917884827,320.59928917884827,320.59928917884827,320.59928917884827,320.59928917884827,321.2858636379242,3,0.8319692611694336,None,,,,,,,,,,,,,,,,,,78,2,2025-02-21_13h23.27.897,comp,2024.2.4,None,2025-02-21 13h24.31.636854 -0500,
90,90,0,filler_random,None,None,None,None,None,None,None,None,None,None,3,10.763213634490967,None,,,,,0,0,0,0,0,90,90,165,321.3028268814087,,,,,,,,,,,,,,,,,,,,,,,,,,,,,,,,,,,,,,,,,,,,,,,,,,,,,,,,,,,,,,,,,,,,,,,,,,,,,,,,,112.29207385744557,123.99213245702497,114.93582013680313,102.63590884421669,103.53764682306019,126.12435921398857,4.0,4.2,-209,15,0,-285,210,20,321.28774213790894,321.2878234386444,321.2918756008148,321.3028268814087,321.4444897174835,321.4444897174835,321.4444897174835,321.4444897174835,321.4444897174835,321.4444897174835,321.4444897174835,332.0685260295868,3,10.763213634490967,None,,,,,,,,,,,,,,,,,,78,2,2025-02-21_13h23.27.897,comp,2024.2.4,None,2025-02-21 13h24.31.636854 -0500,
91,91,0,critical,dwh,35.0,2.1,upper,127.0,127.0,125.0,200.0,200.0,125.0,3,2.532165288925171,None,,,,,0,0,0,0,0,91,91,29,332.08547353744507,,,,,,,,,,,,,,,,,,,,,,,,,,,,,,,,,,,,,,,,,,,,,,,,,,,,,,,,,,,,,,,,,,,,,,,,,,,,,,,,,127.0,127.0,125.0,200.0,200.0,125.0,2.1,2.12,-260,-257,0,-285,258,287,332.07000851631165,332.07011342048645,332.07323026657104,332.08547353744507,332.235666513443,332.235666513443,332.235666513443,332.235666513443,332.235666513443,332.235666513443,332.235666513443,334.6277108192444,3,2.532165288925171,None,,,,,,,,,,,,,,,,,,78,2,2025-02-21_13h23.27.897,comp,2024.2.4,None,2025-02-21 13h24.31.636854 -0500,
92,92,0,catch,None,None,None,None,None,None,None,None,None,None,2,0.9970016479492188,None,,,,,0,0,0,0,0,92,92,120,334.64448642730713,,,,,,,,,,,,,,,,,,,,,,,,,,,,,,,,,,,,,,,,,,,,,,,,,,,,,,,,,,,,,,,,,,,,,,,,,,,,,,,,,82,108,192,133,103,87,2.1,2.12,-216,-263,0,-288,206,281,334.6296548843384,334.6297378540039,334.6328420639038,334.64448642730713,334.78815507888794,334.78815507888794,334.78815507888794,334.78815507888794,334.78815507888794,334.78815507888794,334.78815507888794,335.6600387096405,2,0.9970016479492188,None,,,,,,,,,,,,,,,,,,78,2,2025-02-21_13h23.27.897,comp,2024.2.4,None,2025-02-21 13h24.31.636854 -0500,
93,93,0,critical,dwh,35.0,1.0,upper,127.0,127.0,125.0,200.0,200.0,125.0,3,1.2855734825134277,None,,,,,0,0,0,0,0,93,93,61,335.676007270813,,,,,,,,,,,,,,,,,,,,,,,,,,,,,,,,,,,,,,,,,,,,,,,,,,,,,,,,,,,,,,,,,,,,,,,,,,,,,,,,,127.0,127.0,125.0,200.0,200.0,125.0,1.0,1.3,220,-289,480,-274,738,-281,335.661988735199,335.66222167015076,335.6655304431915,335.676007270813,335.8227801322937,335.8227801322937,335.8227801322937,335.8227801322937,335.8227801322937,335.8227801322937,335.8227801322937,336.9725604057312,3,1.2855734825134277,None,,,,,,,,,,,,,,,,,,78,2,2025-02-21_13h23.27.897,comp,2024.2.4,None,2025-02-21 13h24.31.636854 -0500,
94,94,0,filler_square,None,None,None,None,None,None,None,None,None,None,1,1.548825740814209,None,,,,,0,0,0,0,0,94,94,191,336.988906621933,,,,,,,,,,,,,,,,,,,,,,,,,,,,,,,,,,,,,,,,,,,,,,,,,,,,,,,,,,,,,,,,,,,,,,,,,,,,,,,,,112.16950813212588,112.16950813212588,77.91294682489149,79.34469153010163,80.33425689562,110.80718410082403,1.0,1.3,288,-276,480,-258,671,-272,336.97437810897827,336.9744589328766,336.97816705703735,336.988906621933,337.13916301727295,337.13916301727295,337.13916301727295,337.13916301727295,337.13916301727295,337.13916301727295,337.13916301727295,338.54117226600647,1,1.548825740814209,None,,,,,,,,,,,,,,,,,,78,2,2025-02-21_13h23.27.897,comp,2024.2.4,None,2025-02-21 13h24.31.636854 -0500,
95,95,0,filler_square,None,None,None,None,None,None,None,None,None,None,1,1.2111034393310547,None,,,,,0,0,0,0,0,95,95,209,338.5587320327759,,,,,,,,,,,,,,,,,,,,,,,,,,,,,,,,,,,,,,,,,,,,,,,,,,,,,,,,,,,,,,,,,,,,,,,,,,,,,,,,,161.55068443774368,161.55068443774368,128.4604691968764,161.13988127261428,58.37015378249206,148.4200535454558,3.0,3.1,-257,288,0,16,251,-257,338.54334449768066,338.5434787273407,338.5471761226654,338.5587320327759,338.70627212524414,338.70627212524414,338.70627212524414,338.70627212524414,338.70627212524414,338.70627212524414,338.70627212524414,339.78941011428833,1,1.2111034393310547,None,,,,,,,,,,,,,,,,,,78,2,2025-02-21_13h23.27.897,comp,2024.2.4,None,2025-02-21 13h24.31.636854 -0500,
96,96,0,filler_random,None,None,None,None,None,None,None,None,None,None,2,1.0919744968414307,None,,,,,0,0,0,0,0,96,96,131,339.80570101737976,,,,,,,,,,,,,,,,,,,,,,,,,,,,,,,,,,,,,,,,,,,,,,,,,,,,,,,,,,,,,,,,,,,,,,,,,,,,,,,,,193.038327772378,100.01656070325643,184.7798372662198,159.45784094818396,133.01073769206718,70.24182499654886,4.0,4.1,-226,-257,0,-1,211,-287,339.7912440299988,339.7913239002228,339.7949616909027,339.80570101737976,339.9617292881012,339.9617292881012,339.9617292881012,339.9617292881012,339.9617292881012,339.9617292881012,339.9617292881012,340.8997869491577,2,1.0919744968414307,None,,,,,,,,,,,,,,,,,,78,2,2025-02-21_13h23.27.897,comp,2024.2.4,None,2025-02-21 13h24.31.636854 -0500,
97,97,0,critical,wdh,35.0,2.1,lower,57.0,133.0,70.0,70.0,133.0,57.0,3,2.0365309715270996,None,,,,,0,0,0,0,0,97,97,32,340.91751313209534,,,,,,,,,,,,,,,,,,,,,,,,,,,,,,,,,,,,,,,,,,,,,,,,,,,,,,,,,,,,,,,,,,,,,,,,,,,,,,,,,57.0,133.0,70.0,70.0,133.0,57.0,2.1,2.12,-198,-279,0,-285,160,256,340.9013361930847,340.9014139175415,340.90454173088074,340.91751313209534,341.05757427215576,341.05757427215576,341.05757427215576,341.05757427215576,341.05757427215576,341.05757427215576,341.05757427215576,342.95656728744507,3,2.0365309715270996,None,,,,,,,,,,,,,,,,,,78,2,2025-02-21_13h23.27.897,comp,2024.2.4,None,2025-02-21 13h24.31.636854 -0500,
98,98,0,critical,whd,20.0,2.1,upper,125.0,200.0,200.0,125.0,141.0,141.0,1,2.549699068069458,None,,,,,0,0,0,0,0,98,98,15,342.97248697280884,,,,,,,,,,,,,,,,,,,,,,,,,,,,,,,,,,,,,,,,,,,,,,,,,,,,,,,,,,,,,,,,,,,,,,,,,,,,,,,,,125.0,200.0,200.0,125.0,141.0,141.0,2.1,2.12,-258,-280,0,-266,229,270,342.9580821990967,342.9581654071808,342.9615206718445,342.97248697280884,343.124547958374,343.124547958374,343.124547958374,343.124547958374,343.124547958374,343.124547958374,343.124547958374,345.5310890674591,1,2.549699068069458,None,,,,,,,,,,,,,,,,,,78,2,2025-02-21_13h23.27.897,comp,2024.2.4,None,2025-02-21 13h24.31.636854 -0500,
99,99,0,filler_random,None,None,None,None,None,None,None,None,None,None,1,0.8468894958496094,None,,,,,0,0,0,0,0,99,99,137,345.54678773880005,,,,,,,,,,,,,,,,,,,,,,,,,,,,,,,,,,,,,,,,,,,,,,,,,,,,,,,,,,,,,,,,,,,,,,,,,,,,,,,,,183.1864362400288,156.87849587220032,110.17586694028067,84.59910377273786,156.39822493454704,180.0312181483663,1.0,1.3,263,-280,480,-262,708,-275,345.53276109695435,345.53283977508545,345.5359480381012,345.54678773880005,345.6956820487976,345.6956820487976,345.6956820487976,345.6956820487976,345.6956820487976,345.6956820487976,345.6956820487976,346.40782022476196,1,0.8468894958496094,None,,,,,,,,,,,,,,,,,,78,2,2025-02-21_13h23.27.897,comp,2024.2.4,None,2025-02-21 13h24.31.636854 -0500,
100,100,0,filler_random,None,None,None,None,None,None,None,None,None,None,3,1.0771665573120117,None,,,,,0,0,0,0,0,100,100,138,346.42872643470764,,,,,,,,,,,,,,,,,,,,,,,,,,,,,,,,,,,,,,,,,,,,,,,,,,,,,,,,,,,,,,,,,,,,,,,,,,,,,,,,,65.35695377353602,70.44917699460716,184.02156014290298,91.57617933989971,145.120979071593,171.14680861643888,4.0,4.2,-177,14,0,-251,227,-11,346.40955352783203,346.4096350669861,346.41301369667053,346.42872643470764,346.57568764686584,346.57568764686584,346.57568764686584,346.57568764686584,346.57568764686584,346.57568764686584,346.57568764686584,347.51083040237427,3,1.0771665573120117,None,,,,,,,,,,,,,,,,,,78,2,2025-02-21_13h23.27.897,comp,2024.2.4,None,2025-02-21 13h24.31.636854 -0500,
101,101,0,critical,hwd,20.0,2.1,upper,200.0,125.0,125.0,200.0,141.0,141.0,2,2.8998754024505615,None,,,,,0,0,0,0,0,101,101,19,347.526469707489,,,,,,,,,,,,,,,,,,,,,,,,,,,,,,,,,,,,,,,,,,,,,,,,,,,,,,,,,,,,,,,,,,,,,,,,,,,,,,,,,200.0,125.0,125.0,200.0,141.0,141.0,2.1,2.12,-258,-269,0,-257,266,259,347.5123658180237,347.51244497299194,347.5157036781311,347.526469707489,347.6762466430664,347.6762466430664,347.6762466430664,347.6762466430664,347.6762466430664,347.6762466430664,347.6762466430664,350.44343304634094,2,2.8998754024505615,None,,,,,,,,,,,,,,,,,,78,2,2025-02-21_13h23.27.897,comp,2024.2.4,None,2025-02-21 13h24.31.636854 -0500,
102,102,0,critical,hwd,20.0,2.1,lower,133.0,57.0,57.0,133.0,78.0,78.0,2,1.6304035186767578,None,,,,,0,0,0,0,0,102,102,42,350.45904874801636,,,,,,,,,,,,,,,,,,,,,,,,,,,,,,,,,,,,,,,,,,,,,,,,,,,,,,,,,,,,,,,,,,,,,,,,,,,,,,,,,133.0,57.0,57.0,133.0,78.0,78.0,2.1,2.11,-191,281,0,286,202,-262,350.4450914859772,350.44517517089844,350.4487729072571,350.45904874801636,350.6077136993408,350.6077136993408,350.6077136993408,350.6077136993408,350.6077136993408,350.6077136993408,350.6077136993408,352.10115599632263,2,1.6304035186767578,None,,,,,,,,,,,,,,,,,,78,2,2025-02-21_13h23.27.897,comp,2024.2.4,None,2025-02-21 13h24.31.636854 -0500,
103,103,0,critical,dhw,20.0,2.1,upper,141.0,141.0,200.0,125.0,125.0,200.0,2,2.9731218814849854,None,,,,,0,0,0,0,0,103,103,3,352.1166732311249,,,,,,,,,,,,,,,,,,,,,,,,,,,,,,,,,,,,,,,,,,,,,,,,,,,,,,,,,,,,,,,,,,,,,,,,,,,,,,,,,141.0,141.0,200.0,125.0,125.0,200.0,2.1,2.11,-229,274,0,257,258,-288,352.10265350341797,352.1027338504791,352.10584807395935,352.1166732311249,352.2605619430542,352.2605619430542,352.2605619430542,352.2605619430542,352.2605619430542,352.2605619430542,352.2605619430542,355.1015737056732,2,2.9731218814849854,None,,,,,,,,,,,,,,,,,,78,2,2025-02-21_13h23.27.897,comp,2024.2.4,None,2025-02-21 13h24.31.636854 -0500,
104,104,0,critical,hwd,20.0,1.0,lower,133.0,57.0,57.0,133.0,78.0,78.0,1,5.0262672901153564,None,,,,,0,0,0,0,0,104,104,102,355.11934757232666,,,,,,,,,,,,,,,,,,,,,,,,,,,,,,,,,,,,,,,,,,,,,,,,,,,,,,,,,,,,,,,,,,,,,,,,,,,,,,,,,133.0,57.0,57.0,133.0,78.0,78.0,1.0,1.2,-191,2,0,12,202,17,355.1030492782593,355.1031582355499,355.1062846183777,355.11934757232666,355.2616124153137,355.2616124153137,355.2616124153137,355.2616124153137,355.2616124153137,355.2616124153137,355.2616124153137,360.16262555122375,1,5.0262672901153564,None,,,,,,,,,,,,,,,,,,78,2,2025-02-21_13h23.27.897,comp,2024.2.4,None,2025-02-21 13h24.31.636854 -0500,
105,105,0,filler_square,None,None,None,None,None,None,None,None,None,None,3,0.9231021404266357,None,,,,,0,0,0,0,0,105,105,208,360.1831696033478,,,,,,,,,,,,,,,,,,,,,,,,,,,,,,,,,,,,,,,,,,,,,,,,,,,,,,,,,,,,,,,,,,,,,,,,,,,,,,,,,75.37163325138457,58.89849095717575,67.32010060354482,58.69708856766782,76.69073800235664,76.69073800235664,3.0,3.1,-155,258,0,-9,164,-288,360.16437911987305,360.16445446014404,360.16785502433777,360.1831696033478,360.33053755760193,360.33053755760193,360.33053755760193,360.33053755760193,360.33053755760193,360.33053755760193,360.33053755760193,361.12420129776,3,0.9231021404266357,None,,,,,,,,,,,,,,,,,,78,2,2025-02-21_13h23.27.897,comp,2024.2.4,None,2025-02-21 13h24.31.636854 -0500,
106,106,0,filler_random,None,None,None,None,None,None,None,None,None,None,1,1.7884047031402588,None,,,,,0,0,0,0,0,106,106,153,361.1411163806915,,,,,,,,,,,,,,,,,,,,,,,,,,,,,,,,,,,,,,,,,,,,,,,,,,,,,,,,,,,,,,,,,,,,,,,,,,,,,,,,,138.1511288373606,119.181841111079,60.87624624201285,191.67143898409554,91.07155409166933,180.43592479113533,2.1,2.11,-251,258,0,269,282,-252,361.1261250972748,361.1262056827545,361.12975311279297,361.1411163806915,361.2806522846222,361.2806522846222,361.2806522846222,361.2806522846222,361.2806522846222,361.2806522846222,361.2806522846222,362.93156719207764,1,1.7884047031402588,None,,,,,,,,,,,,,,,,,,78,2,2025-02-21_13h23.27.897,comp,2024.2.4,None,2025-02-21 13h24.31.636854 -0500,
107,107,0,critical,whd,20.0,2.1,upper,125.0,200.0,200.0,125.0,141.0,141.0,1,3.6134347915649414,None,,,,,0,0,0,0,0,107,107,39,362.9482991695404,,,,,,,,,,,,,,,,,,,,,,,,,,,,,,,,,,,,,,,,,,,,,,,,,,,,,,,,,,,,,,,,,,,,,,,,,,,,,,,,,125.0,200.0,200.0,125.0,141.0,141.0,2.1,2.12,-258,-271,0,-254,229,255,362.93320512771606,362.9333519935608,362.9375002384186,362.9482991695404,363.09543776512146,363.09543776512146,363.09543776512146,363.09543776512146,363.09543776512146,363.09543776512146,363.09543776512146,366.5674328804016,1,3.6134347915649414,None,,,,,,,,,,,,,,,,,,78,2,2025-02-21_13h23.27.897,comp,2024.2.4,None,2025-02-21 13h24.31.636854 -0500,
108,108,0,filler_square,None,None,None,None,None,None,None,None,None,None,3,1.4404730796813965,None,,,,,0,0,0,0,0,108,108,177,366.58576226234436,,,,,,,,,,,,,,,,,,,,,,,,,,,,,,,,,,,,,,,,,,,,,,,,,,,,,,,,,,,,,,,,,,,,,,,,,,,,,,,,,135.39151782999934,67.66452205747255,70.59635978322204,162.83905890511502,183.95232137590523,183.95232137590523,2.1,2.11,-211,255,0,283,269,-281,366.56939005851746,366.569473028183,366.57260513305664,366.58576226234436,366.7323200702667,366.7323200702667,366.7323200702667,366.7323200702667,366.7323200702667,366.7323200702667,366.7323200702667,368.0338559150696,3,1.4404730796813965,None,,,,,,,,,,,,,,,,,,78,2,2025-02-21_13h23.27.897,comp,2024.2.4,None,2025-02-21 13h24.31.636854 -0500,
109,109,0,filler_square,None,None,None,None,None,None,None,None,None,None,1,1.6036286354064941,None,,,,,0,0,0,0,0,109,109,174,368.0547785758972,,,,,,,,,,,,,,,,,,,,,,,,,,,,,,,,,,,,,,,,,,,,,,,,,,,,,,,,,,,,,,,,,,,,,,,,,,,,,,,,,104.89488396091518,104.89488396091518,78.1997137368372,78.45257397424336,62.300152190008696,104.2819160654668,2.2,2.22,-188,281,0,-284,187,-253,368.0356676578522,368.0357475280762,368.0390462875366,368.0547785758972,368.19774627685547,368.19774627685547,368.19774627685547,368.19774627685547,368.19774627685547,368.19774627685547,368.19774627685547,369.66365242004395,1,1.6036286354064941,None,,,,,,,,,,,,,,,,,,78,2,2025-02-21_13h23.27.897,comp,2024.2.4,None,2025-02-21 13h24.31.636854 -0500,
110,110,0,critical,wdh,20.0,2.1,lower,57.0,133.0,78.0,78.0,133.0,57.0,2,9.689202308654785,None,,,,,0,0,0,0,0,110,110,10,369.6805417537689,,,,,,,,,,,,,,,,,,,,,,,,,,,,,,,,,,,,,,,,,,,,,,,,,,,,,,,,,,,,,,,,,,,,,,,,,,,,,,,,,57.0,133.0,78.0,78.0,133.0,57.0,2.1,2.11,-202,272,0,259,164,-284,369.665123462677,369.66520166397095,369.66827845573425,369.6805417537689,369.8161566257477,369.8161566257477,369.8161566257477,369.8161566257477,369.8161566257477,369.8161566257477,369.8161566257477,379.38675451278687,2,9.689202308654785,None,,,,,,,,,,,,,,,,,,78,2,2025-02-21_13h23.27.897,comp,2024.2.4,None,2025-02-21 13h24.31.636854 -0500,
111,111,0,critical,wdh,20.0,1.0,lower,57.0,133.0,78.0,78.0,133.0,57.0,2,2.527698040008545,None,,,,,0,0,0,0,0,111,111,78,379.40266728401184,,,,,,,,,,,,,,,,,,,,,,,,,,,,,,,,,,,,,,,,,,,,,,,,,,,,,,,,,,,,,,,,,,,,,,,,,,,,,,,,,57.0,133.0,78.0,78.0,133.0,57.0,1.0,1.3,278,-257,480,-271,644,-264,379.38837337493896,379.38844990730286,379.392112493515,379.40266728401184,379.55401515960693,379.55401515960693,379.55401515960693,379.55401515960693,379.55401515960693,379.55401515960693,379.55401515960693,381.9377806186676,2,2.527698040008545,None,,,,,,,,,,,,,,,,,,78,2,2025-02-21_13h23.27.897,comp,2024.2.4,None,2025-02-21 13h24.31.636854 -0500,
112,112,0,critical,dhw,20.0,2.1,lower,78.0,78.0,133.0,57.0,57.0,133.0,3,1.4790980815887451,None,,,,,0,0,0,0,0,112,112,26,381.9547584056854,,,,,,,,,,,,,,,,,,,,,,,,,,,,,,,,,,,,,,,,,,,,,,,,,,,,,,,,,,,,,,,,,,,,,,,,,,,,,,,,,78.0,78.0,133.0,57.0,57.0,133.0,2.1,2.12,-164,-273,0,-264,191,265,381.93942046165466,381.9395070075989,381.94325971603394,381.9547584056854,382.1122524738312,382.1122524738312,382.1122524738312,382.1122524738312,382.1122524738312,382.1122524738312,382.1122524738312,383.43621015548706,3,1.4790980815887451,None,,,,,,,,,,,,,,,,,,78,2,2025-02-21_13h23.27.897,comp,2024.2.4,None,2025-02-21 13h24.31.636854 -0500,
113,113,0,filler_random,None,None,None,None,None,None,None,None,None,None,3,0.9949526786804199,None,,,,,0,0,0,0,0,113,113,151,383.4547817707062,,,,,,,,,,,,,,,,,,,,,,,,,,,,,,,,,,,,,,,,,,,,,,,,,,,,,,,,,,,,,,,,,,,,,,,,,,,,,,,,,165.31701893229092,192.48560430686612,81.05031362140726,167.79054492634725,198.91487172090208,193.35389684506717,3.0,3.2,-276,-284,0,12,277,280,383.4379417896271,383.43802285194397,383.44128704071045,383.4547817707062,383.6049737930298,383.6049737930298,383.6049737930298,383.6049737930298,383.6049737930298,383.6049737930298,383.6049737930298,384.46001076698303,3,0.9949526786804199,None,,,,,,,,,,,,,,,,,,78,2,2025-02-21_13h23.27.897,comp,2024.2.4,None,2025-02-21 13h24.31.636854 -0500,
114,114,0,critical,whd,20.0,3.0,upper,125.0,200.0,200.0,125.0,141.0,141.0,1,1.9332354068756104,None,,,,,0,0,0,0,0,114,114,93,384.4763147830963,,,,,,,,,,,,,,,,,,,,,,,,,,,,,,,,,,,,,,,,,,,,,,,,,,,,,,,,,,,,,,,,,,,,,,,,,,,,,,,,,125.0,200.0,200.0,125.0,141.0,141.0,3.0,3.1,-258,281,0,14,229,-262,384.46173191070557,384.46184635162354,384.46537017822266,384.4763147830963,384.6171660423279,384.6171660423279,384.6171660423279,384.6171660423279,384.6171660423279,384.6171660423279,384.6171660423279,386.4268136024475,1,1.9332354068756104,None,,,,,,,,,,,,,,,,,,78,2,2025-02-21_13h23.27.897,comp,2024.2.4,None,2025-02-21 13h24.31.636854 -0500,
115,115,0,critical,dwh,35.0,2.1,lower,70.0,70.0,57.0,133.0,133.0,57.0,2,2.9022066593170166,None,,,,,0,0,0,0,0,115,115,28,386.4433825016022,,,,,,,,,,,,,,,,,,,,,,,,,,,,,,,,,,,,,,,,,,,,,,,,,,,,,,,,,,,,,,,,,,,,,,,,,,,,,,,,,70.0,70.0,57.0,133.0,133.0,57.0,2.1,2.12,-198,-256,0,-273,191,279,386.4285638332367,386.4286983013153,386.43215775489807,386.4433825016022,386.58886194229126,386.58886194229126,386.58886194229126,386.58886194229126,386.58886194229126,386.58886194229126,386.58886194229126,389.34971261024475,2,2.9022066593170166,None,,,,,,,,,,,,,,,,,,78,2,2025-02-21_13h23.27.897,comp,2024.2.4,None,2025-02-21 13h24.31.636854 -0500,
116,116,0,filler_random,None,None,None,None,None,None,None,None,None,None,2,1.296057939529419,None,,,,,0,0,0,0,0,116,116,166,389.3706953525543,,,,,,,,,,,,,,,,,,,,,,,,,,,,,,,,,,,,,,,,,,,,,,,,,,,,,,,,,,,,,,,,,,,,,,,,,,,,,,,,,137.6218353275301,65.63932146225146,137.80589634073988,134.68230862621178,81.12205388877952,170.4643506302425,2.1,2.12,-196,-282,0,-273,249,251,389.3514893054962,389.35162448883057,389.35500168800354,389.3706953525543,389.5077259540558,389.5077259540558,389.5077259540558,389.5077259540558,389.5077259540558,389.5077259540558,389.5077259540558,390.67291498184204,2,1.296057939529419,None,,,,,,,,,,,,,,,,,,78,2,2025-02-21_13h23.27.897,comp,2024.2.4,None,2025-02-21 13h24.31.636854 -0500,
117,117,0,critical,dhw,35.0,1.0,lower,70.0,70.0,133.0,57.0,57.0,133.0,2,4.23291015625,None,,,,,0,0,0,0,0,117,117,48,390.6886537075043,,,,,,,,,,,,,,,,,,,,,,,,,,,,,,,,,,,,,,,,,,,,,,,,,,,,,,,,,,,,,,,,,,,,,,,,,,,,,,,,,70.0,70.0,133.0,57.0,57.0,133.0,1.0,1.3,320,-287,480,-255,671,-271,390.67445158958435,390.67453169822693,390.6780345439911,390.6886537075043,390.8391008377075,390.8391008377075,390.8391008377075,390.8391008377075,390.8391008377075,390.8391008377075,390.8391008377075,394.9251506328583,2,4.23291015625,None,,,,,,,,,,,,,,,,,,78,2,2025-02-21_13h23.27.897,comp,2024.2.4,None,2025-02-21 13h24.31.636854 -0500,
118,118,0,critical,whd,20.0,3.0,lower,57.0,133.0,133.0,57.0,78.0,78.0,3,1.0296528339385986,None,,,,,0,0,0,0,0,118,118,92,394.9405882358551,,,,,,,,,,,,,,,,,,,,,,,,,,,,,,,,,,,,,,,,,,,,,,,,,,,,,,,,,,,,,,,,,,,,,,,,,,,,,,,,,57.0,133.0,133.0,57.0,78.0,78.0,3.0,3.2,-191,-253,0,-5,164,283,394.92665433883667,394.9267325401306,394.92996191978455,394.9405882358551,395.09118390083313,395.09118390083313,395.09118390083313,395.09118390083313,395.09118390083313,395.09118390083313,395.09118390083313,395.9782922267914,3,1.0296528339385986,None,,,,,,,,,,,,,,,,,,78,2,2025-02-21_13h23.27.897,comp,2024.2.4,None,2025-02-21 13h24.31.636854 -0500,
119,119,0,critical,dwh,20.0,1.0,lower,78.0,78.0,57.0,133.0,133.0,57.0,1,1.5871524810791016,None,,,,,0,0,0,0,0,119,119,66,395.99889183044434,,,,,,,,,,,,,,,,,,,,,,,,,,,,,,,,,,,,,,,,,,,,,,,,,,,,,,,,,,,,,,,,,,,,,,,,,,,,,,,,,78.0,78.0,57.0,133.0,133.0,57.0,1.0,1.2,-202,2,0,-12,191,-1,395.9798879623413,395.97997403144836,395.983446598053,395.99889183044434,396.14863753318787,396.14863753318787,396.14863753318787,396.14863753318787,396.14863753318787,396.14863753318787,396.14863753318787,397.5906569957733,1,1.5871524810791016,None,,,,,,,,,,,,,,,,,,78,2,2025-02-21_13h23.27.897,comp,2024.2.4,None,2025-02-21 13h24.31.636854 -0500,
120,120,0,filler_square,None,None,None,None,None,None,None,None,None,None,2,0.9383220672607422,None,,,,,0,0,0,0,0,120,120,193,397.6072976589203,,,,,,,,,,,,,,,,,,,,,,,,,,,,,,,,,,,,,,,,,,,,,,,,,,,,,,,,,,,,,,,,,,,,,,,,,,,,,,,,,155.6007036769957,135.6037204666357,192.22071850431556,192.22071850431556,122.12545462780382,183.99211479237488,3.0,3.2,-260,-254,0,19,284,253,397.59246039390564,397.59254217147827,397.59583592414856,397.6072976589203,397.7585005760193,397.7585005760193,397.7585005760193,397.7585005760193,397.7585005760193,397.7585005760193,397.7585005760193,398.55988669395447,2,0.9383220672607422,None,,,,,,,,,,,,,,,,,,78,2,2025-02-21_13h23.27.897,comp,2024.2.4,None,2025-02-21 13h24.31.636854 -0500,
121,121,0,filler_square,None,None,None,None,None,None,None,None,None,None,1,1.2586889266967773,None,,,,,0,0,0,0,0,121,121,175,398.57674503326416,,,,,,,,,,,,,,,,,,,,,,,,,,,,,,,,,,,,,,,,,,,,,,,,,,,,,,,,,,,,,,,,,,,,,,,,,,,,,,,,,163.79501243082592,163.79501243082592,67.16213501210426,97.39207886910023,139.51356374891188,129.33898306843778,2.2,2.21,-227,-252,0,266,209,273,398.56203985214233,398.5621588230133,398.56590247154236,398.57674503326416,398.72441244125366,398.72441244125366,398.72441244125366,398.72441244125366,398.72441244125366,398.72441244125366,398.72441244125366,399.8415513038635,1,1.2586889266967773,None,,,,,,,,,,,,,,,,,,78,2,2025-02-21_13h23.27.897,comp,2024.2.4,None,2025-02-21 13h24.31.636854 -0500,
122,122,0,critical,whd,35.0,1.0,lower,57.0,133.0,133.0,57.0,70.0,70.0,1,4.839964866638184,None,,,,,0,0,0,0,0,122,122,84,399.85792112350464,,,,,,,,,,,,,,,,,,,,,,,,,,,,,,,,,,,,,,,,,,,,,,,,,,,,,,,,,,,,,,,,,,,,,,,,,,,,,,,,,57.0,133.0,133.0,57.0,70.0,70.0,1.0,1.2,-191,-18,0,-17,160,0,399.8430371284485,399.8431558609009,399.84645915031433,399.85792112350464,400.00935077667236,400.00935077667236,400.00935077667236,400.00935077667236,400.00935077667236,400.00935077667236,400.00935077667236,404.70096015930176,1,4.839964866638184,None,,,,,,,,,,,,,,,,,,78,2,2025-02-21_13h23.27.897,comp,2024.2.4,None,2025-02-21 13h24.31.636854 -0500,
123,123,0,critical,hdw,35.0,1.0,upper,200.0,125.0,127.0,127.0,125.0,200.0,3,1.420386791229248,None,,,,,0,0,0,0,0,123,123,109,404.71719193458557,,,,,,,,,,,,,,,,,,,,,,,,,,,,,,,,,,,,,,,,,,,,,,,,,,,,,,,,,,,,,,,,,,,,,,,,,,,,,,,,,200.0,125.0,127.0,127.0,125.0,200.0,1.0,1.3,258,-282,480,-282,740,-256,404.70256066322327,404.7026381492615,404.7058365345001,404.71719193458557,404.8584702014923,404.8584702014923,404.8584702014923,404.8584702014923,404.8584702014923,404.8584702014923,404.8584702014923,406.1504158973694,3,1.420386791229248,None,,,,,,,,,,,,,,,,,,78,2,2025-02-21_13h23.27.897,comp,2024.2.4,None,2025-02-21 13h24.31.636854 -0500,
124,124,0,filler_random,None,None,None,None,None,None,None,None,None,None,2,1.3708100318908691,None,,,,,0,0,0,0,0,124,124,139,406.16781401634216,,,,,,,,,,,,,,,,,,,,,,,,,,,,,,,,,,,,,,,,,,,,,,,,,,,,,,,,,,,,,,,,,,,,,,,,,,,,,,,,,149.01954644589432,89.9181072171477,109.13717681616787,159.2619250623775,87.82689162034552,96.5480636346211,2.1,2.12,-221,-273,0,-279,224,290,406.15236926078796,406.1524510383606,406.15603017807007,406.16781401634216,406.3122308254242,406.3122308254242,406.3122308254242,406.3122308254242,406.3122308254242,406.3122308254242,406.3122308254242,407.54342436790466,2,1.3708100318908691,None,,,,,,,,,,,,,,,,,,78,2,2025-02-21_13h23.27.897,comp,2024.2.4,None,2025-02-21 13h24.31.636854 -0500,
125,125,0,critical,dwh,20.0,2.1,lower,78.0,78.0,57.0,133.0,133.0,57.0,1,3.3456099033355713,None,,,,,0,0,0,0,0,125,125,6,407.559983253479,,,,,,,,,,,,,,,,,,,,,,,,,,,,,,,,,,,,,,,,,,,,,,,,,,,,,,,,,,,,,,,,,,,,,,,,,,,,,,,,,78.0,78.0,57.0,133.0,133.0,57.0,2.1,2.12,-202,-256,0,-257,191,262,407.54495096206665,407.54503178596497,407.54817605018616,407.559983253479,407.71937370300293,407.71937370300293,407.71937370300293,407.71937370300293,407.71937370300293,407.71937370300293,407.71937370300293,410.9186940193176,1,3.3456099033355713,None,,,,,,,,,,,,,,,,,,78,2,2025-02-21_13h23.27.897,comp,2024.2.4,None,2025-02-21 13h24.31.636854 -0500,
126,126,0,critical,hwd,20.0,4.0,lower,133.0,57.0,57.0,133.0,78.0,78.0,2,2.0492613315582275,None,,,,,0,0,0,0,0,126,126,106,410.9364297389984,,,,,,,,,,,,,,,,,,,,,,,,,,,,,,,,,,,,,,,,,,,,,,,,,,,,,,,,,,,,,,,,,,,,,,,,,,,,,,,,,133.0,57.0,57.0,133.0,78.0,78.0,4.0,4.1,-191,-272,0,20,202,-268,410.9201936721802,410.92027044296265,410.92334508895874,410.9364297389984,411.0765931606293,411.0765931606293,411.0765931606293,411.0765931606293,411.0765931606293,411.0765931606293,411.0765931606293,413.00017786026,2,2.0492613315582275,None,,,,,,,,,,,,,,,,,,78,2,2025-02-21_13h23.27.897,comp,2024.2.4,None,2025-02-21 13h24.31.636854 -0500,
127,127,0,critical,hdw,20.0,1.0,upper,200.0,125.0,141.0,141.0,125.0,200.0,3,2.4100341796875,None,,,,,0,0,0,0,0,127,127,115,413.0161600112915,,,,,,,,,,,,,,,,,,,,,,,,,,,,,,,,,,,,,,,,,,,,,,,,,,,,,,,,,,,,,,,,,,,,,,,,,,,,,,,,,200.0,125.0,141.0,141.0,125.0,200.0,1.0,1.1,-709,279,-480,251,-214,252,413.00185441970825,413.0019383430481,413.00507712364197,413.0161600112915,413.1640086174011,413.1640086174011,413.1640086174011,413.1640086174011,413.1640086174011,413.1640086174011,413.1640086174011,415.43250584602356,3,2.4100341796875,None,,,,,,,,,,,,,,,,,,78,2,2025-02-21_13h23.27.897,comp,2024.2.4,None,2025-02-21 13h24.31.636854 -0500,
128,128,0,filler_random,None,None,None,None,None,None,None,None,None,None,3,2.031942367553711,None,,,,,0,0,0,0,0,128,128,163,415.44971656799316,,,,,,,,,,,,,,,,,,,,,,,,,,,,,,,,,,,,,,,,,,,,,,,,,,,,,,,,,,,,,,,,,,,,,,,,,,,,,,,,,72.8490729732963,95.16611383509142,98.43208975736081,144.99502258584295,128.57476334207917,160.2312577926474,2.2,2.21,-216,-279,0,283,249,256,415.4343891143799,415.4345190525055,415.4379196166992,415.44971656799316,415.59729957580566,415.59729957580566,415.59729957580566,415.59729957580566,415.59729957580566,415.59729957580566,415.59729957580566,417.4969325065613,3,2.031942367553711,None,,,,,,,,,,,,,,,,,,78,2,2025-02-21_13h23.27.897,comp,2024.2.4,None,2025-02-21 13h24.31.636854 -0500,
129,129,0,critical,wdh,20.0,2.1,upper,125.0,200.0,141.0,141.0,200.0,125.0,1,1.4129326343536377,None,,,,,0,0,0,0,0,129,129,11,417.51759910583496,,,,,,,,,,,,,,,,,,,,,,,,,,,,,,,,,,,,,,,,,,,,,,,,,,,,,,,,,,,,,,,,,,,,,,,,,,,,,,,,,125.0,200.0,141.0,141.0,200.0,125.0,2.1,2.12,-266,-282,0,-287,229,262,417.49855160713196,417.498685836792,417.50222396850586,417.51759910583496,417.6652138233185,417.6652138233185,417.6652138233185,417.6652138233185,417.6652138233185,417.6652138233185,417.6652138233185,418.9362599849701,1,1.4129326343536377,None,,,,,,,,,,,,,,,,,,78,2,2025-02-21_13h23.27.897,comp,2024.2.4,None,2025-02-21 13h24.31.636854 -0500,
130,130,0,critical,hdw,35.0,1.0,lower,133.0,57.0,70.0,70.0,57.0,133.0,3,3.785862445831299,None,,,,,0,0,0,0,0,130,130,108,418.95262455940247,,,,,,,,,,,,,,,,,,,,,,,,,,,,,,,,,,,,,,,,,,,,,,,,,,,,,,,,,,,,,,,,,,,,,,,,,,,,,,,,,133.0,57.0,70.0,70.0,57.0,133.0,1.0,1.1,-640,266,-480,283,-282,268,418.93777322769165,418.9378547668457,418.94099712371826,418.95262455940247,419.098415851593,419.098415851593,419.098415851593,419.098415851593,419.098415851593,419.098415851593,419.098415851593,422.7549889087677,3,3.785862445831299,None,,,,,,,,,,,,,,,,,,78,2,2025-02-21_13h23.27.897,comp,2024.2.4,None,2025-02-21 13h24.31.636854 -0500,
131,131,0,critical,hdw,35.0,3.0,upper,200.0,125.0,127.0,127.0,125.0,200.0,3,12.08671236038208,None,,,,,0,0,0,0,0,131,131,111,422.77092027664185,,,,,,,,,,,,,,,,,,,,,,,,,,,,,,,,,,,,,,,,,,,,,,,,,,,,,,,,,,,,,,,,,,,,,,,,,,,,,,,,,200.0,125.0,127.0,127.0,125.0,200.0,3.0,3.2,-222,-279,0,18,260,258,422.7565281391144,422.7566087245941,422.75973320007324,422.77092027664185,422.9157016277313,422.9157016277313,422.9157016277313,422.9157016277313,422.9157016277313,422.9157016277313,422.9157016277313,434.8682475090027,3,12.08671236038208,None,,,,,,,,,,,,,,,,,,78,2,2025-02-21_13h23.27.897,comp,2024.2.4,None,2025-02-21 13h24.31.636854 -0500,
132,132,0,critical,whd,35.0,4.0,upper,125.0,200.0,200.0,125.0,127.0,127.0,2,1.5811595916748047,None,,,,,0,0,0,0,0,132,132,89,434.8849878311157,,,,,,,,,,,,,,,,,,,,,,,,,,,,,,,,,,,,,,,,,,,,,,,,,,,,,,,,,,,,,,,,,,,,,,,,,,,,,,,,,125.0,200.0,200.0,125.0,127.0,127.0,4.0,4.1,-258,-250,0,-12,222,-283,434.8698329925537,434.869913816452,434.8731224536896,434.8849878311157,435.0218586921692,435.0218586921692,435.0218586921692,435.0218586921692,435.0218586921692,435.0218586921692,435.0218586921692,436.4760558605194,2,1.5811595916748047,None,,,,,,,,,,,,,,,,,,78,2,2025-02-21_13h23.27.897,comp,2024.2.4,None,2025-02-21 13h24.31.636854 -0500,
133,133,0,filler_random,None,None,None,None,None,None,None,None,None,None,2,1.4278817176818848,None,,,,,0,0,0,0,0,133,133,157,436.49399161338806,,,,,,,,,,,,,,,,,,,,,,,,,,,,,,,,,,,,,,,,,,,,,,,,,,,,,,,,,,,,,,,,,,,,,,,,,,,,,,,,,128.50522302763005,130.0088567449995,190.93430778347607,160.67292231280584,96.80113047730133,169.73713172097996,4.0,4.1,-241,-270,0,-12,261,-261,436.47772908210754,436.47780680656433,436.481055021286,436.49399161338806,436.63755893707275,436.63755893707275,436.63755893707275,436.63755893707275,436.63755893707275,436.63755893707275,436.63755893707275,437.93844175338745,2,1.4278817176818848,None,,,,,,,,,,,,,,,,,,78,2,2025-02-21_13h23.27.897,comp,2024.2.4,None,2025-02-21 13h24.31.636854 -0500,
134,134,0,critical,dwh,20.0,3.0,upper,141.0,141.0,125.0,200.0,200.0,125.0,2,1.2627627849578857,None,,,,,0,0,0,0,0,134,134,69,437.9549295902252,,,,,,,,,,,,,,,,,,,,,,,,,,,,,,,,,,,,,,,,,,,,,,,,,,,,,,,,,,,,,,,,,,,,,,,,,,,,,,,,,141.0,141.0,125.0,200.0,200.0,125.0,3.0,3.1,-266,263,0,-17,258,-282,437.9399962425232,437.94010639190674,437.94433403015137,437.9549295902252,438.10508608818054,438.10508608818054,438.10508608818054,438.10508608818054,438.10508608818054,438.10508608818054,438.10508608818054,439.2310380935669,2,1.2627627849578857,None,,,,,,,,,,,,,,,,,,78,2,2025-02-21_13h23.27.897,comp,2024.2.4,None,2025-02-21 13h24.31.636854 -0500,
135,135,0,filler_square,None,None,None,None,None,None,None,None,None,None,1,1.7020318508148193,None,,,,,0,0,0,0,0,135,135,195,439.2518301010132,,,,,,,,,,,,,,,,,,,,,,,,,,,,,,,,,,,,,,,,,,,,,,,,,,,,,,,,,,,,,,,,,,,,,,,,,,,,,,,,,129.57298653591226,129.57298653591226,77.6134334285411,92.90224790043101,117.24654576419091,89.92150822200725,3.0,3.1,-207,253,0,-1,187,-262,439.2328476905823,439.23292899131775,439.2360978126526,439.2518301010132,439.3879337310791,439.3879337310791,439.3879337310791,439.3879337310791,439.3879337310791,439.3879337310791,439.3879337310791,440.9576418399811,1,1.7020318508148193,None,,,,,,,,,,,,,,,,,,78,2,2025-02-21_13h23.27.897,comp,2024.2.4,None,2025-02-21 13h24.31.636854 -0500,
136,136,0,filler_random,None,None,None,None,None,None,None,None,None,None,3,0.7760257720947266,None,,,,,0,0,0,0,0,136,136,159,440.97824788093567,,,,,,,,,,,,,,,,,,,,,,,,,,,,,,,,,,,,,,,,,,,,,,,,,,,,,,,,,,,,,,,,,,,,,,,,,,,,,,,,,85.94914035325613,173.2274386764671,67.38611272131615,194.47929195871674,152.3291631036133,196.90255185724595,3.0,3.2,-280,-288,0,-15,292,268,440.9596002101898,440.95971298217773,440.96328687667847,440.97824788093567,441.12250328063965,441.12250328063965,441.12250328063965,441.12250328063965,441.12250328063965,441.12250328063965,441.12250328063965,441.7586236000061,3,0.7760257720947266,None,,,,,,,,,,,,,,,,,,78,2,2025-02-21_13h23.27.897,comp,2024.2.4,None,2025-02-21 13h24.31.636854 -0500,
137,137,0,filler_square,None,None,None,None,None,None,None,None,None,None,3,0.923865556716919,None,,,,,0,0,0,0,0,137,137,178,441.77538561820984,,,,,,,,,,,,,,,,,,,,,,,,,,,,,,,,,,,,,,,,,,,,,,,,,,,,,,,,,,,,,,,,,,,,,,,,,,,,,,,,,103.3406397718673,131.5028370427355,89.2000151436576,57.45815298445774,157.1852848005829,157.1852848005829,4.0,4.1,-190,-275,0,-12,203,-276,441.76069045066833,441.76077461242676,441.7644808292389,441.77538561820984,441.9241147041321,441.9241147041321,441.9241147041321,441.9241147041321,441.9241147041321,441.9241147041321,441.9241147041321,442.7049140930176,3,0.923865556716919,None,,,,,,,,,,,,,,,,,,78,2,2025-02-21_13h23.27.897,comp,2024.2.4,None,2025-02-21 13h24.31.636854 -0500,
138,138,0,critical,hdw,20.0,2.1,lower,133.0,57.0,78.0,78.0,57.0,133.0,1,1.6926887035369873,None,,,,,0,0,0,0,0,138,138,22,442.7254738807678,,,,,,,,,,,,,,,,,,,,,,,,,,,,,,,,,,,,,,,,,,,,,,,,,,,,,,,,,,,,,,,,,,,,,,,,,,,,,,,,,133.0,57.0,78.0,78.0,57.0,133.0,2.1,2.12,-164,-289,0,-255,202,259,442.7064552307129,442.7065358161926,442.70988416671753,442.7254738807678,442.8733015060425,442.8733015060425,442.8733015060425,442.8733015060425,442.8733015060425,442.8733015060425,442.8733015060425,444.4230525493622,1,1.6926887035369873,None,,,,,,,,,,,,,,,,,,78,2,2025-02-21_13h23.27.897,comp,2024.2.4,None,2025-02-21 13h24.31.636854 -0500,
139,139,0,filler_square,None,None,None,None,None,None,None,None,None,None,3,0.7384223937988281,None,,,,,0,0,0,0,0,139,139,172,444.4393663406372,,,,,,,,,,,,,,,,,,,,,,,,,,,,,,,,,,,,,,,,,,,,,,,,,,,,,,,,,,,,,,,,,,,,,,,,,,,,,,,,,142.6547892395444,101.31288344525562,66.84207533758706,162.9593979771112,168.08504133638485,168.08504133638485,4.0,4.2,-228,-15,0,-269,262,-16,444.42485070228577,444.42493057250977,444.4286413192749,444.4393663406372,444.5916521549225,444.5916521549225,444.5916521549225,444.5916521549225,444.5916521549225,444.5916521549225,444.5916521549225,445.1907625198364,3,0.7384223937988281,None,,,,,,,,,,,,,,,,,,78,2,2025-02-21_13h23.27.897,comp,2024.2.4,None,2025-02-21 13h24.31.636854 -0500,
140,140,0,filler_square,None,None,None,None,None,None,None,None,None,None,3,1.2272584438323975,None,,,,,0,0,0,0,0,140,140,183,445.2069706916809,,,,,,,,,,,,,,,,,,,,,,,,,,,,,,,,,,,,,,,,,,,,,,,,,,,,,,,,,,,,,,,,,,,,,,,,,,,,,,,,,62.40456730096507,65.47028732240004,67.30113814563663,60.36560921448777,79.99156352460031,79.99156352460031,3.0,3.1,-159,250,0,-12,166,-288,445.19269347190857,445.1928164958954,445.196665763855,445.2069706916809,445.3605089187622,445.3605089187622,445.3605089187622,445.3605089187622,445.3605089187622,445.3605089187622,445.3605089187622,446.4423477649689,3,1.2272584438323975,None,,,,,,,,,,,,,,,,,,78,2,2025-02-21_13h23.27.897,comp,2024.2.4,None,2025-02-21 13h24.31.636854 -0500,
141,141,0,critical,dhw,35.0,4.0,lower,70.0,70.0,133.0,57.0,57.0,133.0,1,3.814934730529785,None,,,,,0,0,0,0,0,141,141,52,446.4587550163269,,,,,,,,,,,,,,,,,,,,,,,,,,,,,,,,,,,,,,,,,,,,,,,,,,,,,,,,,,,,,,,,,,,,,,,,,,,,,,,,,70.0,70.0,133.0,57.0,57.0,133.0,4.0,4.2,-160,-19,0,-288,191,-15,446.444219827652,446.4443008899689,446.44793677330017,446.4587550163269,446.6131308078766,446.6131308078766,446.6131308078766,446.6131308078766,446.6131308078766,446.6131308078766,446.6131308078766,450.2932448387146,1,3.814934730529785,None,,,,,,,,,,,,,,,,,,78,2,2025-02-21_13h23.27.897,comp,2024.2.4,None,2025-02-21 13h24.31.636854 -0500,
142,142,0,filler_random,None,None,None,None,None,None,None,None,None,None,1,0.7514164447784424,None,,,,,0,0,0,0,0,142,142,164,450.31422305107117,,,,,,,,,,,,,,,,,,,,,,,,,,,,,,,,,,,,,,,,,,,,,,,,,,,,,,,,,,,,,,,,,,,,,,,,,,,,,,,,,198.570761665249,188.89011742217315,159.56160316275668,82.12616861482495,84.99325331221218,93.24194537862448,2.1,2.11,-232,274,0,257,184,-270,450.2953040599823,450.29544615745544,450.29895782470703,450.31422305107117,450.45751905441284,450.45751905441284,450.45751905441284,450.45751905441284,450.45751905441284,450.45751905441284,450.45751905441284,451.0752205848694,1,0.7514164447784424,None,,,,,,,,,,,,,,,,,,78,2,2025-02-21_13h23.27.897,comp,2024.2.4,None,2025-02-21 13h24.31.636854 -0500,
