thisN,thisTrialN,thisRepN,effect,order,distance,config,diag,h_1,w_1,h_2,w_2,h_3,w_3,rect_choice.keys,rect_choice.rt,rect_choice.duration,instructions_loop.thisRepN,instructions_loop.thisTrialN,instructions_loop.thisN,instructions_loop.thisIndex,blocks.thisRepN,blocks.thisTrialN,blocks.thisN,blocks.thisIndex,trials.thisRepN,trials.thisTrialN,trials.thisN,trials.thisIndex,thisRow.t,notes,consent.started,agree_button.started,decline_button.started,consent_img.started,mouse.started,consent.stopped,agree_button.numClicks,agree_button.timesOn,agree_button.timesOff,decline_button.numClicks,decline_button.timesOn,decline_button.timesOff,mouse.x,mouse.y,mouse.leftButton,mouse.midButton,mouse.rightButton,mouse.time,mouse.clicked_name,exp_params.started,exp_params.stopped,welcome.started,welcome_text.started,welcome.stopped,instructions_1.started,instructions_1_text_1.started,instructions_1_text_2.started,key_resp.started,instructions_1.stopped,instructions_loop.key_resp.keys,instructions_loop.key_resp.rt,instructions_loop.key_resp.duration,instructions_2.started,instructions_2_text_1.started,instructions_2_text_2.started,key_resp_2.started,instructions_2.stopped,instructions_loop.key_resp_2.keys,instructions_loop.key_resp_2.rt,instructions_loop.key_resp_2.duration,instructions_3.started,instructions_3_text_1.started,r1_instr3.started,r2_instr3.started,r3_instr3.started,r1_instr3_label.started,r2_instr3_label.started,r3_instr3_label.started,instructions_3_text_3.started,instructions_3_text_4.started,key_resp_3.started,instructions_3.stopped,instructions_loop.key_resp_3.keys,instructions_loop.key_resp_3.rt,instructions_loop.key_resp_3.duration,instructions_4.started,instructions_4_text_1.started,instructions_4_text_3.started,instructions_4_text_2.started,key_resp_4.started,instructions_4.stopped,instructions_loop.key_resp_4.keys,instructions_loop.key_resp_4.rt,instructions_loop.key_resp_4.duration,instructions_5.started,instructions_5_text_1.started,instructions_5_text_2.started,key_resp_5.started,instructions_5.stopped,instructions_loop.key_resp_5.keys,instructions_loop.key_resp_5.rt,instructions_loop.key_resp_5.duration,start_exp.started,start_exp_text.started,key_resp_6.started,start_exp.stopped,key_resp_6.keys,key_resp_6.rt,key_resp_6.duration,h_1_tmp,w_1_tmp,h_2_tmp,w_2_tmp,h_3_tmp,w_3_tmp,config_tmp,config_tmp_1,r_1_x,r_1_y,r_2_x,r_2_y,r_3_x,r_3_y,pre_trial.started,pre_trial.stopped,choice_trial.started,rect_choice.started,r_1.started,r_2.started,r_3.started,r_1_label.started,r_2_label.started,r_3_label.started,prompt.started,choice_trial.stopped,trials.rect_choice.keys,trials.rect_choice.rt,trials.rect_choice.duration,end_block.started,end_block_text.started,end_block.stopped,end.started,end_text.started,key_resp_7.started,end.stopped,key_resp_7.keys,key_resp_7.rt,key_resp_7.duration,debriefing.started,debrief_form.started,end_debrief.started,debriefing.stopped,end_debrief.keys,end_debrief.rt,end_debrief.duration,participant,computer,date,expName,psychopyVersion,frameRate,expStart,
,,,,,,,,,,,,,,,,,,,,,,,,,,,,,,,0.015609502792358398,0.0417478084564209,0.0417478084564209,0.0417478084564209,0.015233755111694336,17.944211959838867,1,[17.901201486587524],[17.90121293067932],0,,,[-95.0],[-503.0],[1],[0],[0],[17.927879333496094],['agree_button'],,,,,,,,,,,,,,,,,,,,,,,,,,,,,,,,,,,,,,,,,,,,,,,,,,,,,,,,,,,,,,,,,,,,,,,,,,,,,,,,,,,,,,,,,,,,,,,,,,,,,,,,,,,79,5,2025-02-21_13h29.24.439,comp,2024.2.4,60.08265421744219,2025-02-21 13h29.41.849708 -0500,
,,,,,,,,,,,,,,,,,,,,,,,,,,,,,,,,,,,,,,,,,,,,,,,,,,17.944493293762207,17.944544315338135,,,,,,,,,,,,,,,,,,,,,,,,,,,,,,,,,,,,,,,,,,,,,,,,,,,,,,,,,,,,,,,,,,,,,,,,,,,,,,,,,,,,,,,,,,,,,,,,,,,,,,,,,79,5,2025-02-21_13h29.24.439,comp,2024.2.4,60.08265421744219,2025-02-21 13h29.41.849708 -0500,
,,,,,,,,,,,,,,,,,,,,,,,,,,,,,,,,,,,,,,,,,,,,,,,,,,,,17.9445698261261,17.958057165145874,19.946519374847412,,,,,,,,,,,,,,,,,,,,,,,,,,,,,,,,,,,,,,,,,,,,,,,,,,,,,,,,,,,,,,,,,,,,,,,,,,,,,,,,,,,,,,,,,,,,,,,,,,,,,,79,5,2025-02-21_13h29.24.439,comp,2024.2.4,60.08265421744219,2025-02-21 13h29.41.849708 -0500,
0,0,0,,,,,,,,,,,,,,,0,0,0,0,,,,,,,,,19.962976932525635,,,,,,,,,,,,,,,,,,,,,,,,,,19.947073698043823,19.962976932525635,19.962976932525635,21.44619607925415,22.64759850502014,space,1.193000316619873,None,22.64768362045288,22.66344141960144,22.66344141960144,24.162921667099,27.764307022094727,space,3.597254753112793,None,27.764394521713257,27.785808324813843,27.785808324813843,27.785808324813843,27.785808324813843,27.785808324813843,27.785808324813843,27.785808324813843,27.785808324813843,27.785808324813843,29.279935121536255,31.247915506362915,space,1.959397554397583,None,31.24800682067871,31.263545513153076,31.263545513153076,31.263545513153076,32.76291060447693,37.26404547691345,space,4.49213433265686,None,37.264134645462036,37.27974796295166,37.27974796295166,38.779412031173706,39.697081089019775,space,0.9083197116851807,None,39.69719648361206,39.712891578674316,39.712891578674316,40.61361813545227,space,0.8939661979675293,None,,,,,,,,,,,,,,,,,,,,,,,,,,,,,,,,,,,,,,,,,,,,,,,79,5,2025-02-21_13h29.24.439,comp,2024.2.4,60.08265421744219,2025-02-21 13h29.41.849708 -0500,
0,0,0,filler_square,None,None,None,None,None,None,None,None,None,None,3,2.8232626914978027,None,,,,,0,0,0,0,0,0,0,170,40.67319107055664,,,,,,,,,,,,,,,,,,,,,,,,,,,,,,,,,,,,,,,,,,,,,,,,,,,,,,,,,,,,,,,,,,,,,,,,,,,,,,,,,146.9486521836253,145.79397239108346,118.76513291952881,63.02450771425068,160.8227576195095,160.8227576195095,3.0,3.2,-200,-286,0,20,208,278,40.65923595428467,40.65928292274475,40.661316871643066,40.67319107055664,40.81919193267822,40.81919193267822,40.81919193267822,40.81919193267822,40.81919193267822,40.81919193267822,40.81919193267822,43.49772882461548,3,2.8232626914978027,None,,,,,,,,,,,,,,,,,,79,5,2025-02-21_13h29.24.439,comp,2024.2.4,60.08265421744219,2025-02-21 13h29.41.849708 -0500,
1,1,0,filler_random,None,None,None,None,None,None,None,None,None,None,3,4.07800817489624,None,,,,,0,0,0,0,0,1,1,156,43.5131311416626,,,,,,,,,,,,,,,,,,,,,,,,,,,,,,,,,,,,,,,,,,,,,,,,,,,,,,,,,,,,,,,,,,,,,,,,,,,,,,,,,142.8876266435031,90.18841890843,177.08441389075784,78.50523008718214,135.34742994461715,113.7080527309818,3.0,3.1,-180,255,0,-11,192,-258,43.49861764907837,43.49865698814392,43.50081133842468,43.5131311416626,43.66282510757446,43.66282510757446,43.66282510757446,43.66282510757446,43.66282510757446,43.66282510757446,43.66282510757446,47.59745717048645,3,4.07800817489624,None,,,,,,,,,,,,,,,,,,79,5,2025-02-21_13h29.24.439,comp,2024.2.4,60.08265421744219,2025-02-21 13h29.41.849708 -0500,
2,2,0,filler_random,None,None,None,None,None,None,None,None,None,None,2,7.9532554149627686,None,,,,,0,0,0,0,0,2,2,163,47.61291146278381,,,,,,,,,,,,,,,,,,,,,,,,,,,,,,,,,,,,,,,,,,,,,,,,,,,,,,,,,,,,,,,,,,,,,,,,,,,,,,,,,128.88521176675835,121.11857707243003,81.79829969583196,194.3067106010948,129.5492808934128,89.39382538160834,2.1,2.11,-254,286,0,260,238,-275,47.598384618759155,47.598427057266235,47.600515842437744,47.61291146278381,47.76338267326355,47.76338267326355,47.76338267326355,47.76338267326355,47.76338267326355,47.76338267326355,47.76338267326355,55.58063840866089,2,7.9532554149627686,None,,,,,,,,,,,,,,,,,,79,5,2025-02-21_13h29.24.439,comp,2024.2.4,60.08265421744219,2025-02-21 13h29.41.849708 -0500,
3,3,0,filler_random,None,None,None,None,None,None,None,None,None,None,3,4.13814377784729,None,,,,,0,0,0,0,0,3,3,132,55.596025466918945,,,,,,,,,,,,,,,,,,,,,,,,,,,,,,,,,,,,,,,,,,,,,,,,,,,,,,,,,,,,,,,,,,,,,,,,,,,,,,,,,179.63769215897224,115.07865610456815,122.55711539660977,78.92011597300353,143.44516754251057,159.6966258317841,2.2,2.21,-193,-261,0,286,215,276,55.58155560493469,55.58159518241882,55.584835052490234,55.596025466918945,55.74615406990051,55.74615406990051,55.74615406990051,55.74615406990051,55.74615406990051,55.74615406990051,55.74615406990051,59.74724888801575,3,4.13814377784729,None,,,,,,,,,,,,,,,,,,79,5,2025-02-21_13h29.24.439,comp,2024.2.4,60.08265421744219,2025-02-21 13h29.41.849708 -0500,
4,4,0,critical,wdh,20.0,2.1,lower,57.0,133.0,78.0,78.0,133.0,57.0,1,4.900383472442627,None,,,,,0,0,0,0,0,4,4,10,59.76260590553284,,,,,,,,,,,,,,,,,,,,,,,,,,,,,,,,,,,,,,,,,,,,,,,,,,,,,,,,,,,,,,,,,,,,,,,,,,,,,,,,,57.0,133.0,78.0,78.0,133.0,57.0,2.1,2.11,-202,263,0,280,164,-264,59.7480366230011,59.74807548522949,59.75059270858765,59.76260590553284,59.912798166275024,59.912798166275024,59.912798166275024,59.912798166275024,59.912798166275024,59.912798166275024,59.912798166275024,64.68046188354492,1,4.900383472442627,None,,,,,,,,,,,,,,,,,,79,5,2025-02-21_13h29.24.439,comp,2024.2.4,60.08265421744219,2025-02-21 13h29.41.849708 -0500,
5,5,0,critical,dhw,35.0,2.1,lower,70.0,70.0,133.0,57.0,57.0,133.0,3,1.0860540866851807,None,,,,,0,0,0,0,0,5,5,24,64.69591236114502,,,,,,,,,,,,,,,,,,,,,,,,,,,,,,,,,,,,,,,,,,,,,,,,,,,,,,,,,,,,,,,,,,,,,,,,,,,,,,,,,70.0,70.0,133.0,57.0,57.0,133.0,2.1,2.11,-160,259,0,260,191,-277,64.68128061294556,64.68132162094116,64.6834225654602,64.69591236114502,64.84594368934631,64.84594368934631,64.84594368934631,64.84594368934631,64.84594368934631,64.84594368934631,64.84594368934631,65.79699230194092,3,1.0860540866851807,None,,,,,,,,,,,,,,,,,,79,5,2025-02-21_13h29.24.439,comp,2024.2.4,60.08265421744219,2025-02-21 13h29.41.849708 -0500,
6,6,0,critical,hwd,20.0,4.0,upper,200.0,125.0,125.0,200.0,141.0,141.0,2,3.2506861686706543,None,,,,,0,0,0,0,0,6,6,107,65.81253552436829,,,,,,,,,,,,,,,,,,,,,,,,,,,,,,,,,,,,,,,,,,,,,,,,,,,,,,,,,,,,,,,,,,,,,,,,,,,,,,,,,200.0,125.0,125.0,200.0,141.0,141.0,4.0,4.2,-258,-14,0,-267,266,1,65.79774308204651,65.79778122901917,65.80016708374023,65.81253552436829,65.9628918170929,65.9628918170929,65.9628918170929,65.9628918170929,65.9628918170929,65.9628918170929,65.9628918170929,69.0805971622467,2,3.2506861686706543,None,,,,,,,,,,,,,,,,,,79,5,2025-02-21_13h29.24.439,comp,2024.2.4,60.08265421744219,2025-02-21 13h29.41.849708 -0500,
7,7,0,critical,dwh,20.0,3.0,upper,141.0,141.0,125.0,200.0,200.0,125.0,3,2.902172565460205,None,,,,,0,0,0,0,0,7,7,69,69.09581589698792,,,,,,,,,,,,,,,,,,,,,,,,,,,,,,,,,,,,,,,,,,,,,,,,,,,,,,,,,,,,,,,,,,,,,,,,,,,,,,,,,141.0,141.0,125.0,200.0,200.0,125.0,3.0,3.1,-266,286,0,-10,258,-271,69.08141446113586,69.08145570755005,69.08374261856079,69.09581589698792,69.24618792533875,69.24618792533875,69.24618792533875,69.24618792533875,69.24618792533875,69.24618792533875,69.24618792533875,72.0140426158905,3,2.902172565460205,None,,,,,,,,,,,,,,,,,,79,5,2025-02-21_13h29.24.439,comp,2024.2.4,60.08265421744219,2025-02-21 13h29.41.849708 -0500,
8,8,0,critical,wdh,20.0,1.0,upper,125.0,200.0,141.0,141.0,200.0,125.0,1,2.2725188732147217,None,,,,,0,0,0,0,0,8,8,79,72.02926182746887,,,,,,,,,,,,,,,,,,,,,,,,,,,,,,,,,,,,,,,,,,,,,,,,,,,,,,,,,,,,,,,,,,,,,,,,,,,,,,,,,125.0,200.0,141.0,141.0,200.0,125.0,1.0,1.3,214,-268,480,-274,709,-264,72.01486945152283,72.01490950584412,72.01704359054565,72.02926182746887,72.17944049835205,72.17944049835205,72.17944049835205,72.17944049835205,72.17944049835205,72.17944049835205,72.17944049835205,74.31433534622192,1,2.2725188732147217,None,,,,,,,,,,,,,,,,,,79,5,2025-02-21_13h29.24.439,comp,2024.2.4,60.08265421744219,2025-02-21 13h29.41.849708 -0500,
9,9,0,critical,wdh,35.0,4.0,lower,57.0,133.0,70.0,70.0,133.0,57.0,3,1.5256547927856445,None,,,,,0,0,0,0,0,9,9,76,74.32920145988464,,,,,,,,,,,,,,,,,,,,,,,,,,,,,,,,,,,,,,,,,,,,,,,,,,,,,,,,,,,,,,,,,,,,,,,,,,,,,,,,,57.0,133.0,70.0,70.0,133.0,57.0,4.0,4.1,-198,-286,0,2,160,-281,74.31511044502258,74.31515169143677,74.31757426261902,74.32920145988464,74.47924876213074,74.47924876213074,74.47924876213074,74.47924876213074,74.47924876213074,74.47924876213074,74.47924876213074,75.86362314224243,3,1.5256547927856445,None,,,,,,,,,,,,,,,,,,79,5,2025-02-21_13h29.24.439,comp,2024.2.4,60.08265421744219,2025-02-21 13h29.41.849708 -0500,
10,10,0,critical,whd,35.0,4.0,upper,125.0,200.0,200.0,125.0,127.0,127.0,1,2.0003576278686523,None,,,,,0,0,0,0,0,10,10,89,75.87925338745117,,,,,,,,,,,,,,,,,,,,,,,,,,,,,,,,,,,,,,,,,,,,,,,,,,,,,,,,,,,,,,,,,,,,,,,,,,,,,,,,,125.0,200.0,200.0,125.0,127.0,127.0,4.0,4.2,-258,-10,0,-288,222,-15,75.86441445350647,75.86445474624634,75.8667893409729,75.87925338745117,76.02943730354309,76.02943730354309,76.02943730354309,76.02943730354309,76.02943730354309,76.02943730354309,76.02943730354309,77.89717650413513,1,2.0003576278686523,None,,,,,,,,,,,,,,,,,,79,5,2025-02-21_13h29.24.439,comp,2024.2.4,60.08265421744219,2025-02-21 13h29.41.849708 -0500,
11,11,0,filler_square,None,None,None,None,None,None,None,None,None,None,3,1.9503519535064697,None,,,,,0,0,0,0,0,11,11,188,77.91253852844238,,,,,,,,,,,,,,,,,,,,,,,,,,,,,,,,,,,,,,,,,,,,,,,,,,,,,,,,,,,,,,,,,,,,,,,,,,,,,,,,,109.4303380728106,106.45375389443683,63.13613228554508,65.54747549716132,115.6094994613797,115.6094994613797,2.2,2.21,-182,-272,0,273,187,287,77.89822030067444,77.89826083183289,77.90034246444702,77.91253852844238,78.06255745887756,78.06255745887756,78.06255745887756,78.06255745887756,78.06255745887756,78.06255745887756,78.06255745887756,79.86408495903015,3,1.9503519535064697,None,,,,,,,,,,,,,,,,,,79,5,2025-02-21_13h29.24.439,comp,2024.2.4,60.08265421744219,2025-02-21 13h29.41.849708 -0500,
12,12,0,filler_square,None,None,None,None,None,None,None,None,None,None,3,1.3681309223175049,None,,,,,0,0,0,0,0,12,12,203,79.87949085235596,,,,,,,,,,,,,,,,,,,,,,,,,,,,,,,,,,,,,,,,,,,,,,,,,,,,,,,,,,,,,,,,,,,,,,,,,,,,,,,,,90.91894130695295,106.91529218586108,100.32000951706434,113.98891860945463,123.82262753193793,123.82262753193793,2.2,2.21,-206,-265,0,276,215,282,79.86507606506348,79.86511754989624,79.86791777610779,79.87949085235596,80.02937912940979,80.02937912940979,80.02937912940979,80.02937912940979,80.02937912940979,80.02937912940979,80.02937912940979,81.2638247013092,3,1.3681309223175049,None,,,,,,,,,,,,,,,,,,79,5,2025-02-21_13h29.24.439,comp,2024.2.4,60.08265421744219,2025-02-21 13h29.41.849708 -0500,
13,13,0,critical,hwd,35.0,2.1,upper,200.0,125.0,125.0,200.0,127.0,127.0,2,4.433085203170776,None,,,,,0,0,0,0,0,13,13,41,81.27916407585144,,,,,,,,,,,,,,,,,,,,,,,,,,,,,,,,,,,,,,,,,,,,,,,,,,,,,,,,,,,,,,,,,,,,,,,,,,,,,,,,,200.0,125.0,125.0,200.0,127.0,127.0,2.1,2.11,-258,284,0,255,260,-266,81.26459789276123,81.26463651657104,81.26702427864075,81.27916407585144,81.42934060096741,81.42934060096741,81.42934060096741,81.42934060096741,81.42934060096741,81.42934060096741,81.42934060096741,85.71397876739502,2,4.433085203170776,None,,,,,,,,,,,,,,,,,,79,5,2025-02-21_13h29.24.439,comp,2024.2.4,60.08265421744219,2025-02-21 13h29.41.849708 -0500,
14,14,0,catch,None,None,None,None,None,None,None,None,None,None,2,4.621212482452393,None,,,,,0,0,0,0,0,14,14,128,85.72929000854492,,,,,,,,,,,,,,,,,,,,,,,,,,,,,,,,,,,,,,,,,,,,,,,,,,,,,,,,,,,,,,,,,,,,,,,,,,,,,,,,,60,130,185,140,97,93,2.1,2.11,-231,275,0,289,212,-263,85.71500039100647,85.7150387763977,85.7170820236206,85.72929000854492,85.87929773330688,85.87929773330688,85.87929773330688,85.87929773330688,85.87929773330688,85.87929773330688,85.87929773330688,90.36371970176697,2,4.621212482452393,None,,,,,,,,,,,,,,,,,,79,5,2025-02-21_13h29.24.439,comp,2024.2.4,60.08265421744219,2025-02-21 13h29.41.849708 -0500,
15,15,0,critical,dwh,35.0,4.0,lower,70.0,70.0,57.0,133.0,133.0,57.0,2,1.3385400772094727,None,,,,,0,0,0,0,0,15,15,64,90.37904739379883,,,,,,,,,,,,,,,,,,,,,,,,,,,,,,,,,,,,,,,,,,,,,,,,,,,,,,,,,,,,,,,,,,,,,,,,,,,,,,,,,70.0,70.0,57.0,133.0,133.0,57.0,4.0,4.2,-198,3,0,-254,191,-18,90.36450505256653,90.36455988883972,90.36789464950562,90.37904739379883,90.52920198440552,90.52920198440552,90.52920198440552,90.52920198440552,90.52920198440552,90.52920198440552,90.52920198440552,91.73029375076294,2,1.3385400772094727,None,,,,,,,,,,,,,,,,,,79,5,2025-02-21_13h29.24.439,comp,2024.2.4,60.08265421744219,2025-02-21 13h29.41.849708 -0500,
16,16,0,critical,hwd,35.0,2.1,upper,200.0,125.0,125.0,200.0,127.0,127.0,1,1.3249459266662598,None,,,,,0,0,0,0,0,16,16,17,91.74576711654663,,,,,,,,,,,,,,,,,,,,,,,,,,,,,,,,,,,,,,,,,,,,,,,,,,,,,,,,,,,,,,,,,,,,,,,,,,,,,,,,,200.0,125.0,125.0,200.0,127.0,127.0,2.1,2.12,-258,-258,0,-264,260,288,91.73114323616028,91.7311840057373,91.73341655731201,91.74576711654663,91.89593815803528,91.89593815803528,91.89593815803528,91.89593815803528,91.89593815803528,91.89593815803528,91.89593815803528,93.08078670501709,1,1.3249459266662598,None,,,,,,,,,,,,,,,,,,79,5,2025-02-21_13h29.24.439,comp,2024.2.4,60.08265421744219,2025-02-21 13h29.41.849708 -0500,
17,17,0,critical,dhw,20.0,2.1,upper,141.0,141.0,200.0,125.0,125.0,200.0,3,4.654536008834839,None,,,,,0,0,0,0,0,17,17,27,93.09603714942932,,,,,,,,,,,,,,,,,,,,,,,,,,,,,,,,,,,,,,,,,,,,,,,,,,,,,,,,,,,,,,,,,,,,,,,,,,,,,,,,,141.0,141.0,200.0,125.0,125.0,200.0,2.1,2.12,-229,-272,0,-268,258,283,93.08161044120789,93.08165240287781,93.08374309539795,93.09603714942932,93.24601221084595,93.24601221084595,93.24601221084595,93.24601221084595,93.24601221084595,93.24601221084595,93.24601221084595,97.76383376121521,3,4.654536008834839,None,,,,,,,,,,,,,,,,,,79,5,2025-02-21_13h29.24.439,comp,2024.2.4,60.08265421744219,2025-02-21 13h29.41.849708 -0500,
18,18,0,critical,dwh,20.0,2.1,upper,141.0,141.0,125.0,200.0,200.0,125.0,3,7.738713264465332,None,,,,,0,0,0,0,0,18,18,31,97.77898001670837,,,,,,,,,,,,,,,,,,,,,,,,,,,,,,,,,,,,,,,,,,,,,,,,,,,,,,,,,,,,,,,,,,,,,,,,,,,,,,,,,141.0,141.0,125.0,200.0,200.0,125.0,2.1,2.12,-266,-266,0,-256,258,285,97.76464104652405,97.76468205451965,97.76677250862122,97.77898001670837,97.92968249320984,97.92968249320984,97.92968249320984,97.92968249320984,97.92968249320984,97.92968249320984,97.92968249320984,105.5304548740387,3,7.738713264465332,None,,,,,,,,,,,,,,,,,,79,5,2025-02-21_13h29.24.439,comp,2024.2.4,60.08265421744219,2025-02-21 13h29.41.849708 -0500,
19,19,0,critical,hdw,20.0,2.1,lower,133.0,57.0,78.0,78.0,57.0,133.0,1,3.004567861557007,None,,,,,0,0,0,0,0,19,19,46,105.54578042030334,,,,,,,,,,,,,,,,,,,,,,,,,,,,,,,,,,,,,,,,,,,,,,,,,,,,,,,,,,,,,,,,,,,,,,,,,,,,,,,,,133.0,57.0,78.0,78.0,57.0,133.0,2.1,2.12,-164,-284,0,-289,202,278,105.53125810623169,105.53129982948303,105.53390645980835,105.54578042030334,105.69592237472534,105.69592237472534,105.69592237472534,105.69592237472534,105.69592237472534,105.69592237472534,105.69592237472534,108.56344842910767,1,3.004567861557007,None,,,,,,,,,,,,,,,,,,79,5,2025-02-21_13h29.24.439,comp,2024.2.4,60.08265421744219,2025-02-21 13h29.41.849708 -0500,
20,20,0,critical,whd,20.0,2.1,upper,125.0,200.0,200.0,125.0,141.0,141.0,1,19.834613800048828,None,,,,,0,0,0,0,0,20,20,39,108.57892513275146,,,,,,,,,,,,,,,,,,,,,,,,,,,,,,,,,,,,,,,,,,,,,,,,,,,,,,,,,,,,,,,,,,,,,,,,,,,,,,,,,125.0,200.0,200.0,125.0,141.0,141.0,2.1,2.12,-258,-277,0,-288,229,263,108.56427121162415,108.56431150436401,108.56636238098145,108.57892513275146,108.72917652130127,108.72917652130127,108.72917652130127,108.72917652130127,108.72917652130127,108.72917652130127,108.72917652130127,128.4302897453308,1,19.834613800048828,None,,,,,,,,,,,,,,,,,,79,5,2025-02-21_13h29.24.439,comp,2024.2.4,60.08265421744219,2025-02-21 13h29.41.849708 -0500,
21,21,0,critical,whd,20.0,2.1,upper,125.0,200.0,200.0,125.0,141.0,141.0,1,2.5608325004577637,None,,,,,0,0,0,0,0,21,21,15,128.44556140899658,,,,,,,,,,,,,,,,,,,,,,,,,,,,,,,,,,,,,,,,,,,,,,,,,,,,,,,,,,,,,,,,,,,,,,,,,,,,,,,,,125.0,200.0,200.0,125.0,141.0,141.0,2.1,2.11,-258,269,0,280,229,-273,128.43114042282104,128.4311809539795,128.43367552757263,128.44556140899658,128.59578824043274,128.59578824043274,128.59578824043274,128.59578824043274,128.59578824043274,128.59578824043274,128.59578824043274,131.01353335380554,1,2.5608325004577637,None,,,,,,,,,,,,,,,,,,79,5,2025-02-21_13h29.24.439,comp,2024.2.4,60.08265421744219,2025-02-21 13h29.41.849708 -0500,
22,22,0,critical,hdw,20.0,1.0,lower,133.0,57.0,78.0,78.0,57.0,133.0,3,4.504475355148315,None,,,,,0,0,0,0,0,22,22,114,131.0290298461914,,,,,,,,,,,,,,,,,,,,,,,,,,,,,,,,,,,,,,,,,,,,,,,,,,,,,,,,,,,,,,,,,,,,,,,,,,,,,,,,,133.0,57.0,78.0,78.0,57.0,133.0,1.0,1.1,-644,276,-480,278,-278,258,131.01432728767395,131.0143702030182,131.01663661003113,131.0290298461914,131.17877507209778,131.17877507209778,131.17877507209778,131.17877507209778,131.17877507209778,131.17877507209778,131.17877507209778,135.54678964614868,3,4.504475355148315,None,,,,,,,,,,,,,,,,,,79,5,2025-02-21_13h29.24.439,comp,2024.2.4,60.08265421744219,2025-02-21 13h29.41.849708 -0500,
23,23,0,critical,wdh,35.0,4.0,upper,125.0,200.0,127.0,127.0,200.0,125.0,1,5.0192108154296875,None,,,,,0,0,0,0,0,23,23,77,135.56211185455322,,,,,,,,,,,,,,,,,,,,,,,,,,,,,,,,,,,,,,,,,,,,,,,,,,,,,,,,,,,,,,,,,,,,,,,,,,,,,,,,,125.0,200.0,127.0,127.0,200.0,125.0,4.0,4.2,-260,-4,0,-264,222,9,135.54759526252747,135.54763460159302,135.55001640319824,135.56211185455322,135.7122802734375,135.7122802734375,135.7122802734375,135.7122802734375,135.7122802734375,135.7122802734375,135.7122802734375,140.5967893600464,1,5.0192108154296875,None,,,,,,,,,,,,,,,,,,79,5,2025-02-21_13h29.24.439,comp,2024.2.4,60.08265421744219,2025-02-21 13h29.41.849708 -0500,
24,24,0,filler_square,None,None,None,None,None,None,None,None,None,None,3,2.1213815212249756,None,,,,,0,0,0,0,0,24,24,181,140.6120285987854,,,,,,,,,,,,,,,,,,,,,,,,,,,,,,,,,,,,,,,,,,,,,,,,,,,,,,,,,,,,,,,,,,,,,,,,,,,,,,,,,79.76368809128502,79.76368809128502,74.11309861608348,66.92431549698102,74.28354510130715,78.23592516476756,3.0,3.1,-169,261,0,3,169,-269,140.59777283668518,140.59781312942505,140.60015726089478,140.6120285987854,140.7621555328369,140.7621555328369,140.7621555328369,140.7621555328369,140.7621555328369,140.7621555328369,140.7621555328369,142.746497631073,3,2.1213815212249756,None,,,,,,,,,,,,,,,,,,79,5,2025-02-21_13h29.24.439,comp,2024.2.4,60.08265421744219,2025-02-21 13h29.41.849708 -0500,
25,25,0,filler_random,None,None,None,None,None,None,None,None,None,None,1,1.3336830139160156,None,,,,,0,0,0,0,0,25,25,133,142.76199197769165,,,,,,,,,,,,,,,,,,,,,,,,,,,,,,,,,,,,,,,,,,,,,,,,,,,,,,,,,,,,,,,,,,,,,,,,,,,,,,,,,191.7632151145963,157.1135510204623,99.18000214137737,75.84719360428062,149.0054749191719,129.3434268954982,2.2,2.21,-212,-262,0,252,199,254,142.7474148273468,142.74745535850525,142.74981570243835,142.76199197769165,142.91232585906982,142.91232585906982,142.91232585906982,142.91232585906982,142.91232585906982,142.91232585906982,142.91232585906982,144.11333751678467,1,1.3336830139160156,None,,,,,,,,,,,,,,,,,,79,5,2025-02-21_13h29.24.439,comp,2024.2.4,60.08265421744219,2025-02-21 13h29.41.849708 -0500,
26,26,0,critical,dwh,35.0,1.0,upper,127.0,127.0,125.0,200.0,200.0,125.0,3,1.445915699005127,None,,,,,0,0,0,0,0,26,26,61,144.12862968444824,,,,,,,,,,,,,,,,,,,,,,,,,,,,,,,,,,,,,,,,,,,,,,,,,,,,,,,,,,,,,,,,,,,,,,,,,,,,,,,,,127.0,127.0,125.0,200.0,200.0,125.0,1.0,1.1,-740,287,-480,284,-222,255,144.1141266822815,144.11416673660278,144.11668372154236,144.12862968444824,144.27923440933228,144.27923440933228,144.27923440933228,144.27923440933228,144.27923440933228,144.27923440933228,144.27923440933228,145.58030724525452,3,1.445915699005127,None,,,,,,,,,,,,,,,,,,79,5,2025-02-21_13h29.24.439,comp,2024.2.4,60.08265421744219,2025-02-21 13h29.41.849708 -0500,
27,27,0,critical,dhw,35.0,1.0,lower,70.0,70.0,133.0,57.0,57.0,133.0,3,1.9638481140136719,None,,,,,0,0,0,0,0,27,27,48,145.59568190574646,,,,,,,,,,,,,,,,,,,,,,,,,,,,,,,,,,,,,,,,,,,,,,,,,,,,,,,,,,,,,,,,,,,,,,,,,,,,,,,,,70.0,70.0,133.0,57.0,57.0,133.0,1.0,1.2,-160,-13,0,-3,191,-1,145.5811266899109,145.5811686515808,145.58323645591736,145.59568190574646,145.74544405937195,145.74544405937195,145.74544405937195,145.74544405937195,145.74544405937195,145.74544405937195,145.74544405937195,147.5633339881897,3,1.9638481140136719,None,,,,,,,,,,,,,,,,,,79,5,2025-02-21_13h29.24.439,comp,2024.2.4,60.08265421744219,2025-02-21 13h29.41.849708 -0500,
28,28,0,filler_random,None,None,None,None,None,None,None,None,None,None,2,2.650736093521118,None,,,,,0,0,0,0,0,28,28,165,147.57884573936462,,,,,,,,,,,,,,,,,,,,,,,,,,,,,,,,,,,,,,,,,,,,,,,,,,,,,,,,,,,,,,,,,,,,,,,,,,,,,,,,,188.87256285694764,106.09873735916185,175.29539926922942,170.75345214484668,160.2542995011798,180.7018451543072,2.1,2.12,-234,-283,0,-272,272,264,147.56422686576843,147.56426763534546,147.56672835350037,147.57884573936462,147.72894883155823,147.72894883155823,147.72894883155823,147.72894883155823,147.72894883155823,147.72894883155823,147.72894883155823,150.2467906475067,2,2.650736093521118,None,,,,,,,,,,,,,,,,,,79,5,2025-02-21_13h29.24.439,comp,2024.2.4,60.08265421744219,2025-02-21 13h29.41.849708 -0500,
29,29,0,critical,dhw,35.0,1.0,upper,127.0,127.0,200.0,125.0,125.0,200.0,3,1.9281487464904785,None,,,,,0,0,0,0,0,29,29,49,150.2620129585266,,,,,,,,,,,,,,,,,,,,,,,,,,,,,,,,,,,,,,,,,,,,,,,,,,,,,,,,,,,,,,,,,,,,,,,,,,,,,,,,,127.0,127.0,200.0,125.0,125.0,200.0,1.0,1.2,-222,-7,0,18,258,-3,150.24760460853577,150.2476451396942,150.2497296333313,150.2620129585266,150.4122393131256,150.4122393131256,150.4122393131256,150.4122393131256,150.4122393131256,150.4122393131256,150.4122393131256,152.19674801826477,3,1.9281487464904785,None,,,,,,,,,,,,,,,,,,79,5,2025-02-21_13h29.24.439,comp,2024.2.4,60.08265421744219,2025-02-21 13h29.41.849708 -0500,
30,30,0,critical,hdw,35.0,4.0,lower,133.0,57.0,70.0,70.0,57.0,133.0,3,5.050037860870361,None,,,,,0,0,0,0,0,30,30,112,152.21223950386047,,,,,,,,,,,,,,,,,,,,,,,,,,,,,,,,,,,,,,,,,,,,,,,,,,,,,,,,,,,,,,,,,,,,,,,,,,,,,,,,,133.0,57.0,70.0,70.0,57.0,133.0,4.0,4.2,-160,-3,0,-282,198,16,152.19757533073425,152.19761657714844,152.2001438140869,152.21223950386047,152.36198329925537,152.36198329925537,152.36198329925537,152.36198329925537,152.36198329925537,152.36198329925537,152.36198329925537,157.27977681159973,3,5.050037860870361,None,,,,,,,,,,,,,,,,,,79,5,2025-02-21_13h29.24.439,comp,2024.2.4,60.08265421744219,2025-02-21 13h29.41.849708 -0500,
31,31,0,critical,dwh,20.0,4.0,lower,78.0,78.0,57.0,133.0,133.0,57.0,2,4.7341156005859375,None,,,,,0,0,0,0,0,31,31,70,157.29519295692444,,,,,,,,,,,,,,,,,,,,,,,,,,,,,,,,,,,,,,,,,,,,,,,,,,,,,,,,,,,,,,,,,,,,,,,,,,,,,,,,,78.0,78.0,57.0,133.0,133.0,57.0,4.0,4.1,-202,-287,0,5,191,-268,157.2805552482605,157.280597448349,157.2829978466034,157.29519295692444,157.44534373283386,157.44534373283386,157.44534373283386,157.44534373283386,157.44534373283386,157.44534373283386,157.44534373283386,162.0463900566101,2,4.7341156005859375,None,,,,,,,,,,,,,,,,,,79,5,2025-02-21_13h29.24.439,comp,2024.2.4,60.08265421744219,2025-02-21 13h29.41.849708 -0500,
32,32,0,filler_random,None,None,None,None,None,None,None,None,None,None,1,1.1602368354797363,None,,,,,0,0,0,0,0,32,32,143,162.06189680099487,,,,,,,,,,,,,,,,,,,,,,,,,,,,,,,,,,,,,,,,,,,,,,,,,,,,,,,,,,,,,,,,,,,,,,,,,,,,,,,,,165.2378759495213,160.29062303098019,127.6979080657149,155.73151795468502,154.93377464929284,66.02129423532004,2.1,2.11,-254,277,0,272,207,-267,162.0473029613495,162.0473437309265,162.04939818382263,162.06189680099487,162.2121183872223,162.2121183872223,162.2121183872223,162.2121183872223,162.2121183872223,162.2121183872223,162.2121183872223,163.22985744476318,1,1.1602368354797363,None,,,,,,,,,,,,,,,,,,79,5,2025-02-21_13h29.24.439,comp,2024.2.4,60.08265421744219,2025-02-21 13h29.41.849708 -0500,
33,33,0,critical,wdh,20.0,2.1,upper,125.0,200.0,141.0,141.0,200.0,125.0,1,3.600419044494629,None,,,,,0,0,0,0,0,33,33,11,163.2454628944397,,,,,,,,,,,,,,,,,,,,,,,,,,,,,,,,,,,,,,,,,,,,,,,,,,,,,,,,,,,,,,,,,,,,,,,,,,,,,,,,,125.0,200.0,141.0,141.0,200.0,125.0,2.1,2.11,-266,261,0,250,229,-252,163.2306478023529,163.2306888103485,163.23298144340515,163.2454628944397,163.39551305770874,163.39551305770874,163.39551305770874,163.39551305770874,163.39551305770874,163.39551305770874,163.39551305770874,166.84700274467468,1,3.600419044494629,None,,,,,,,,,,,,,,,,,,79,5,2025-02-21_13h29.24.439,comp,2024.2.4,60.08265421744219,2025-02-21 13h29.41.849708 -0500,
34,34,0,critical,whd,35.0,2.1,upper,125.0,200.0,200.0,125.0,127.0,127.0,2,6.68781852722168,None,,,,,0,0,0,0,0,34,34,37,166.86206531524658,,,,,,,,,,,,,,,,,,,,,,,,,,,,,,,,,,,,,,,,,,,,,,,,,,,,,,,,,,,,,,,,,,,,,,,,,,,,,,,,,125.0,200.0,200.0,125.0,127.0,127.0,2.1,2.11,-258,270,0,272,222,-286,166.8479664325714,166.8480246067047,166.8506076335907,166.86206531524658,167.0121192932129,167.0121192932129,167.0121192932129,167.0121192932129,167.0121192932129,167.0121192932129,167.0121192932129,173.563227891922,2,6.68781852722168,None,,,,,,,,,,,,,,,,,,79,5,2025-02-21_13h29.24.439,comp,2024.2.4,60.08265421744219,2025-02-21 13h29.41.849708 -0500,
35,35,0,critical,wdh,20.0,2.1,upper,125.0,200.0,141.0,141.0,200.0,125.0,1,0.7868585586547852,None,,,,,0,0,0,0,0,35,35,35,173.578467130661,,,,,,,,,,,,,,,,,,,,,,,,,,,,,,,,,,,,,,,,,,,,,,,,,,,,,,,,,,,,,,,,,,,,,,,,,,,,,,,,,125.0,200.0,141.0,141.0,200.0,125.0,2.1,2.11,-266,280,0,252,229,-251,173.5640163421631,173.5640561580658,173.56655645370483,173.578467130661,173.72884368896484,173.72884368896484,173.72884368896484,173.72884368896484,173.72884368896484,173.72884368896484,173.72884368896484,174.3798384666443,1,0.7868585586547852,None,,,,,,,,,,,,,,,,,,79,5,2025-02-21_13h29.24.439,comp,2024.2.4,60.08265421744219,2025-02-21 13h29.41.849708 -0500,
36,36,0,filler_square,None,None,None,None,None,None,None,None,None,None,3,1.5948278903961182,None,,,,,0,0,0,0,0,36,36,205,174.39517259597778,,,,,,,,,,,,,,,,,,,,,,,,,,,,,,,,,,,,,,,,,,,,,,,,,,,,,,,,,,,,,,,,,,,,,,,,,,,,,,,,,101.23994458774679,154.46444982698168,87.44991574058261,140.84532858029144,173.69982598232377,173.69982598232377,2.2,2.21,-244,-253,0,264,253,251,174.38080716133118,174.3808491230011,174.38322806358337,174.39517259597778,174.5453817844391,174.5453817844391,174.5453817844391,174.5453817844391,174.5453817844391,174.5453817844391,174.5453817844391,175.99651265144348,3,1.5948278903961182,None,,,,,,,,,,,,,,,,,,79,5,2025-02-21_13h29.24.439,comp,2024.2.4,60.08265421744219,2025-02-21 13h29.41.849708 -0500,
37,37,0,critical,whd,20.0,4.0,upper,125.0,200.0,200.0,125.0,141.0,141.0,1,3.458359956741333,None,,,,,0,0,0,0,0,37,37,95,176.0120255947113,,,,,,,,,,,,,,,,,,,,,,,,,,,,,,,,,,,,,,,,,,,,,,,,,,,,,,,,,,,,,,,,,,,,,,,,,,,,,,,,,125.0,200.0,200.0,125.0,141.0,141.0,4.0,4.2,-258,-12,0,-287,229,9,175.99728846549988,175.99732899665833,175.9994978904724,176.0120255947113,176.16223812103271,176.16223812103271,176.16223812103271,176.16223812103271,176.16223812103271,176.16223812103271,176.16223812103271,179.47986817359924,1,3.458359956741333,None,,,,,,,,,,,,,,,,,,79,5,2025-02-21_13h29.24.439,comp,2024.2.4,60.08265421744219,2025-02-21 13h29.41.849708 -0500,
38,38,0,critical,dhw,35.0,3.0,upper,127.0,127.0,200.0,125.0,125.0,200.0,3,1.205509901046753,None,,,,,0,0,0,0,0,38,38,51,179.49545168876648,,,,,,,,,,,,,,,,,,,,,,,,,,,,,,,,,,,,,,,,,,,,,,,,,,,,,,,,,,,,,,,,,,,,,,,,,,,,,,,,,127.0,127.0,200.0,125.0,125.0,200.0,3.0,3.1,-222,279,0,18,258,-274,179.48067164421082,179.48071336746216,179.48303413391113,179.49545168876648,179.64568948745728,179.64568948745728,179.64568948745728,179.64568948745728,179.64568948745728,179.64568948745728,179.64568948745728,180.71329975128174,3,1.205509901046753,None,,,,,,,,,,,,,,,,,,79,5,2025-02-21_13h29.24.439,comp,2024.2.4,60.08265421744219,2025-02-21 13h29.41.849708 -0500,
39,39,0,filler_random,None,None,None,None,None,None,None,None,None,None,3,1.9991223812103271,None,,,,,0,0,0,0,0,39,39,160,180.72845935821533,,,,,,,,,,,,,,,,,,,,,,,,,,,,,,,,,,,,,,,,,,,,,,,,,,,,,,,,,,,,,,,,,,,,,,,,,,,,,,,,,94.53182721570175,130.22341153333576,69.15116193754504,162.7414298608429,164.07952792539356,88.2895754206672,2.1,2.12,-242,-274,0,-272,222,250,180.71422362327576,180.7142674922943,180.71680641174316,180.72845935821533,180.8787043094635,180.8787043094635,180.8787043094635,180.8787043094635,180.8787043094635,180.8787043094635,180.8787043094635,182.7298982143402,3,1.9991223812103271,None,,,,,,,,,,,,,,,,,,79,5,2025-02-21_13h29.24.439,comp,2024.2.4,60.08265421744219,2025-02-21 13h29.41.849708 -0500,
40,40,0,filler_square,None,None,None,None,None,None,None,None,None,None,2,1.924802303314209,None,,,,,0,0,0,0,0,40,40,185,182.74541401863098,,,,,,,,,,,,,,,,,,,,,,,,,,,,,,,,,,,,,,,,,,,,,,,,,,,,,,,,,,,,,,,,,,,,,,,,,,,,,,,,,174.87201250564283,179.70879216082363,181.4745273131456,181.4745273131456,144.70470735140722,80.41784043456168,3.0,3.1,-277,280,0,-18,227,-258,182.73086309432983,182.73090314865112,182.7330198287964,182.74541401863098,182.89546060562134,182.89546060562134,182.89546060562134,182.89546060562134,182.89546060562134,182.89546060562134,182.89546060562134,184.67983675003052,2,1.924802303314209,None,,,,,,,,,,,,,,,,,,79,5,2025-02-21_13h29.24.439,comp,2024.2.4,60.08265421744219,2025-02-21 13h29.41.849708 -0500,
41,41,0,critical,dwh,35.0,2.1,lower,70.0,70.0,57.0,133.0,133.0,57.0,2,2.9177424907684326,None,,,,,0,0,0,0,0,41,41,28,184.69534254074097,,,,,,,,,,,,,,,,,,,,,,,,,,,,,,,,,,,,,,,,,,,,,,,,,,,,,,,,,,,,,,,,,,,,,,,,,,,,,,,,,70.0,70.0,57.0,133.0,133.0,57.0,2.1,2.12,-198,-272,0,-264,191,253,184.68066811561584,184.68071055412292,184.68313360214233,184.69534254074097,184.84510445594788,184.84510445594788,184.84510445594788,184.84510445594788,184.84510445594788,184.84510445594788,184.84510445594788,187.62946200370789,2,2.9177424907684326,None,,,,,,,,,,,,,,,,,,79,5,2025-02-21_13h29.24.439,comp,2024.2.4,60.08265421744219,2025-02-21 13h29.41.849708 -0500,
42,42,0,critical,wdh,35.0,3.0,upper,125.0,200.0,127.0,127.0,200.0,125.0,1,2.0016896724700928,None,,,,,0,0,0,0,0,42,42,75,187.64501285552979,,,,,,,,,,,,,,,,,,,,,,,,,,,,,,,,,,,,,,,,,,,,,,,,,,,,,,,,,,,,,,,,,,,,,,,,,,,,,,,,,125.0,200.0,127.0,127.0,200.0,125.0,3.0,3.2,-260,-256,0,-14,222,263,187.63024377822876,187.63028192520142,187.63244533538818,187.64501285552979,187.79533672332764,187.79533672332764,187.79533672332764,187.79533672332764,187.79533672332764,187.79533672332764,187.79533672332764,189.66358160972595,1,2.0016896724700928,None,,,,,,,,,,,,,,,,,,79,5,2025-02-21_13h29.24.439,comp,2024.2.4,60.08265421744219,2025-02-21 13h29.41.849708 -0500,
43,43,0,catch,None,None,None,None,None,None,None,None,None,None,1,1.3670129776000977,None,,,,,0,0,0,0,0,43,43,129,189.6785192489624,,,,,,,,,,,,,,,,,,,,,,,,,,,,,,,,,,,,,,,,,,,,,,,,,,,,,,,,,,,,,,,,,,,,,,,,,,,,,,,,,139,186,104,86,131,59,1.0,1.1,-712,278,-480,268,-312,280,189.66499376296997,189.6650357246399,189.66698598861694,189.6785192489624,189.828626871109,189.828626871109,189.828626871109,189.828626871109,189.828626871109,189.828626871109,189.828626871109,191.0629107952118,1,1.3670129776000977,None,,,,,,,,,,,,,,,,,,79,5,2025-02-21_13h29.24.439,comp,2024.2.4,60.08265421744219,2025-02-21 13h29.41.849708 -0500,
44,44,0,filler_random,None,None,None,None,None,None,None,None,None,None,2,3.68011212348938,None,,,,,0,0,0,0,0,44,44,168,191.07844042778015,,,,,,,,,,,,,,,,,,,,,,,,,,,,,,,,,,,,,,,,,,,,,,,,,,,,,,,,,,,,,,,,,,,,,,,,,,,,,,,,,109.00801914407549,119.97286661473328,140.5602451358365,114.82754023057362,70.61723599955307,116.71044462241593,1.0,1.2,-213,4,0,19,212,1,191.06380987167358,191.06385111808777,191.06628513336182,191.07844042778015,191.2286205291748,191.2286205291748,191.2286205291748,191.2286205291748,191.2286205291748,191.2286205291748,191.2286205291748,194.76322197914124,2,3.68011212348938,None,,,,,,,,,,,,,,,,,,79,5,2025-02-21_13h29.24.439,comp,2024.2.4,60.08265421744219,2025-02-21 13h29.41.849708 -0500,
45,45,0,critical,hwd,35.0,1.0,lower,133.0,57.0,57.0,133.0,70.0,70.0,2,3.1806552410125732,None,,,,,0,0,0,0,0,45,45,96,194.7785940170288,,,,,,,,,,,,,,,,,,,,,,,,,,,,,,,,,,,,,,,,,,,,,,,,,,,,,,,,,,,,,,,,,,,,,,,,,,,,,,,,,133.0,57.0,57.0,133.0,70.0,70.0,1.0,1.1,-671,264,-480,272,-282,274,194.76404428482056,194.7640860080719,194.76648378372192,194.7785940170288,194.92851209640503,194.92851209640503,194.92851209640503,194.92851209640503,194.92851209640503,194.92851209640503,194.92851209640503,197.9628939628601,2,3.1806552410125732,None,,,,,,,,,,,,,,,,,,79,5,2025-02-21_13h29.24.439,comp,2024.2.4,60.08265421744219,2025-02-21 13h29.41.849708 -0500,
46,46,0,filler_random,None,None,None,None,None,None,None,None,None,None,3,3.234541893005371,None,,,,,0,0,0,0,0,46,46,131,197.97847151756287,,,,,,,,,,,,,,,,,,,,,,,,,,,,,,,,,,,,,,,,,,,,,,,,,,,,,,,,,,,,,,,,,,,,,,,,,,,,,,,,,199.12554035734848,117.7384527335665,191.15160574649644,159.71688796177727,197.34827183145254,146.7334960035903,3.0,3.1,-235,281,0,-2,249,-251,197.96387934684753,197.96391916275024,197.96648049354553,197.97847151756287,198.12876772880554,198.12876772880554,198.12876772880554,198.12876772880554,198.12876772880554,198.12876772880554,198.12876772880554,201.2298560142517,3,3.234541893005371,None,,,,,,,,,,,,,,,,,,79,5,2025-02-21_13h29.24.439,comp,2024.2.4,60.08265421744219,2025-02-21 13h29.41.849708 -0500,
47,47,0,critical,wdh,35.0,2.1,upper,125.0,200.0,127.0,127.0,200.0,125.0,1,1.367936134338379,None,,,,,0,0,0,0,0,47,47,9,201.2450544834137,,,,,,,,,,,,,,,,,,,,,,,,,,,,,,,,,,,,,,,,,,,,,,,,,,,,,,,,,,,,,,,,,,,,,,,,,,,,,,,,,125.0,200.0,127.0,127.0,200.0,125.0,2.1,2.12,-260,-262,0,-277,222,269,201.2306671142578,201.23070764541626,201.2328007221222,201.2450544834137,201.41206860542297,201.41206860542297,201.41206860542297,201.41206860542297,201.41206860542297,201.41206860542297,201.41206860542297,202.62979793548584,1,1.367936134338379,None,,,,,,,,,,,,,,,,,,79,5,2025-02-21_13h29.24.439,comp,2024.2.4,60.08265421744219,2025-02-21 13h29.41.849708 -0500,
48,48,0,critical,wdh,35.0,2.1,lower,57.0,133.0,70.0,70.0,133.0,57.0,3,2.144680976867676,None,,,,,0,0,0,0,0,48,48,32,202.64503240585327,,,,,,,,,,,,,,,,,,,,,,,,,,,,,,,,,,,,,,,,,,,,,,,,,,,,,,,,,,,,,,,,,,,,,,,,,,,,,,,,,57.0,133.0,70.0,70.0,133.0,57.0,2.1,2.11,-198,284,0,290,160,-253,202.63061499595642,202.63065600395203,202.63274097442627,202.64503240585327,202.79501628875732,202.79501628875732,202.79501628875732,202.79501628875732,202.79501628875732,202.79501628875732,202.79501628875732,204.79616522789001,3,2.144680976867676,None,,,,,,,,,,,,,,,,,,79,5,2025-02-21_13h29.24.439,comp,2024.2.4,60.08265421744219,2025-02-21 13h29.41.849708 -0500,
49,49,0,critical,hdw,20.0,3.0,upper,200.0,125.0,141.0,141.0,125.0,200.0,3,1.6100637912750244,None,,,,,0,0,0,0,0,49,49,117,204.81177234649658,,,,,,,,,,,,,,,,,,,,,,,,,,,,,,,,,,,,,,,,,,,,,,,,,,,,,,,,,,,,,,,,,,,,,,,,,,,,,,,,,200.0,125.0,141.0,141.0,125.0,200.0,3.0,3.2,-229,-276,0,-12,266,265,204.7969515323639,204.7969934940338,204.799480676651,204.81177234649658,204.9618558883667,204.9618558883667,204.9618558883667,204.9618558883667,204.9618558883667,204.9618558883667,204.9618558883667,206.4297740459442,3,1.6100637912750244,None,,,,,,,,,,,,,,,,,,79,5,2025-02-21_13h29.24.439,comp,2024.2.4,60.08265421744219,2025-02-21 13h29.41.849708 -0500,
50,50,0,critical,dhw,20.0,2.1,lower,78.0,78.0,133.0,57.0,57.0,133.0,2,2.008526563644409,None,,,,,0,0,0,0,0,50,50,2,206.44522643089294,,,,,,,,,,,,,,,,,,,,,,,,,,,,,,,,,,,,,,,,,,,,,,,,,,,,,,,,,,,,,,,,,,,,,,,,,,,,,,,,,78.0,78.0,133.0,57.0,57.0,133.0,2.1,2.12,-164,-274,0,-254,191,277,206.43057131767273,206.4306116104126,206.43275237083435,206.44522643089294,206.59499859809875,206.59499859809875,206.59499859809875,206.59499859809875,206.59499859809875,206.59499859809875,206.59499859809875,208.46269345283508,2,2.008526563644409,None,,,,,,,,,,,,,,,,,,79,5,2025-02-21_13h29.24.439,comp,2024.2.4,60.08265421744219,2025-02-21 13h29.41.849708 -0500,
51,51,0,filler_random,None,None,None,None,None,None,None,None,None,None,2,4.1505327224731445,None,,,,,0,0,0,0,0,51,51,138,208.47843480110168,,,,,,,,,,,,,,,,,,,,,,,,,,,,,,,,,,,,,,,,,,,,,,,,,,,,,,,,,,,,,,,,,,,,,,,,,,,,,,,,,88.04609821687623,161.83741297824747,75.30394717276523,190.35840698976833,142.28212472016145,74.4319550774905,3.0,3.1,-272,275,0,-5,228,-289,208.46370267868042,208.46374416351318,208.46622800827026,208.47843480110168,208.6283519268036,208.6283519268036,208.6283519268036,208.6283519268036,208.6283519268036,208.6283519268036,208.6283519268036,212.64614486694336,2,4.1505327224731445,None,,,,,,,,,,,,,,,,,,79,5,2025-02-21_13h29.24.439,comp,2024.2.4,60.08265421744219,2025-02-21 13h29.41.849708 -0500,
52,52,0,catch,None,None,None,None,None,None,None,None,None,None,1,1.2004101276397705,None,,,,,0,0,0,0,0,52,52,127,212.66153693199158,,,,,,,,,,,,,,,,,,,,,,,,,,,,,,,,,,,,,,,,,,,,,,,,,,,,,,,,,,,,,,,,,,,,,,,,,,,,,,,,,133,192,115,75,65,125,3.0,3.2,-230,-263,0,-7,196,285,212.6471927165985,212.6472327709198,212.64976048469543,212.66153693199158,212.8116672039032,212.8116672039032,212.8116672039032,212.8116672039032,212.8116672039032,212.8116672039032,212.8116672039032,213.8630428314209,1,1.2004101276397705,None,,,,,,,,,,,,,,,,,,79,5,2025-02-21_13h29.24.439,comp,2024.2.4,60.08265421744219,2025-02-21 13h29.41.849708 -0500,
53,53,0,critical,hwd,35.0,3.0,lower,133.0,57.0,57.0,133.0,70.0,70.0,2,1.6167545318603516,None,,,,,0,0,0,0,0,53,53,98,213.87830638885498,,,,,,,,,,,,,,,,,,,,,,,,,,,,,,,,,,,,,,,,,,,,,,,,,,,,,,,,,,,,,,,,,,,,,,,,,,,,,,,,,133.0,57.0,57.0,133.0,70.0,70.0,3.0,3.2,-191,-269,0,-9,198,251,213.8638412952423,213.86388421058655,213.86600852012634,213.87830638885498,214.0283100605011,214.0283100605011,214.0283100605011,214.0283100605011,214.0283100605011,214.0283100605011,214.0283100605011,215.51300263404846,2,1.6167545318603516,None,,,,,,,,,,,,,,,,,,79,5,2025-02-21_13h29.24.439,comp,2024.2.4,60.08265421744219,2025-02-21 13h29.41.849708 -0500,
54,54,0,filler_square,None,None,None,None,None,None,None,None,None,None,1,1.4297168254852295,None,,,,,0,0,0,0,0,54,54,173,215.52820444107056,,,,,,,,,,,,,,,,,,,,,,,,,,,,,,,,,,,,,,,,,,,,,,,,,,,,,,,,,,,,,,,,,,,,,,,,,,,,,,,,,199.05007620020228,199.05007620020228,90.11058566306713,157.01802940920277,138.53884027327615,179.34479221704188,2.1,2.12,-274,-255,0,-285,264,268,215.51398396492004,215.51402688026428,215.51639890670776,215.52820444107056,215.67882823944092,215.67882823944092,215.67882823944092,215.67882823944092,215.67882823944092,215.67882823944092,215.67882823944092,216.96313548088074,1,1.4297168254852295,None,,,,,,,,,,,,,,,,,,79,5,2025-02-21_13h29.24.439,comp,2024.2.4,60.08265421744219,2025-02-21 13h29.41.849708 -0500,
55,55,0,critical,dhw,20.0,4.0,upper,141.0,141.0,200.0,125.0,125.0,200.0,3,24.786375284194946,None,,,,,0,0,0,0,0,55,55,59,216.97843885421753,,,,,,,,,,,,,,,,,,,,,,,,,,,,,,,,,,,,,,,,,,,,,,,,,,,,,,,,,,,,,,,,,,,,,,,,,,,,,,,,,141.0,141.0,200.0,125.0,125.0,200.0,4.0,4.2,-229,8,0,-289,258,10,216.96392464637756,216.96396613121033,216.96640920639038,216.97843885421753,217.12849760055542,217.12849760055542,217.12849760055542,217.12849760055542,217.12849760055542,217.12849760055542,217.12849760055542,241.77937388420105,3,24.786375284194946,None,,,,,,,,,,,,,,,,,,79,5,2025-02-21_13h29.24.439,comp,2024.2.4,60.08265421744219,2025-02-21 13h29.41.849708 -0500,
56,56,0,critical,wdh,20.0,3.0,upper,125.0,200.0,141.0,141.0,200.0,125.0,1,2.9948666095733643,None,,,,,0,0,0,0,0,56,56,81,241.7946343421936,,,,,,,,,,,,,,,,,,,,,,,,,,,,,,,,,,,,,,,,,,,,,,,,,,,,,,,,,,,,,,,,,,,,,,,,,,,,,,,,,125.0,200.0,141.0,141.0,200.0,125.0,3.0,3.2,-266,-289,0,-3,229,289,241.78019428253174,241.78023552894592,241.78278374671936,241.7946343421936,241.9450707435608,241.9450707435608,241.9450707435608,241.9450707435608,241.9450707435608,241.9450707435608,241.9450707435608,244.79614543914795,1,2.9948666095733643,None,,,,,,,,,,,,,,,,,,79,5,2025-02-21_13h29.24.439,comp,2024.2.4,60.08265421744219,2025-02-21 13h29.41.849708 -0500,
57,57,0,critical,wdh,20.0,3.0,lower,57.0,133.0,78.0,78.0,133.0,57.0,3,2.2335245609283447,None,,,,,0,0,0,0,0,57,57,80,244.81170558929443,,,,,,,,,,,,,,,,,,,,,,,,,,,,,,,,,,,,,,,,,,,,,,,,,,,,,,,,,,,,,,,,,,,,,,,,,,,,,,,,,57.0,133.0,78.0,78.0,133.0,57.0,3.0,3.1,-202,255,0,-9,164,-288,244.7970016002655,244.79704570770264,244.7994999885559,244.81170558929443,244.96149516105652,244.96149516105652,244.96149516105652,244.96149516105652,244.96149516105652,244.96149516105652,244.96149516105652,247.0624644756317,3,2.2335245609283447,None,,,,,,,,,,,,,,,,,,79,5,2025-02-21_13h29.24.439,comp,2024.2.4,60.08265421744219,2025-02-21 13h29.41.849708 -0500,
58,58,0,critical,hwd,20.0,2.1,lower,133.0,57.0,57.0,133.0,78.0,78.0,2,1.9507172107696533,None,,,,,0,0,0,0,0,58,58,18,247.07801580429077,,,,,,,,,,,,,,,,,,,,,,,,,,,,,,,,,,,,,,,,,,,,,,,,,,,,,,,,,,,,,,,,,,,,,,,,,,,,,,,,,133.0,57.0,57.0,133.0,78.0,78.0,2.1,2.12,-191,-284,0,-250,202,278,247.0633020401001,247.06334233283997,247.06544613838196,247.07801580429077,247.22797846794128,247.22797846794128,247.22797846794128,247.22797846794128,247.22797846794128,247.22797846794128,247.22797846794128,249.0458197593689,2,1.9507172107696533,None,,,,,,,,,,,,,,,,,,79,5,2025-02-21_13h29.24.439,comp,2024.2.4,60.08265421744219,2025-02-21 13h29.41.849708 -0500,
59,59,0,catch,None,None,None,None,None,None,None,None,None,None,1,0.9922757148742676,None,,,,,0,0,0,0,0,59,59,123,249.06125903129578,,,,,,,,,,,,,,,,,,,,,,,,,,,,,,,,,,,,,,,,,,,,,,,,,,,,,,,,,,,,,,,,,,,,,,,,,,,,,,,,,182,143,121,69,110,80,4.0,4.1,-202,-272,0,2,170,-274,249.04688501358032,249.04692721366882,249.04904794692993,249.06125903129578,249.21147871017456,249.21147871017456,249.21147871017456,249.21147871017456,249.21147871017456,249.21147871017456,249.21147871017456,250.06261897087097,1,0.9922757148742676,None,,,,,,,,,,,,,,,,,,79,5,2025-02-21_13h29.24.439,comp,2024.2.4,60.08265421744219,2025-02-21 13h29.41.849708 -0500,
60,60,0,critical,wdh,35.0,1.0,lower,57.0,133.0,70.0,70.0,133.0,57.0,1,2.238323211669922,None,,,,,0,0,0,0,0,60,60,72,250.07823133468628,,,,,,,,,,,,,,,,,,,,,,,,,,,,,,,,,,,,,,,,,,,,,,,,,,,,,,,,,,,,,,,,,,,,,,,,,,,,,,,,,57.0,133.0,70.0,70.0,133.0,57.0,1.0,1.2,-198,2,0,17,160,17,250.06339049339294,250.06344532966614,250.06555604934692,250.07823133468628,250.22813439369202,250.22813439369202,250.22813439369202,250.22813439369202,250.22813439369202,250.22813439369202,250.22813439369202,252.32930445671082,1,2.238323211669922,None,,,,,,,,,,,,,,,,,,79,5,2025-02-21_13h29.24.439,comp,2024.2.4,60.08265421744219,2025-02-21 13h29.41.849708 -0500,
61,61,0,filler_square,None,None,None,None,None,None,None,None,None,None,3,0.8680100440979004,None,,,,,0,0,0,0,0,61,61,189,252.34466171264648,,,,,,,,,,,,,,,,,,,,,,,,,,,,,,,,,,,,,,,,,,,,,,,,,,,,,,,,,,,,,,,,,,,,,,,,,,,,,,,,,83.38427613938134,149.31535048167518,87.00397266485203,61.92956401864694,154.56493107755296,154.56493107755296,2.2,2.21,-202,-263,0,289,204,260,252.3302879333496,252.33032989501953,252.3330099582672,252.34466171264648,252.4948844909668,252.4948844909668,252.4948844909668,252.4948844909668,252.4948844909668,252.4948844909668,252.4948844909668,253.22922492027283,3,0.8680100440979004,None,,,,,,,,,,,,,,,,,,79,5,2025-02-21_13h29.24.439,comp,2024.2.4,60.08265421744219,2025-02-21 13h29.41.849708 -0500,
62,62,0,critical,hdw,35.0,2.1,upper,200.0,125.0,127.0,127.0,125.0,200.0,3,1.2980544567108154,None,,,,,0,0,0,0,0,62,62,21,253.24463868141174,,,,,,,,,,,,,,,,,,,,,,,,,,,,,,,,,,,,,,,,,,,,,,,,,,,,,,,,,,,,,,,,,,,,,,,,,,,,,,,,,200.0,125.0,127.0,127.0,125.0,200.0,2.1,2.11,-222,256,0,266,260,-278,253.23002576828003,253.23006892204285,253.23260736465454,253.24463868141174,253.39491152763367,253.39491152763367,253.39491152763367,253.39491152763367,253.39491152763367,253.39491152763367,253.39491152763367,254.54627919197083,3,1.2980544567108154,None,,,,,,,,,,,,,,,,,,79,5,2025-02-21_13h29.24.439,comp,2024.2.4,60.08265421744219,2025-02-21 13h29.41.849708 -0500,
63,63,0,filler_square,None,None,None,None,None,None,None,None,None,None,3,2.165400266647339,None,,,,,0,0,0,0,0,63,63,196,254.56158542633057,,,,,,,,,,,,,,,,,,,,,,,,,,,,,,,,,,,,,,,,,,,,,,,,,,,,,,,,,,,,,,,,,,,,,,,,,,,,,,,,,66.36067297476819,88.78391415866136,64.75246911575039,106.69045369690514,115.02979486613502,115.02979486613502,4.0,4.1,-194,-258,0,10,207,-259,254.54723286628723,254.54727482795715,254.54939603805542,254.56158542633057,254.7114062309265,254.7114062309265,254.7114062309265,254.7114062309265,254.7114062309265,254.7114062309265,254.7114062309265,256.72927021980286,3,2.165400266647339,None,,,,,,,,,,,,,,,,,,79,5,2025-02-21_13h29.24.439,comp,2024.2.4,60.08265421744219,2025-02-21 13h29.41.849708 -0500,
64,64,0,filler_random,None,None,None,None,None,None,None,None,None,None,1,2.382530689239502,None,,,,,0,0,0,0,0,64,64,130,256.74477529525757,,,,,,,,,,,,,,,,,,,,,,,,,,,,,,,,,,,,,,,,,,,,,,,,,,,,,,,,,,,,,,,,,,,,,,,,,,,,,,,,,94.42508451202289,150.90552349550472,84.8894998703913,60.03884468200567,122.63771000871174,70.25741870001912,2.2,2.22,-201,277,0,-275,161,-266,256.73017501831055,256.73021388053894,256.7323422431946,256.74477529525757,256.8948667049408,256.8948667049408,256.8948667049408,256.8948667049408,256.8948667049408,256.8948667049408,256.8948667049408,259.1292202472687,1,2.382530689239502,None,,,,,,,,,,,,,,,,,,79,5,2025-02-21_13h29.24.439,comp,2024.2.4,60.08265421744219,2025-02-21 13h29.41.849708 -0500,
65,65,0,filler_square,None,None,None,None,None,None,None,None,None,None,2,1.7557835578918457,None,,,,,0,0,0,0,0,65,65,171,259.14475107192993,,,,,,,,,,,,,,,,,,,,,,,,,,,,,,,,,,,,,,,,,,,,,,,,,,,,,,,,,,,,,,,,,,,,,,,,,,,,,,,,,90.60847199650361,62.80327710072478,96.61101648497473,96.61101648497473,93.90819384624322,89.30358315153656,2.2,2.22,-176,282,0,-265,189,-252,259.1301648616791,259.1302082538605,259.1323969364166,259.14475107192993,259.2945873737335,259.2945873737335,259.2945873737335,259.2945873737335,259.2945873737335,259.2945873737335,259.2945873737335,260.9124655723572,2,1.7557835578918457,None,,,,,,,,,,,,,,,,,,79,5,2025-02-21_13h29.24.439,comp,2024.2.4,60.08265421744219,2025-02-21 13h29.41.849708 -0500,
66,66,0,filler_square,None,None,None,None,None,None,None,None,None,None,2,1.2367668151855469,None,,,,,0,0,0,0,0,66,66,184,260.92790722846985,,,,,,,,,,,,,,,,,,,,,,,,,,,,,,,,,,,,,,,,,,,,,,,,,,,,,,,,,,,,,,,,,,,,,,,,,,,,,,,,,90.52656947590083,76.75086672423066,108.22034415902758,108.22034415902758,65.72709544261488,103.8542723823484,4.0,4.1,-188,-283,0,-17,202,-268,260.9134187698364,260.9134600162506,260.91555738449097,260.92790722846985,261.0780460834503,261.0780460834503,261.0780460834503,261.0780460834503,261.0780460834503,261.0780460834503,261.0780460834503,262.17905139923096,2,1.2367668151855469,None,,,,,,,,,,,,,,,,,,79,5,2025-02-21_13h29.24.439,comp,2024.2.4,60.08265421744219,2025-02-21 13h29.41.849708 -0500,
67,67,0,filler_random,None,None,None,None,None,None,None,None,None,None,3,1.2340657711029053,None,,,,,0,0,0,0,0,67,67,139,262.1945915222168,,,,,,,,,,,,,,,,,,,,,,,,,,,,,,,,,,,,,,,,,,,,,,,,,,,,,,,,,,,,,,,,,,,,,,,,,,,,,,,,,88.21753833918663,68.27874702803558,91.06390671917063,110.75798556594549,77.35127452045063,148.97474894403274,2.1,2.11,-186,262,0,289,226,-274,262.179984331131,262.18002486228943,262.18247723579407,262.1945915222168,262.3446671962738,262.3446671962738,262.3446671962738,262.3446671962738,262.3446671962738,262.3446671962738,262.3446671962738,263.44571924209595,3,1.2340657711029053,None,,,,,,,,,,,,,,,,,,79,5,2025-02-21_13h29.24.439,comp,2024.2.4,60.08265421744219,2025-02-21 13h29.41.849708 -0500,
68,68,0,critical,dwh,35.0,3.0,upper,127.0,127.0,125.0,200.0,200.0,125.0,2,1.384268045425415,None,,,,,0,0,0,0,0,68,68,63,263.4611849784851,,,,,,,,,,,,,,,,,,,,,,,,,,,,,,,,,,,,,,,,,,,,,,,,,,,,,,,,,,,,,,,,,,,,,,,,,,,,,,,,,127.0,127.0,125.0,200.0,200.0,125.0,3.0,3.1,-260,288,0,4,258,-264,263.44648146629333,263.4465334415436,263.44890666007996,263.4611849784851,263.61156153678894,263.61156153678894,263.61156153678894,263.61156153678894,263.61156153678894,263.61156153678894,263.61156153678894,264.86263132095337,2,1.384268045425415,None,,,,,,,,,,,,,,,,,,79,5,2025-02-21_13h29.24.439,comp,2024.2.4,60.08265421744219,2025-02-21 13h29.41.849708 -0500,
69,69,0,filler_square,None,None,None,None,None,None,None,None,None,None,3,4.13477635383606,None,,,,,0,0,0,0,0,69,69,197,264.87796330451965,,,,,,,,,,,,,,,,,,,,,,,,,,,,,,,,,,,,,,,,,,,,,,,,,,,,,,,,,,,,,,,,,,,,,,,,,,,,,,,,,74.06217025345573,82.55896097446454,63.04004968038305,89.34303079949862,94.10645125384053,94.10645125384053,2.1,2.11,-182,284,0,259,188,-261,264.8635985851288,264.86364126205444,264.8657195568085,264.87796330451965,265.02796173095703,265.02796173095703,265.02796173095703,265.02796173095703,265.02796173095703,265.02796173095703,265.02796173095703,269.0290334224701,3,4.13477635383606,None,,,,,,,,,,,,,,,,,,79,5,2025-02-21_13h29.24.439,comp,2024.2.4,60.08265421744219,2025-02-21 13h29.41.849708 -0500,
70,70,0,critical,hdw,20.0,4.0,upper,200.0,125.0,141.0,141.0,125.0,200.0,3,1.455808401107788,None,,,,,0,0,0,0,0,70,70,119,269.0445613861084,,,,,,,,,,,,,,,,,,,,,,,,,,,,,,,,,,,,,,,,,,,,,,,,,,,,,,,,,,,,,,,,,,,,,,,,,,,,,,,,,200.0,125.0,141.0,141.0,125.0,200.0,4.0,4.1,-229,-285,0,-1,266,-288,269.02983236312866,269.0298752784729,269.0323302745819,269.0445613861084,269.1947844028473,269.1947844028473,269.1947844028473,269.1947844028473,269.1947844028473,269.1947844028473,269.1947844028473,270.5127775669098,3,1.455808401107788,None,,,,,,,,,,,,,,,,,,79,5,2025-02-21_13h29.24.439,comp,2024.2.4,60.08265421744219,2025-02-21 13h29.41.849708 -0500,
71,71,0,critical,dhw,20.0,1.0,upper,141.0,141.0,200.0,125.0,125.0,200.0,3,1.2372212409973145,None,,,,,0,0,0,0,0,71,71,55,270.5277771949768,,,,,,,,,,,,,,,,,,,,,,,,,,,,,,,,,,,,,,,,,,,,,,,,,,,,,,,,,,,,,,,,,,,,,,,,,,,,,,,,,141.0,141.0,200.0,125.0,125.0,200.0,1.0,1.1,-709,270,-480,287,-222,284,270.5135757923126,270.5136151313782,270.515992641449,270.5277771949768,270.6780815124512,270.6780815124512,270.6780815124512,270.6780815124512,270.6780815124512,270.6780815124512,270.6780815124512,271.7799906730652,3,1.2372212409973145,None,,,,,,,,,,,,,,,,,,79,5,2025-02-21_13h29.24.439,comp,2024.2.4,60.08265421744219,2025-02-21 13h29.41.849708 -0500,
72,72,0,filler_random,None,None,None,None,None,None,None,None,None,None,3,1.85038161277771,None,,,,,0,0,0,0,0,72,72,142,271.7949106693268,,,,,,,,,,,,,,,,,,,,,,,,,,,,,,,,,,,,,,,,,,,,,,,,,,,,,,,,,,,,,,,,,,,,,,,,,,,,,,,,,169.34033441776245,70.06352177123395,139.74004594354884,153.77242641355323,87.94632975161024,176.33303615667512,3.0,3.1,-208,285,0,14,261,-266,271.78096556663513,271.78100967407227,271.78311014175415,271.7949106693268,271.9446346759796,271.9446346759796,271.9446346759796,271.9446346759796,271.9446346759796,271.9446346759796,271.9446346759796,273.6624433994293,3,1.85038161277771,None,,,,,,,,,,,,,,,,,,79,5,2025-02-21_13h29.24.439,comp,2024.2.4,60.08265421744219,2025-02-21 13h29.41.849708 -0500,
73,73,0,critical,hwd,20.0,1.0,upper,200.0,125.0,125.0,200.0,141.0,141.0,2,2.1284549236297607,None,,,,,0,0,0,0,0,73,73,103,273.6777591705322,,,,,,,,,,,,,,,,,,,,,,,,,,,,,,,,,,,,,,,,,,,,,,,,,,,,,,,,,,,,,,,,,,,,,,,,,,,,,,,,,200.0,125.0,125.0,200.0,141.0,141.0,1.0,1.2,-258,-6,0,-3,266,-17,273.66330337524414,273.663343667984,273.66563844680786,273.6777591705322,273.8283407688141,273.8283407688141,273.8283407688141,273.8283407688141,273.8283407688141,273.8283407688141,273.8283407688141,275.8128800392151,2,2.1284549236297607,None,,,,,,,,,,,,,,,,,,79,5,2025-02-21_13h29.24.439,comp,2024.2.4,60.08265421744219,2025-02-21 13h29.41.849708 -0500,
74,74,0,critical,dwh,35.0,2.1,upper,127.0,127.0,125.0,200.0,200.0,125.0,2,2.114636182785034,None,,,,,0,0,0,0,0,74,74,29,275.828147649765,,,,,,,,,,,,,,,,,,,,,,,,,,,,,,,,,,,,,,,,,,,,,,,,,,,,,,,,,,,,,,,,,,,,,,,,,,,,,,,,,127.0,127.0,125.0,200.0,200.0,125.0,2.1,2.12,-260,-260,0,-279,258,263,275.8136794567108,275.8137195110321,275.8158185482025,275.828147649765,275.9780225753784,275.9780225753784,275.9780225753784,275.9780225753784,275.9780225753784,275.9780225753784,275.9780225753784,277.94596767425537,2,2.114636182785034,None,,,,,,,,,,,,,,,,,,79,5,2025-02-21_13h29.24.439,comp,2024.2.4,60.08265421744219,2025-02-21 13h29.41.849708 -0500,
75,75,0,filler_random,None,None,None,None,None,None,None,None,None,None,3,0.7549717426300049,None,,,,,0,0,0,0,0,75,75,145,277.961373090744,,,,,,,,,,,,,,,,,,,,,,,,,,,,,,,,,,,,,,,,,,,,,,,,,,,,,,,,,,,,,,,,,,,,,,,,,,,,,,,,,160.46905216973772,163.2201772915684,63.66066358202003,150.11810493455246,194.63666119654633,125.6710825035477,3.0,3.2,-253,-272,0,14,234,264,277.9469211101532,277.94696164131165,277.94922494888306,277.961373090744,278.11128783226013,278.11128783226013,278.11128783226013,278.11128783226013,278.11128783226013,278.11128783226013,278.11128783226013,278.7292196750641,3,0.7549717426300049,None,,,,,,,,,,,,,,,,,,79,5,2025-02-21_13h29.24.439,comp,2024.2.4,60.08265421744219,2025-02-21 13h29.41.849708 -0500,
76,76,0,filler_random,None,None,None,None,None,None,None,None,None,None,1,1.2046515941619873,None,,,,,0,0,0,0,0,76,76,164,278.7445523738861,,,,,,,,,,,,,,,,,,,,,,,,,,,,,,,,,,,,,,,,,,,,,,,,,,,,,,,,,,,,,,,,,,,,,,,,,,,,,,,,,141.30814151330824,171.2723160951885,194.38998647044014,64.77398023743493,94.3959136346463,125.86621317136398,3.0,3.2,-214,-262,0,-9,191,288,278.73013496398926,278.7301776409149,278.7328300476074,278.7445523738861,278.89470386505127,278.89470386505127,278.89470386505127,278.89470386505127,278.89470386505127,278.89470386505127,278.89470386505127,279.96254801750183,1,1.2046515941619873,None,,,,,,,,,,,,,,,,,,79,5,2025-02-21_13h29.24.439,comp,2024.2.4,60.08265421744219,2025-02-21 13h29.41.849708 -0500,
77,77,0,filler_square,None,None,None,None,None,None,None,None,None,None,1,1.1546237468719482,None,,,,,0,0,0,0,0,77,77,200,279.9778666496277,,,,,,,,,,,,,,,,,,,,,,,,,,,,,,,,,,,,,,,,,,,,,,,,,,,,,,,,,,,,,,,,,,,,,,,,,,,,,,,,,181.33027144254618,181.33027144254618,113.18382066618365,125.8263663405705,62.7677679806215,156.79555509228555,2.1,2.11,-250,281,0,276,237,-283,279.9634952545166,279.96354937553406,279.965656042099,279.9778666496277,280.1279487609863,280.1279487609863,280.1279487609863,280.1279487609863,280.1279487609863,280.1279487609863,280.1279487609863,281.14570713043213,1,1.1546237468719482,None,,,,,,,,,,,,,,,,,,79,5,2025-02-21_13h29.24.439,comp,2024.2.4,60.08265421744219,2025-02-21 13h29.41.849708 -0500,
78,78,0,critical,hwd,35.0,4.0,upper,200.0,125.0,125.0,200.0,127.0,127.0,2,0.7965376377105713,None,,,,,0,0,0,0,0,78,78,101,281.1610703468323,,,,,,,,,,,,,,,,,,,,,,,,,,,,,,,,,,,,,,,,,,,,,,,,,,,,,,,,,,,,,,,,,,,,,,,,,,,,,,,,,200.0,125.0,125.0,200.0,127.0,127.0,4.0,4.1,-258,-284,0,13,260,-279,281.14651346206665,281.14656829833984,281.1488950252533,281.1610703468323,281.31172585487366,281.31172585487366,281.31172585487366,281.31172585487366,281.31172585487366,281.31172585487366,281.31172585487366,281.96255254745483,2,0.7965376377105713,None,,,,,,,,,,,,,,,,,,79,5,2025-02-21_13h29.24.439,comp,2024.2.4,60.08265421744219,2025-02-21 13h29.41.849708 -0500,
79,79,0,critical,wdh,20.0,1.0,lower,57.0,133.0,78.0,78.0,133.0,57.0,3,1.5865418910980225,None,,,,,0,0,0,0,0,79,79,78,281.9780390262604,,,,,,,,,,,,,,,,,,,,,,,,,,,,,,,,,,,,,,,,,,,,,,,,,,,,,,,,,,,,,,,,,,,,,,,,,,,,,,,,,57.0,133.0,78.0,78.0,133.0,57.0,1.0,1.1,-682,268,-480,271,-316,268,281.963342666626,281.96338272094727,281.96548318862915,281.9780390262604,282.1281912326813,282.1281912326813,282.1281912326813,282.1281912326813,282.1281912326813,282.1281912326813,282.1281912326813,283.57897686958313,3,1.5865418910980225,None,,,,,,,,,,,,,,,,,,79,5,2025-02-21_13h29.24.439,comp,2024.2.4,60.08265421744219,2025-02-21 13h29.41.849708 -0500,
80,80,0,critical,hwd,20.0,1.0,lower,133.0,57.0,57.0,133.0,78.0,78.0,2,0.932344913482666,None,,,,,0,0,0,0,0,80,80,102,283.59437346458435,,,,,,,,,,,,,,,,,,,,,,,,,,,,,,,,,,,,,,,,,,,,,,,,,,,,,,,,,,,,,,,,,,,,,,,,,,,,,,,,,133.0,57.0,57.0,133.0,78.0,78.0,1.0,1.3,289,-287,480,-274,682,-275,283.57976055145264,283.5797996520996,283.58221101760864,283.59437346458435,283.744592666626,283.744592666626,283.744592666626,283.744592666626,283.744592666626,283.744592666626,283.744592666626,284.52907824516296,2,0.932344913482666,None,,,,,,,,,,,,,,,,,,79,5,2025-02-21_13h29.24.439,comp,2024.2.4,60.08265421744219,2025-02-21 13h29.41.849708 -0500,
81,81,0,filler_square,None,None,None,None,None,None,None,None,None,None,1,0.9334778785705566,None,,,,,0,0,0,0,0,81,81,209,284.5445954799652,,,,,,,,,,,,,,,,,,,,,,,,,,,,,,,,,,,,,,,,,,,,,,,,,,,,,,,,,,,,,,,,,,,,,,,,,,,,,,,,,158.33404504442905,158.33404504442905,126.44423530864601,97.46657319598745,59.880825208247245,75.98900229882074,3.0,3.2,-224,-269,0,11,183,289,284.5300455093384,284.53008699417114,284.5325655937195,284.5445954799652,284.6946539878845,284.6946539878845,284.6946539878845,284.6946539878845,284.6946539878845,284.6946539878845,284.6946539878845,285.4956274032593,1,0.9334778785705566,None,,,,,,,,,,,,,,,,,,79,5,2025-02-21_13h29.24.439,comp,2024.2.4,60.08265421744219,2025-02-21 13h29.41.849708 -0500,
82,82,0,critical,hwd,35.0,2.1,lower,133.0,57.0,57.0,133.0,70.0,70.0,1,1.5262653827667236,None,,,,,0,0,0,0,0,82,82,16,285.5109941959381,,,,,,,,,,,,,,,,,,,,,,,,,,,,,,,,,,,,,,,,,,,,,,,,,,,,,,,,,,,,,,,,,,,,,,,,,,,,,,,,,133.0,57.0,57.0,133.0,70.0,70.0,2.1,2.12,-191,-267,0,-265,198,280,285.4964129924774,285.4964528083801,285.49879002571106,285.5109941959381,285.6615798473358,285.6615798473358,285.6615798473358,285.6615798473358,285.6615798473358,285.6615798473358,285.6615798473358,287.0454931259155,1,1.5262653827667236,None,,,,,,,,,,,,,,,,,,79,5,2025-02-21_13h29.24.439,comp,2024.2.4,60.08265421744219,2025-02-21 13h29.41.849708 -0500,
83,83,0,critical,wdh,35.0,1.0,upper,125.0,200.0,127.0,127.0,200.0,125.0,1,4.8814661502838135,None,,,,,0,0,0,0,0,83,83,73,287.0612952709198,,,,,,,,,,,,,,,,,,,,,,,,,,,,,,,,,,,,,,,,,,,,,,,,,,,,,,,,,,,,,,,,,,,,,,,,,,,,,,,,,125.0,200.0,127.0,127.0,200.0,125.0,1.0,1.3,220,-267,480,-290,702,-289,287.0463056564331,287.04634714126587,287.04864859580994,287.0612952709198,287.211300611496,287.211300611496,287.211300611496,287.211300611496,287.211300611496,287.211300611496,287.211300611496,291.945809841156,1,4.8814661502838135,None,,,,,,,,,,,,,,,,,,79,5,2025-02-21_13h29.24.439,comp,2024.2.4,60.08265421744219,2025-02-21 13h29.41.849708 -0500,
84,84,0,critical,whd,35.0,2.1,lower,57.0,133.0,133.0,57.0,70.0,70.0,1,75.6595630645752,None,,,,,0,0,0,0,0,84,84,12,291.9616117477417,,,,,,,,,,,,,,,,,,,,,,,,,,,,,,,,,,,,,,,,,,,,,,,,,,,,,,,,,,,,,,,,,,,,,,,,,,,,,,,,,57.0,133.0,133.0,57.0,70.0,70.0,2.1,2.12,-191,-281,0,-270,160,274,291.94664764404297,291.9466872215271,291.948757648468,291.9616117477417,292.11107325553894,292.11107325553894,292.11107325553894,292.11107325553894,292.11107325553894,292.11107325553894,292.11107325553894,367.62905740737915,1,75.6595630645752,None,,,,,,,,,,,,,,,,,,79,5,2025-02-21_13h29.24.439,comp,2024.2.4,60.08265421744219,2025-02-21 13h29.41.849708 -0500,
85,85,0,filler_random,None,None,None,None,None,None,None,None,None,None,3,1.3129634857177734,None,,,,,0,0,0,0,0,85,85,167,367.64415431022644,,,,,,,,,,,,,,,,,,,,,,,,,,,,,,,,,,,,,,,,,,,,,,,,,,,,,,,,,,,,,,,,,,,,,,,,,,,,,,,,,89.0693132499967,115.23004566611168,178.63330176125652,86.06827273988624,121.60740694883009,153.3387091738769,1.0,1.3,283,-256,480,-278,696,-269,367.6299240589142,367.6299636363983,367.6319980621338,367.64415431022644,367.79407000541687,367.79407000541687,367.79407000541687,367.79407000541687,367.79407000541687,367.79407000541687,367.79407000541687,368.9619278907776,3,1.3129634857177734,None,,,,,,,,,,,,,,,,,,79,5,2025-02-21_13h29.24.439,comp,2024.2.4,60.08265421744219,2025-02-21 13h29.41.849708 -0500,
86,86,0,critical,dwh,20.0,3.0,lower,78.0,78.0,57.0,133.0,133.0,57.0,3,1.1384775638580322,None,,,,,0,0,0,0,0,86,86,68,368.9772708415985,,,,,,,,,,,,,,,,,,,,,,,,,,,,,,,,,,,,,,,,,,,,,,,,,,,,,,,,,,,,,,,,,,,,,,,,,,,,,,,,,78.0,78.0,57.0,133.0,133.0,57.0,3.0,3.1,-202,279,0,-20,191,-274,368.96272563934326,368.9627664089203,368.96521043777466,368.9772708415985,369.12725734710693,369.12725734710693,369.12725734710693,369.12725734710693,369.12725734710693,369.12725734710693,369.12725734710693,370.1285049915314,3,1.1384775638580322,None,,,,,,,,,,,,,,,,,,79,5,2025-02-21_13h29.24.439,comp,2024.2.4,60.08265421744219,2025-02-21 13h29.41.849708 -0500,
87,87,0,filler_random,None,None,None,None,None,None,None,None,None,None,3,0.9170558452606201,None,,,,,0,0,0,0,0,87,87,149,370.1438937187195,,,,,,,,,,,,,,,,,,,,,,,,,,,,,,,,,,,,,,,,,,,,,,,,,,,,,,,,,,,,,,,,,,,,,,,,,,,,,,,,,75.37305036543655,147.09353272039647,94.86585512989862,128.83090781046002,122.11945621828472,124.98373531351703,3.0,3.1,-234,276,0,-15,223,-262,370.1294105052948,370.12945103645325,370.1315519809723,370.1438937187195,370.2939496040344,370.2939496040344,370.2939496040344,370.2939496040344,370.2939496040344,370.2939496040344,370.2939496040344,371.06212973594666,3,0.9170558452606201,None,,,,,,,,,,,,,,,,,,79,5,2025-02-21_13h29.24.439,comp,2024.2.4,60.08265421744219,2025-02-21 13h29.41.849708 -0500,
88,88,0,critical,dhw,20.0,2.1,lower,78.0,78.0,133.0,57.0,57.0,133.0,3,0.9113905429840088,None,,,,,0,0,0,0,0,88,88,26,371.07731890678406,,,,,,,,,,,,,,,,,,,,,,,,,,,,,,,,,,,,,,,,,,,,,,,,,,,,,,,,,,,,,,,,,,,,,,,,,,,,,,,,,78.0,78.0,133.0,57.0,57.0,133.0,2.1,2.11,-164,283,0,252,191,-278,371.06294322013855,371.062983751297,371.06549978256226,371.07731890678406,371.22726464271545,371.22726464271545,371.22726464271545,371.22726464271545,371.22726464271545,371.22726464271545,371.22726464271545,371.99509716033936,3,0.9113905429840088,None,,,,,,,,,,,,,,,,,,79,5,2025-02-21_13h29.24.439,comp,2024.2.4,60.08265421744219,2025-02-21 13h29.41.849708 -0500,
89,89,0,filler_square,None,None,None,None,None,None,None,None,None,None,3,0.8259615898132324,None,,,,,0,0,0,0,0,89,89,175,372.0107932090759,,,,,,,,,,,,,,,,,,,,,,,,,,,,,,,,,,,,,,,,,,,,,,,,,,,,,,,,,,,,,,,,,,,,,,,,,,,,,,,,,138.42650323911005,155.42640026073036,137.46141658278094,125.96312015952894,187.94424319239525,187.94424319239525,2.2,2.21,-237,-279,0,254,253,287,371.9960503578186,371.9960925579071,371.99820494651794,372.0107932090759,372.16079807281494,372.16079807281494,372.16079807281494,372.16079807281494,372.16079807281494,372.16079807281494,372.16079807281494,372.8451726436615,3,0.8259615898132324,None,,,,,,,,,,,,,,,,,,79,5,2025-02-21_13h29.24.439,comp,2024.2.4,60.08265421744219,2025-02-21 13h29.41.849708 -0500,
90,90,0,filler_random,None,None,None,None,None,None,None,None,None,None,3,0.6171131134033203,None,,,,,0,0,0,0,0,90,90,148,372.8606379032135,,,,,,,,,,,,,,,,,,,,,,,,,,,,,,,,,,,,,,,,,,,,,,,,,,,,,,,,,,,,,,,,,,,,,,,,,,,,,,,,,169.40028941625243,98.7862376613591,191.96414039375537,183.13741920426477,192.09836451571869,162.11130985742207,2.1,2.12,-237,-266,0,-286,269,255,372.846040725708,372.8460805416107,372.84855794906616,372.8606379032135,373.01084637641907,373.01084637641907,373.01084637641907,373.01084637641907,373.01084637641907,373.01084637641907,373.01084637641907,373.49532294273376,3,0.6171131134033203,None,,,,,,,,,,,,,,,,,,79,5,2025-02-21_13h29.24.439,comp,2024.2.4,60.08265421744219,2025-02-21 13h29.41.849708 -0500,
91,91,0,critical,whd,35.0,2.1,upper,125.0,200.0,200.0,125.0,127.0,127.0,2,1.7261197566986084,None,,,,,0,0,0,0,0,91,91,13,373.5105662345886,,,,,,,,,,,,,,,,,,,,,,,,,,,,,,,,,,,,,,,,,,,,,,,,,,,,,,,,,,,,,,,,,,,,,,,,,,,,,,,,,125.0,200.0,200.0,125.0,127.0,127.0,2.1,2.12,-258,-266,0,-253,222,268,373.49613213539124,373.49617314338684,373.49867033958435,373.5105662345886,373.6608510017395,373.6608510017395,373.6608510017395,373.6608510017395,373.6608510017395,373.6608510017395,373.6608510017395,375.24516105651855,2,1.7261197566986084,None,,,,,,,,,,,,,,,,,,79,5,2025-02-21_13h29.24.439,comp,2024.2.4,60.08265421744219,2025-02-21 13h29.41.849708 -0500,
92,92,0,filler_random,None,None,None,None,None,None,None,None,None,None,1,0.73502516746521,None,,,,,0,0,0,0,0,92,92,159,375.26075649261475,,,,,,,,,,,,,,,,,,,,,,,,,,,,,,,,,,,,,,,,,,,,,,,,,,,,,,,,,,,,,,,,,,,,,,,,,,,,,,,,,170.47450532059526,152.6759870007465,91.74403698229057,134.08564917203518,165.11586562294434,63.6804591725112,2.2,2.22,-239,256,0,-288,195,-255,375.24606919288635,375.2461109161377,375.2485861778259,375.26075649261475,375.4106113910675,375.4106113910675,375.4106113910675,375.4106113910675,375.4106113910675,375.4106113910675,375.4106113910675,376.0117042064667,1,0.73502516746521,None,,,,,,,,,,,,,,,,,,79,5,2025-02-21_13h29.24.439,comp,2024.2.4,60.08265421744219,2025-02-21 13h29.41.849708 -0500,
93,93,0,critical,hdw,35.0,2.1,lower,133.0,57.0,70.0,70.0,57.0,133.0,1,0.9153420925140381,None,,,,,0,0,0,0,0,93,93,20,376.0270311832428,,,,,,,,,,,,,,,,,,,,,,,,,,,,,,,,,,,,,,,,,,,,,,,,,,,,,,,,,,,,,,,,,,,,,,,,,,,,,,,,,133.0,57.0,70.0,70.0,57.0,133.0,2.1,2.12,-160,-277,0,-257,198,254,376.01251673698425,376.01257491111755,376.0149841308594,376.0270311832428,376.17717838287354,376.17717838287354,376.17717838287354,376.17717838287354,376.17717838287354,376.17717838287354,376.17717838287354,376.945152759552,1,0.9153420925140381,None,,,,,,,,,,,,,,,,,,79,5,2025-02-21_13h29.24.439,comp,2024.2.4,60.08265421744219,2025-02-21 13h29.41.849708 -0500,
94,94,0,critical,whd,35.0,3.0,upper,125.0,200.0,200.0,125.0,127.0,127.0,2,0.9390079975128174,None,,,,,0,0,0,0,0,94,94,87,376.96062660217285,,,,,,,,,,,,,,,,,,,,,,,,,,,,,,,,,,,,,,,,,,,,,,,,,,,,,,,,,,,,,,,,,,,,,,,,,,,,,,,,,125.0,200.0,200.0,125.0,127.0,127.0,3.0,3.1,-258,252,0,-2,222,-282,376.9459252357483,376.9459660053253,376.9483788013458,376.96062660217285,377.11080741882324,377.11080741882324,377.11080741882324,377.11080741882324,377.11080741882324,377.11080741882324,377.11080741882324,377.91191387176514,2,0.9390079975128174,None,,,,,,,,,,,,,,,,,,79,5,2025-02-21_13h29.24.439,comp,2024.2.4,60.08265421744219,2025-02-21 13h29.41.849708 -0500,
95,95,0,filler_random,None,None,None,None,None,None,None,None,None,None,2,1.4689104557037354,None,,,,,0,0,0,0,0,95,95,155,377.927134513855,,,,,,,,,,,,,,,,,,,,,,,,,,,,,,,,,,,,,,,,,,,,,,,,,,,,,,,,,,,,,,,,,,,,,,,,,,,,,,,,,74.98651180221334,171.72479142711677,167.4544368051154,118.24839706552982,153.36217719864243,145.18976756610442,4.0,4.2,-241,14,0,-289,228,-12,377.9127974510193,377.912837266922,377.9151945114136,377.927134513855,378.07738876342773,378.07738876342773,378.07738876342773,378.07738876342773,378.07738876342773,378.07738876342773,378.07738876342773,379.4117591381073,2,1.4689104557037354,None,,,,,,,,,,,,,,,,,,79,5,2025-02-21_13h29.24.439,comp,2024.2.4,60.08265421744219,2025-02-21 13h29.41.849708 -0500,
96,96,0,critical,wdh,20.0,4.0,upper,125.0,200.0,141.0,141.0,200.0,125.0,1,1.104788064956665,None,,,,,0,0,0,0,0,96,96,83,379.4270143508911,,,,,,,,,,,,,,,,,,,,,,,,,,,,,,,,,,,,,,,,,,,,,,,,,,,,,,,,,,,,,,,,,,,,,,,,,,,,,,,,,125.0,200.0,141.0,141.0,200.0,125.0,4.0,4.1,-266,-268,0,-13,229,-289,379.412535905838,379.4125771522522,379.4149408340454,379.4270143508911,379.57736587524414,379.57736587524414,379.57736587524414,379.57736587524414,379.57736587524414,379.57736587524414,379.57736587524414,380.54516434669495,1,1.104788064956665,None,,,,,,,,,,,,,,,,,,79,5,2025-02-21_13h29.24.439,comp,2024.2.4,60.08265421744219,2025-02-21 13h29.41.849708 -0500,
97,97,0,filler_random,None,None,None,None,None,None,None,None,None,None,3,0.9170174598693848,None,,,,,0,0,0,0,0,97,97,151,380.5604486465454,,,,,,,,,,,,,,,,,,,,,,,,,,,,,,,,,,,,,,,,,,,,,,,,,,,,,,,,,,,,,,,,,,,,,,,,,,,,,,,,,94.8424728715876,64.00725597819591,128.12976758169148,130.44532543711512,178.2810919235235,144.87761911394455,2.1,2.11,-193,270,0,284,234,-252,380.5461094379425,380.5461504459381,380.5486421585083,380.5604486465454,380.71067214012146,380.71067214012146,380.71067214012146,380.71067214012146,380.71067214012146,380.71067214012146,380.71067214012146,381.4786477088928,3,0.9170174598693848,None,,,,,,,,,,,,,,,,,,79,5,2025-02-21_13h29.24.439,comp,2024.2.4,60.08265421744219,2025-02-21 13h29.41.849708 -0500,
98,98,0,catch,None,None,None,None,None,None,None,None,None,None,1,0.9752566814422607,None,,,,,0,0,0,0,0,98,98,124,381.4939224720001,,,,,,,,,,,,,,,,,,,,,,,,,,,,,,,,,,,,,,,,,,,,,,,,,,,,,,,,,,,,,,,,,,,,,,,,,,,,,,,,,194,131,92,98,120,70,3.0,3.2,-210,-271,0,-7,180,290,381.4796862602234,381.4797284603119,381.4818260669708,381.4939224720001,381.64421343803406,381.64421343803406,381.64421343803406,381.64421343803406,381.64421343803406,381.64421343803406,381.64421343803406,382.47848773002625,1,0.9752566814422607,None,,,,,,,,,,,,,,,,,,79,5,2025-02-21_13h29.24.439,comp,2024.2.4,60.08265421744219,2025-02-21 13h29.41.849708 -0500,
99,99,0,critical,dwh,20.0,2.1,upper,141.0,141.0,125.0,200.0,200.0,125.0,3,1.501741886138916,None,,,,,0,0,0,0,0,99,99,7,382.49406480789185,,,,,,,,,,,,,,,,,,,,,,,,,,,,,,,,,,,,,,,,,,,,,,,,,,,,,,,,,,,,,,,,,,,,,,,,,,,,,,,,,141.0,141.0,125.0,200.0,200.0,125.0,2.1,2.12,-266,-265,0,-269,258,279,382.47928524017334,382.4793276786804,382.4819276332855,382.49406480789185,382.6440315246582,382.6440315246582,382.6440315246582,382.6440315246582,382.6440315246582,382.6440315246582,382.6440315246582,384.01172518730164,3,1.501741886138916,None,,,,,,,,,,,,,,,,,,79,5,2025-02-21_13h29.24.439,comp,2024.2.4,60.08265421744219,2025-02-21 13h29.41.849708 -0500,
100,100,0,catch,None,None,None,None,None,None,None,None,None,None,2,1.1045565605163574,None,,,,,0,0,0,0,0,100,100,120,384.027193069458,,,,,,,,,,,,,,,,,,,,,,,,,,,,,,,,,,,,,,,,,,,,,,,,,,,,,,,,,,,,,,,,,,,,,,,,,,,,,,,,,96,94,135,190,79,111,4.0,4.2,-238,-1,0,-269,246,3,384.01278281211853,384.0128252506256,384.01613211631775,384.027193069458,384.1773283481598,384.1773283481598,384.1773283481598,384.1773283481598,384.1773283481598,384.1773283481598,384.1773283481598,385.1450619697571,2,1.1045565605163574,None,,,,,,,,,,,,,,,,,,79,5,2025-02-21_13h29.24.439,comp,2024.2.4,60.08265421744219,2025-02-21 13h29.41.849708 -0500,
101,101,0,filler_square,None,None,None,None,None,None,None,None,None,None,3,1.3552520275115967,None,,,,,0,0,0,0,0,101,101,199,385.16040420532227,,,,,,,,,,,,,,,,,,,,,,,,,,,,,,,,,,,,,,,,,,,,,,,,,,,,,,,,,,,,,,,,,,,,,,,,,,,,,,,,,134.16802034047566,111.26048473808868,68.38648439275894,80.572926790134,145.28475767520447,145.28475767520447,2.1,2.12,-192,-287,0,-282,209,281,385.1460554599762,385.1460952758789,385.14857363700867,385.16040420532227,385.3105421066284,385.3105421066284,385.3105421066284,385.3105421066284,385.3105421066284,385.3105421066284,385.3105421066284,386.5284938812256,3,1.3552520275115967,None,,,,,,,,,,,,,,,,,,79,5,2025-02-21_13h29.24.439,comp,2024.2.4,60.08265421744219,2025-02-21 13h29.41.849708 -0500,
102,102,0,critical,whd,20.0,3.0,upper,125.0,200.0,200.0,125.0,141.0,141.0,2,3.5171711444854736,None,,,,,0,0,0,0,0,102,102,93,386.54378056526184,,,,,,,,,,,,,,,,,,,,,,,,,,,,,,,,,,,,,,,,,,,,,,,,,,,,,,,,,,,,,,,,,,,,,,,,,,,,,,,,,125.0,200.0,200.0,125.0,141.0,141.0,3.0,3.1,-258,258,0,1,229,-251,386.5292866230011,386.52932810783386,386.5325870513916,386.54378056526184,386.6939878463745,386.6939878463745,386.6939878463745,386.6939878463745,386.6939878463745,386.6939878463745,386.6939878463745,390.0784089565277,2,3.5171711444854736,None,,,,,,,,,,,,,,,,,,79,5,2025-02-21_13h29.24.439,comp,2024.2.4,60.08265421744219,2025-02-21 13h29.41.849708 -0500,
103,103,0,filler_square,None,None,None,None,None,None,None,None,None,None,3,33.510727643966675,None,,,,,0,0,0,0,0,103,103,177,390.0936291217804,,,,,,,,,,,,,,,,,,,,,,,,,,,,,,,,,,,,,,,,,,,,,,,,,,,,,,,,,,,,,,,,,,,,,,,,,,,,,,,,,102.38658819947025,142.64354811896456,160.1193657821611,138.31113277943402,163.94575898484618,163.94575898484618,2.1,2.11,-236,268,0,284,247,-254,390.07937812805176,390.07941913604736,390.0817186832428,390.0936291217804,390.24390721321106,390.24390721321106,390.24390721321106,390.24390721321106,390.24390721321106,390.24390721321106,390.24390721321106,423.61144733428955,3,33.510727643966675,None,,,,,,,,,,,,,,,,,,79,5,2025-02-21_13h29.24.439,comp,2024.2.4,60.08265421744219,2025-02-21 13h29.41.849708 -0500,
104,104,0,critical,hwd,35.0,3.0,upper,200.0,125.0,125.0,200.0,127.0,127.0,2,1.1845033168792725,None,,,,,0,0,0,0,0,104,104,99,423.62706208229065,,,,,,,,,,,,,,,,,,,,,,,,,,,,,,,,,,,,,,,,,,,,,,,,,,,,,,,,,,,,,,,,,,,,,,,,,,,,,,,,,200.0,125.0,125.0,200.0,127.0,127.0,3.0,3.2,-258,-263,0,13,260,254,423.6122615337372,423.61230182647705,423.6147038936615,423.62706208229065,423.77714586257935,423.77714586257935,423.77714586257935,423.77714586257935,423.77714586257935,423.77714586257935,423.77714586257935,424.82816338539124,2,1.1845033168792725,None,,,,,,,,,,,,,,,,,,79,5,2025-02-21_13h29.24.439,comp,2024.2.4,60.08265421744219,2025-02-21 13h29.41.849708 -0500,
105,105,0,filler_random,None,None,None,None,None,None,None,None,None,None,1,1.2251026630401611,None,,,,,0,0,0,0,0,105,105,147,424.84348154067993,,,,,,,,,,,,,,,,,,,,,,,,,,,,,,,,,,,,,,,,,,,,,,,,,,,,,,,,,,,,,,,,,,,,,,,,,,,,,,,,,177.8832689144532,103.10519431557574,71.35889596121164,117.95952187586047,90.8067112439486,101.94740299671376,2.2,2.22,-207,255,0,-260,206,-284,424.8290412425995,424.8290812969208,424.83149933815,424.84348154067993,424.99363231658936,424.99363231658936,424.99363231658936,424.99363231658936,424.99363231658936,424.99363231658936,424.99363231658936,426.0781059265137,1,1.2251026630401611,None,,,,,,,,,,,,,,,,,,79,5,2025-02-21_13h29.24.439,comp,2024.2.4,60.08265421744219,2025-02-21 13h29.41.849708 -0500,
106,106,0,filler_square,None,None,None,None,None,None,None,None,None,None,2,0.9337704181671143,None,,,,,0,0,0,0,0,106,106,195,426.093629360199,,,,,,,,,,,,,,,,,,,,,,,,,,,,,,,,,,,,,,,,,,,,,,,,,,,,,,,,,,,,,,,,,,,,,,,,,,,,,,,,,156.26706413662157,65.81873153546204,177.95695883278165,177.95695883278165,95.8425388080416,125.1569048452991,4.0,4.2,-218,2,0,-283,248,0,426.0790858268738,426.0791265964508,426.0815978050232,426.093629360199,426.2437515258789,426.2437515258789,426.2437515258789,426.2437515258789,426.2437515258789,426.2437515258789,426.2437515258789,427.0285108089447,2,0.9337704181671143,None,,,,,,,,,,,,,,,,,,79,5,2025-02-21_13h29.24.439,comp,2024.2.4,60.08265421744219,2025-02-21 13h29.41.849708 -0500,
107,107,0,critical,dwh,20.0,2.1,lower,78.0,78.0,57.0,133.0,133.0,57.0,3,1.0983459949493408,None,,,,,0,0,0,0,0,107,107,6,427.04363560676575,,,,,,,,,,,,,,,,,,,,,,,,,,,,,,,,,,,,,,,,,,,,,,,,,,,,,,,,,,,,,,,,,,,,,,,,,,,,,,,,,78.0,78.0,57.0,133.0,133.0,57.0,2.1,2.11,-202,281,0,288,191,-278,427.0292754173279,427.02931451797485,427.0316026210785,427.04363560676575,427.1935122013092,427.1935122013092,427.1935122013092,427.1935122013092,427.1935122013092,427.1935122013092,427.1935122013092,428.1448001861572,3,1.0983459949493408,None,,,,,,,,,,,,,,,,,,79,5,2025-02-21_13h29.24.439,comp,2024.2.4,60.08265421744219,2025-02-21 13h29.41.849708 -0500,
108,108,0,critical,whd,35.0,3.0,lower,57.0,133.0,133.0,57.0,70.0,70.0,2,1.8836896419525146,None,,,,,0,0,0,0,0,108,108,86,428.16028928756714,,,,,,,,,,,,,,,,,,,,,,,,,,,,,,,,,,,,,,,,,,,,,,,,,,,,,,,,,,,,,,,,,,,,,,,,,,,,,,,,,57.0,133.0,133.0,57.0,70.0,70.0,3.0,3.1,-191,263,0,18,160,-254,428.14556670188904,428.14560747146606,428.1479058265686,428.16028928756714,428.31064224243164,428.31064224243164,428.31064224243164,428.31064224243164,428.31064224243164,428.31064224243164,428.31064224243164,430.0452034473419,2,1.8836896419525146,None,,,,,,,,,,,,,,,,,,79,5,2025-02-21_13h29.24.439,comp,2024.2.4,60.08265421744219,2025-02-21 13h29.41.849708 -0500,
109,109,0,filler_square,None,None,None,None,None,None,None,None,None,None,3,1.000140905380249,None,,,,,0,0,0,0,0,109,109,183,430.0602557659149,,,,,,,,,,,,,,,,,,,,,,,,,,,,,,,,,,,,,,,,,,,,,,,,,,,,,,,,,,,,,,,,,,,,,,,,,,,,,,,,,68.02943308477204,66.52106922905857,62.23351002936352,63.42641728973318,79.69403383193944,79.69403383193944,3.0,3.1,-161,267,0,-15,168,-264,430.04622173309326,430.04626274108887,430.04838132858276,430.0602557659149,430.2102315425873,430.2102315425873,430.2102315425873,430.2102315425873,430.2102315425873,430.2102315425873,430.2102315425873,431.07791233062744,3,1.000140905380249,None,,,,,,,,,,,,,,,,,,79,5,2025-02-21_13h29.24.439,comp,2024.2.4,60.08265421744219,2025-02-21 13h29.41.849708 -0500,
110,110,0,filler_square,None,None,None,None,None,None,None,None,None,None,3,4.600316524505615,None,,,,,0,0,0,0,0,110,110,174,431.093469619751,,,,,,,,,,,,,,,,,,,,,,,,,,,,,,,,,,,,,,,,,,,,,,,,,,,,,,,,,,,,,,,,,,,,,,,,,,,,,,,,,134.2975096026159,165.12014875540206,174.40466819683343,62.49492606111463,179.50119610507696,179.50119610507696,4.0,4.2,-210,14,0,-253,217,7,431.0788633823395,431.0789051055908,431.0813202857971,431.093469619751,431.24374890327454,431.24374890327454,431.24374890327454,431.24374890327454,431.24374890327454,431.24374890327454,431.24374890327454,435.7114486694336,3,4.600316524505615,None,,,,,,,,,,,,,,,,,,79,5,2025-02-21_13h29.24.439,comp,2024.2.4,60.08265421744219,2025-02-21 13h29.41.849708 -0500,
111,111,0,critical,dhw,20.0,1.0,lower,78.0,78.0,133.0,57.0,57.0,133.0,2,2.5505199432373047,None,,,,,0,0,0,0,0,111,111,54,435.7266309261322,,,,,,,,,,,,,,,,,,,,,,,,,,,,,,,,,,,,,,,,,,,,,,,,,,,,,,,,,,,,,,,,,,,,,,,,,,,,,,,,,78.0,78.0,133.0,57.0,57.0,133.0,1.0,1.3,316,-282,480,-256,671,-264,435.7122220993042,435.71226024627686,435.7153489589691,435.7266309261322,435.8767468929291,435.8767468929291,435.8767468929291,435.8767468929291,435.8767468929291,435.8767468929291,435.8767468929291,438.2947084903717,2,2.5505199432373047,None,,,,,,,,,,,,,,,,,,79,5,2025-02-21_13h29.24.439,comp,2024.2.4,60.08265421744219,2025-02-21 13h29.41.849708 -0500,
112,112,0,critical,hwd,20.0,3.0,upper,200.0,125.0,125.0,200.0,141.0,141.0,2,4.0376763343811035,None,,,,,0,0,0,0,0,112,112,105,438.31010460853577,,,,,,,,,,,,,,,,,,,,,,,,,,,,,,,,,,,,,,,,,,,,,,,,,,,,,,,,,,,,,,,,,,,,,,,,,,,,,,,,,200.0,125.0,125.0,200.0,141.0,141.0,3.0,3.2,-258,-283,0,-9,266,255,438.2954754829407,438.29551577568054,438.29796504974365,438.31010460853577,438.4604227542877,438.4604227542877,438.4604227542877,438.4604227542877,438.4604227542877,438.4604227542877,438.4604227542877,442.36162066459656,2,4.0376763343811035,None,,,,,,,,,,,,,,,,,,79,5,2025-02-21_13h29.24.439,comp,2024.2.4,60.08265421744219,2025-02-21 13h29.41.849708 -0500,
113,113,0,critical,dhw,35.0,4.0,upper,127.0,127.0,200.0,125.0,125.0,200.0,3,5.884611368179321,None,,,,,0,0,0,0,0,113,113,53,442.3766429424286,,,,,,,,,,,,,,,,,,,,,,,,,,,,,,,,,,,,,,,,,,,,,,,,,,,,,,,,,,,,,,,,,,,,,,,,,,,,,,,,,127.0,127.0,200.0,125.0,125.0,200.0,4.0,4.2,-222,3,0,-258,258,11,442.3623971939087,442.36243867874146,442.36476707458496,442.3766429424286,442.527042388916,442.527042388916,442.527042388916,442.527042388916,442.527042388916,442.527042388916,442.527042388916,448.27805185317993,3,5.884611368179321,None,,,,,,,,,,,,,,,,,,79,5,2025-02-21_13h29.24.439,comp,2024.2.4,60.08265421744219,2025-02-21 13h29.41.849708 -0500,
114,114,0,filler_random,None,None,None,None,None,None,None,None,None,None,2,1.4326086044311523,None,,,,,0,0,0,0,0,114,114,166,448.2932493686676,,,,,,,,,,,,,,,,,,,,,,,,,,,,,,,,,,,,,,,,,,,,,,,,,,,,,,,,,,,,,,,,,,,,,,,,,,,,,,,,,82.26756413032356,106.5169938227368,125.61179911031572,199.9527844329222,62.685156523330114,160.95983629778368,4.0,4.2,-249,5,0,-255,276,17,448.27897334098816,448.27901577949524,448.28154373168945,448.2932493686676,448.4433665275574,448.4433665275574,448.4433665275574,448.4433665275574,448.4433665275574,448.4433665275574,448.4433665275574,449.72802734375,2,1.4326086044311523,None,,,,,,,,,,,,,,,,,,79,5,2025-02-21_13h29.24.439,comp,2024.2.4,60.08265421744219,2025-02-21 13h29.41.849708 -0500,
115,115,0,critical,hdw,20.0,2.1,upper,200.0,125.0,141.0,141.0,125.0,200.0,3,1.3412907123565674,None,,,,,0,0,0,0,0,115,115,23,449.7434160709381,,,,,,,,,,,,,,,,,,,,,,,,,,,,,,,,,,,,,,,,,,,,,,,,,,,,,,,,,,,,,,,,,,,,,,,,,,,,,,,,,200.0,125.0,141.0,141.0,125.0,200.0,2.1,2.11,-229,272,0,250,266,-280,449.72879457473755,449.72883319854736,449.73093843460083,449.7434160709381,449.89360880851746,449.89360880851746,449.89360880851746,449.89360880851746,449.89360880851746,449.89360880851746,449.89360880851746,451.09467029571533,3,1.3412907123565674,None,,,,,,,,,,,,,,,,,,79,5,2025-02-21_13h29.24.439,comp,2024.2.4,60.08265421744219,2025-02-21 13h29.41.849708 -0500,
116,116,0,filler_random,None,None,None,None,None,None,None,None,None,None,1,1.741769552230835,None,,,,,0,0,0,0,0,116,116,154,451.11036348342896,,,,,,,,,,,,,,,,,,,,,,,,,,,,,,,,,,,,,,,,,,,,,,,,,,,,,,,,,,,,,,,,,,,,,,,,,,,,,,,,,125.75862671293582,142.0167447289814,137.0205628894813,76.13764280427652,170.80886300559365,89.40128958982498,2.1,2.11,-205,270,0,277,179,-252,451.09558033943176,451.0956218242645,451.09778475761414,451.11036348342896,451.2604818344116,451.2604818344116,451.2604818344116,451.2604818344116,451.2604818344116,451.2604818344116,451.2604818344116,452.86126351356506,1,1.741769552230835,None,,,,,,,,,,,,,,,,,,79,5,2025-02-21_13h29.24.439,comp,2024.2.4,60.08265421744219,2025-02-21 13h29.41.849708 -0500,
117,117,0,filler_square,None,None,None,None,None,None,None,None,None,None,2,1.6384155750274658,None,,,,,0,0,0,0,0,117,117,202,452.8767514228821,,,,,,,,,,,,,,,,,,,,,,,,,,,,,,,,,,,,,,,,,,,,,,,,,,,,,,,,,,,,,,,,,,,,,,,,,,,,,,,,,90.5051063068891,71.77992875960295,99.73083068593007,99.73083068593007,71.42725413105211,94.40082605768845,2.1,2.12,-182,-288,0,-265,193,286,452.8622760772705,452.86231803894043,452.86502146720886,452.8767514228821,453.02661538124084,453.02661538124084,453.02661538124084,453.02661538124084,453.02661538124084,453.02661538124084,453.02661538124084,454.5278830528259,2,1.6384155750274658,None,,,,,,,,,,,,,,,,,,79,5,2025-02-21_13h29.24.439,comp,2024.2.4,60.08265421744219,2025-02-21 13h29.41.849708 -0500,
118,118,0,critical,hdw,35.0,2.1,upper,200.0,125.0,127.0,127.0,125.0,200.0,1,6.517308473587036,None,,,,,0,0,0,0,0,118,118,45,454.54320073127747,,,,,,,,,,,,,,,,,,,,,,,,,,,,,,,,,,,,,,,,,,,,,,,,,,,,,,,,,,,,,,,,,,,,,,,,,,,,,,,,,200.0,125.0,127.0,127.0,125.0,200.0,2.1,2.11,-222,266,0,265,260,-258,454.52873373031616,454.5287742614746,454.5312690734863,454.54320073127747,454.6936149597168,454.6936149597168,454.6936149597168,454.6936149597168,454.6936149597168,454.6936149597168,454.6936149597168,461.0778806209564,1,6.517308473587036,None,,,,,,,,,,,,,,,,,,79,5,2025-02-21_13h29.24.439,comp,2024.2.4,60.08265421744219,2025-02-21 13h29.41.849708 -0500,
119,119,0,critical,whd,35.0,2.1,lower,57.0,133.0,133.0,57.0,70.0,70.0,2,2.9341301918029785,None,,,,,0,0,0,0,0,119,119,36,461.0931627750397,,,,,,,,,,,,,,,,,,,,,,,,,,,,,,,,,,,,,,,,,,,,,,,,,,,,,,,,,,,,,,,,,,,,,,,,,,,,,,,,,57.0,133.0,133.0,57.0,70.0,70.0,2.1,2.11,-191,265,0,267,160,-275,461.0786385536194,461.0786786079407,461.0810480117798,461.0931627750397,461.24332451820374,461.24332451820374,461.24332451820374,461.24332451820374,461.24332451820374,461.24332451820374,461.24332451820374,464.04434847831726,2,2.9341301918029785,None,,,,,,,,,,,,,,,,,,79,5,2025-02-21_13h29.24.439,comp,2024.2.4,60.08265421744219,2025-02-21 13h29.41.849708 -0500,
120,120,0,critical,whd,35.0,1.0,upper,125.0,200.0,200.0,125.0,127.0,127.0,2,3.0172712802886963,None,,,,,0,0,0,0,0,120,120,85,464.0597665309906,,,,,,,,,,,,,,,,,,,,,,,,,,,,,,,,,,,,,,,,,,,,,,,,,,,,,,,,,,,,,,,,,,,,,,,,,,,,,,,,,125.0,200.0,200.0,125.0,127.0,127.0,1.0,1.3,222,-265,480,-264,702,-286,464.04516220092773,464.0452036857605,464.0472936630249,464.0597665309906,464.2102117538452,464.2102117538452,464.2102117538452,464.2102117538452,464.2102117538452,464.2102117538452,464.2102117538452,467.0945806503296,2,3.0172712802886963,None,,,,,,,,,,,,,,,,,,79,5,2025-02-21_13h29.24.439,comp,2024.2.4,60.08265421744219,2025-02-21 13h29.41.849708 -0500,
121,121,0,filler_random,None,None,None,None,None,None,None,None,None,None,1,1.1996257305145264,None,,,,,0,0,0,0,0,121,121,140,467.10988450050354,,,,,,,,,,,,,,,,,,,,,,,,,,,,,,,,,,,,,,,,,,,,,,,,,,,,,,,,,,,,,,,,,,,,,,,,,,,,,,,,,181.1475489463112,118.49305871647206,82.5528670478461,66.8279015339054,129.7333555767746,70.48099850290701,4.0,4.2,-189,14,0,-272,165,-15,467.09546089172363,467.0955009460449,467.0976891517639,467.10988450050354,467.2600221633911,467.2600221633911,467.2600221633911,467.2600221633911,467.2600221633911,467.2600221633911,467.2600221633911,468.32770681381226,1,1.1996257305145264,None,,,,,,,,,,,,,,,,,,79,5,2025-02-21_13h29.24.439,comp,2024.2.4,60.08265421744219,2025-02-21 13h29.41.849708 -0500,
122,122,0,critical,dhw,20.0,4.0,lower,78.0,78.0,133.0,57.0,57.0,133.0,3,38.29284143447876,None,,,,,0,0,0,0,0,122,122,58,468.34311151504517,,,,,,,,,,,,,,,,,,,,,,,,,,,,,,,,,,,,,,,,,,,,,,,,,,,,,,,,,,,,,,,,,,,,,,,,,,,,,,,,,78.0,78.0,133.0,57.0,57.0,133.0,4.0,4.1,-164,-274,0,0,191,-283,468.3284921646118,468.32854437828064,468.3308470249176,468.34311151504517,468.4933054447174,468.4933054447174,468.4933054447174,468.4933054447174,468.4933054447174,468.4933054447174,468.4933054447174,506.64419412612915,3,38.29284143447876,None,,,,,,,,,,,,,,,,,,79,5,2025-02-21_13h29.24.439,comp,2024.2.4,60.08265421744219,2025-02-21 13h29.41.849708 -0500,
123,123,0,catch,None,None,None,None,None,None,None,None,None,None,1,0.849560022354126,None,,,,,0,0,0,0,0,123,123,121,506.6598947048187,,,,,,,,,,,,,,,,,,,,,,,,,,,,,,,,,,,,,,,,,,,,,,,,,,,,,,,,,,,,,,,,,,,,,,,,,,,,,,,,,131,194,132,58,93,97,1.0,1.1,-702,271,-480,284,-306,259,506.64526295661926,506.6453058719635,506.6478509902954,506.6598947048187,506.8097023963928,506.8097023963928,506.8097023963928,506.8097023963928,506.8097023963928,506.8097023963928,506.8097023963928,507.5112233161926,1,0.849560022354126,None,,,,,,,,,,,,,,,,,,79,5,2025-02-21_13h29.24.439,comp,2024.2.4,60.08265421744219,2025-02-21 13h29.41.849708 -0500,
124,124,0,critical,wdh,35.0,2.1,upper,125.0,200.0,127.0,127.0,200.0,125.0,3,1.1006996631622314,None,,,,,0,0,0,0,0,124,124,33,507.526428937912,,,,,,,,,,,,,,,,,,,,,,,,,,,,,,,,,,,,,,,,,,,,,,,,,,,,,,,,,,,,,,,,,,,,,,,,,,,,,,,,,125.0,200.0,127.0,127.0,200.0,125.0,2.1,2.12,-260,-284,0,-261,222,276,507.51204085350037,507.5120828151703,507.51424622535706,507.526428937912,507.67679262161255,507.67679262161255,507.67679262161255,507.67679262161255,507.67679262161255,507.67679262161255,507.67679262161255,508.6442451477051,3,1.1006996631622314,None,,,,,,,,,,,,,,,,,,79,5,2025-02-21_13h29.24.439,comp,2024.2.4,60.08265421744219,2025-02-21 13h29.41.849708 -0500,
125,125,0,critical,hwd,20.0,3.0,lower,133.0,57.0,57.0,133.0,78.0,78.0,2,1.1762993335723877,None,,,,,0,0,0,0,0,125,125,104,508.6595895290375,,,,,,,,,,,,,,,,,,,,,,,,,,,,,,,,,,,,,,,,,,,,,,,,,,,,,,,,,,,,,,,,,,,,,,,,,,,,,,,,,133.0,57.0,57.0,133.0,78.0,78.0,3.0,3.1,-191,269,0,-3,202,-290,508.6450958251953,508.64513540267944,508.64726090431213,508.6595895290375,508.8095507621765,508.8095507621765,508.8095507621765,508.8095507621765,508.8095507621765,508.8095507621765,508.8095507621765,509.84406042099,2,1.1762993335723877,None,,,,,,,,,,,,,,,,,,79,5,2025-02-21_13h29.24.439,comp,2024.2.4,60.08265421744219,2025-02-21 13h29.41.849708 -0500,
126,126,0,filler_square,None,None,None,None,None,None,None,None,None,None,3,1.4001357555389404,None,,,,,0,0,0,0,0,126,126,192,509.8597614765167,,,,,,,,,,,,,,,,,,,,,,,,,,,,,,,,,,,,,,,,,,,,,,,,,,,,,,,,,,,,,,,,,,,,,,,,,,,,,,,,,61.80327594153731,66.13483504285833,70.40505751071487,68.52103240603466,74.60066302358004,74.60066302358004,3.0,3.2,-163,-271,0,20,168,269,509.8450653553009,509.84510707855225,509.84767603874207,509.8597614765167,510.0095944404602,510.0095944404602,510.0095944404602,510.0095944404602,510.0095944404602,510.0095944404602,510.0095944404602,511.27738308906555,3,1.4001357555389404,None,,,,,,,,,,,,,,,,,,79,5,2025-02-21_13h29.24.439,comp,2024.2.4,60.08265421744219,2025-02-21 13h29.41.849708 -0500,
127,127,0,critical,whd,20.0,2.1,lower,57.0,133.0,133.0,57.0,78.0,78.0,2,1.0218136310577393,None,,,,,0,0,0,0,0,127,127,38,511.29297852516174,,,,,,,,,,,,,,,,,,,,,,,,,,,,,,,,,,,,,,,,,,,,,,,,,,,,,,,,,,,,,,,,,,,,,,,,,,,,,,,,,57.0,133.0,133.0,57.0,78.0,78.0,2.1,2.11,-191,262,0,275,164,-273,511.27821159362793,511.2782533168793,511.28093218803406,511.29297852516174,511.44314432144165,511.44314432144165,511.44314432144165,511.44314432144165,511.44314432144165,511.44314432144165,511.44314432144165,512.3274304866791,2,1.0218136310577393,None,,,,,,,,,,,,,,,,,,79,5,2025-02-21_13h29.24.439,comp,2024.2.4,60.08265421744219,2025-02-21 13h29.41.849708 -0500,
128,128,0,critical,dwh,35.0,1.0,lower,70.0,70.0,57.0,133.0,133.0,57.0,3,1.1004996299743652,None,,,,,0,0,0,0,0,128,128,60,512.342832326889,,,,,,,,,,,,,,,,,,,,,,,,,,,,,,,,,,,,,,,,,,,,,,,,,,,,,,,,,,,,,,,,,,,,,,,,,,,,,,,,,70.0,70.0,57.0,133.0,133.0,57.0,1.0,1.2,-198,-9,0,-8,191,-1,512.3281877040863,512.3282289505005,512.3302433490753,512.342832326889,512.4929919242859,512.4929919242859,512.4929919242859,512.4929919242859,512.4929919242859,512.4929919242859,512.4929919242859,513.4606838226318,3,1.1004996299743652,None,,,,,,,,,,,,,,,,,,79,5,2025-02-21_13h29.24.439,comp,2024.2.4,60.08265421744219,2025-02-21 13h29.41.849708 -0500,
129,129,0,filler_square,None,None,None,None,None,None,None,None,None,None,3,1.0651326179504395,None,,,,,0,0,0,0,0,129,129,172,513.4762089252472,,,,,,,,,,,,,,,,,,,,,,,,,,,,,,,,,,,,,,,,,,,,,,,,,,,,,,,,,,,,,,,,,,,,,,,,,,,,,,,,,59.842338761095114,79.00974675354422,82.27684861223963,72.18940713334743,87.30464617414106,87.30464617414106,2.2,2.22,-172,282,0,-266,176,-257,513.4616515636444,513.4616913795471,513.4640583992004,513.4762089252472,513.6261882781982,513.6261882781982,513.6261882781982,513.6261882781982,513.6261882781982,513.6261882781982,513.6261882781982,514.5441806316376,3,1.0651326179504395,None,,,,,,,,,,,,,,,,,,79,5,2025-02-21_13h29.24.439,comp,2024.2.4,60.08265421744219,2025-02-21 13h29.41.849708 -0500,
130,130,0,filler_random,None,None,None,None,None,None,None,None,None,None,2,53.72436261177063,None,,,,,0,0,0,0,0,130,130,144,514.5597801208496,,,,,,,,,,,,,,,,,,,,,,,,,,,,,,,,,,,,,,,,,,,,,,,,,,,,,,,,,,,,,,,,,,,,,,,,,,,,,,,,,149.57199707705962,199.39052747022998,180.15853552393983,187.4742062181361,136.14299609491204,64.7166355927114,2.1,2.11,-289,278,0,284,222,-287,514.5450625419617,514.5451045036316,514.5475463867188,514.5597801208496,514.7097804546356,514.7097804546356,514.7097804546356,514.7097804546356,514.7097804546356,514.7097804546356,514.7097804546356,568.2940702438354,2,53.72436261177063,None,,,,,,,,,,,,,,,,,,79,5,2025-02-21_13h29.24.439,comp,2024.2.4,60.08265421744219,2025-02-21 13h29.41.849708 -0500,
131,131,0,filler_square,None,None,None,None,None,None,None,None,None,None,3,2.18882155418396,None,,,,,0,0,0,0,0,131,131,198,568.3095140457153,,,,,,,,,,,,,,,,,,,,,,,,,,,,,,,,,,,,,,,,,,,,,,,,,,,,,,,,,,,,,,,,,,,,,,,,,,,,,,,,,57.45990519983692,69.16176128990024,68.97130196439353,62.23170677297715,87.8944782372338,87.8944782372338,2.1,2.11,-162,271,0,281,171,-276,568.2950541973114,568.2950973510742,568.2975113391876,568.3095140457153,568.4592490196228,568.4592490196228,568.4592490196228,568.4592490196228,568.4592490196228,568.4592490196228,568.4592490196228,570.5107319355011,3,2.18882155418396,None,,,,,,,,,,,,,,,,,,79,5,2025-02-21_13h29.24.439,comp,2024.2.4,60.08265421744219,2025-02-21 13h29.41.849708 -0500,
132,132,0,critical,hdw,35.0,1.0,lower,133.0,57.0,70.0,70.0,57.0,133.0,1,1.4525949954986572,None,,,,,0,0,0,0,0,132,132,108,570.5258476734161,,,,,,,,,,,,,,,,,,,,,,,,,,,,,,,,,,,,,,,,,,,,,,,,,,,,,,,,,,,,,,,,,,,,,,,,,,,,,,,,,133.0,57.0,70.0,70.0,57.0,133.0,1.0,1.2,-160,-9,0,-19,198,2,570.5114915370941,570.5115509033203,570.5136466026306,570.5258476734161,570.6760935783386,570.6760935783386,570.6760935783386,570.6760935783386,570.6760935783386,570.6760935783386,570.6760935783386,571.9935777187347,1,1.4525949954986572,None,,,,,,,,,,,,,,,,,,79,5,2025-02-21_13h29.24.439,comp,2024.2.4,60.08265421744219,2025-02-21 13h29.41.849708 -0500,
133,133,0,filler_square,None,None,None,None,None,None,None,None,None,None,3,1.6507108211517334,None,,,,,0,0,0,0,0,133,133,186,572.0090725421906,,,,,,,,,,,,,,,,,,,,,,,,,,,,,,,,,,,,,,,,,,,,,,,,,,,,,,,,,,,,,,,,,,,,,,,,,,,,,,,,,64.79067393416605,64.08955254273826,65.70334914084613,65.70334914084613,60.57600259823124,64.84266754056807,1.0,1.2,-161,5,0,-6,161,19,571.9945018291473,571.9945578575134,571.9969305992126,572.0090725421906,572.1592044830322,572.1592044830322,572.1592044830322,572.1592044830322,572.1592044830322,572.1592044830322,572.1592044830322,573.676910161972,3,1.6507108211517334,None,,,,,,,,,,,,,,,,,,79,5,2025-02-21_13h29.24.439,comp,2024.2.4,60.08265421744219,2025-02-21 13h29.41.849708 -0500,
134,134,0,critical,hwd,20.0,2.1,upper,200.0,125.0,125.0,200.0,141.0,141.0,2,1.7430789470672607,None,,,,,0,0,0,0,0,134,134,43,573.6923093795776,,,,,,,,,,,,,,,,,,,,,,,,,,,,,,,,,,,,,,,,,,,,,,,,,,,,,,,,,,,,,,,,,,,,,,,,,,,,,,,,,200.0,125.0,125.0,200.0,141.0,141.0,2.1,2.12,-258,-250,0,-253,266,286,573.6776986122131,573.6777391433716,573.6801495552063,573.6923093795776,573.8429024219513,573.8429024219513,573.8429024219513,573.8429024219513,573.8429024219513,573.8429024219513,573.8429024219513,575.4439010620117,2,1.7430789470672607,None,,,,,,,,,,,,,,,,,,79,5,2025-02-21_13h29.24.439,comp,2024.2.4,60.08265421744219,2025-02-21 13h29.41.849708 -0500,
135,135,0,critical,dhw,35.0,2.1,upper,127.0,127.0,200.0,125.0,125.0,200.0,2,0.8549900054931641,None,,,,,0,0,0,0,0,135,135,25,575.4593660831451,,,,,,,,,,,,,,,,,,,,,,,,,,,,,,,,,,,,,,,,,,,,,,,,,,,,,,,,,,,,,,,,,,,,,,,,,,,,,,,,,127.0,127.0,200.0,125.0,125.0,200.0,2.1,2.11,-222,252,0,271,258,-251,575.4447367191315,575.4447767734528,575.4468858242035,575.4593660831451,575.6093821525574,575.6093821525574,575.6093821525574,575.6093821525574,575.6093821525574,575.6093821525574,575.6093821525574,576.3272435665131,2,0.8549900054931641,None,,,,,,,,,,,,,,,,,,79,5,2025-02-21_13h29.24.439,comp,2024.2.4,60.08265421744219,2025-02-21 13h29.41.849708 -0500,
136,136,0,critical,dwh,35.0,2.1,upper,127.0,127.0,125.0,200.0,200.0,125.0,2,0.9249904155731201,None,,,,,0,0,0,0,0,136,136,5,576.3424644470215,,,,,,,,,,,,,,,,,,,,,,,,,,,,,,,,,,,,,,,,,,,,,,,,,,,,,,,,,,,,,,,,,,,,,,,,,,,,,,,,,127.0,127.0,125.0,200.0,200.0,125.0,2.1,2.12,-260,-252,0,-275,258,269,576.3280510902405,576.3280928134918,576.3307199478149,576.3424644470215,576.4927942752838,576.4927942752838,576.4927942752838,576.4927942752838,576.4927942752838,576.4927942752838,576.4927942752838,577.2771327495575,2,0.9249904155731201,None,,,,,,,,,,,,,,,,,,79,5,2025-02-21_13h29.24.439,comp,2024.2.4,60.08265421744219,2025-02-21 13h29.41.849708 -0500,
137,137,0,critical,hdw,20.0,2.1,lower,133.0,57.0,78.0,78.0,57.0,133.0,3,1.1106104850769043,None,,,,,0,0,0,0,0,137,137,22,577.292662858963,,,,,,,,,,,,,,,,,,,,,,,,,,,,,,,,,,,,,,,,,,,,,,,,,,,,,,,,,,,,,,,,,,,,,,,,,,,,,,,,,133.0,57.0,78.0,78.0,57.0,133.0,2.1,2.11,-164,261,0,254,202,-263,577.2779264450073,577.2779686450958,577.2803950309753,577.292662858963,577.4425857067108,577.4425857067108,577.4425857067108,577.4425857067108,577.4425857067108,577.4425857067108,577.4425857067108,578.4104416370392,3,1.1106104850769043,None,,,,,,,,,,,,,,,,,,79,5,2025-02-21_13h29.24.439,comp,2024.2.4,60.08265421744219,2025-02-21 13h29.41.849708 -0500,
138,138,0,filler_square,None,None,None,None,None,None,None,None,None,None,3,1.0720665454864502,None,,,,,0,0,0,0,0,138,138,194,578.4263110160828,,,,,,,,,,,,,,,,,,,,,,,,,,,,,,,,,,,,,,,,,,,,,,,,,,,,,,,,,,,,,,,,,,,,,,,,,,,,,,,,,58.29102120907824,57.27764609470559,64.16988558541445,64.16988558541445,58.61142055796111,63.55293883116054,2.1,2.11,-157,254,0,272,160,-274,578.411358833313,578.41139960289,578.4132564067841,578.4263110160828,578.5759401321411,578.5759401321411,578.5759401321411,578.5759401321411,578.5759401321411,578.5759401321411,578.5759401321411,579.5103294849396,3,1.0720665454864502,None,,,,,,,,,,,,,,,,,,79,5,2025-02-21_13h29.24.439,comp,2024.2.4,60.08265421744219,2025-02-21 13h29.41.849708 -0500,
139,139,0,filler_square,None,None,None,None,None,None,None,None,None,None,3,0.9580192565917969,None,,,,,0,0,0,0,0,139,139,208,579.5256950855255,,,,,,,,,,,,,,,,,,,,,,,,,,,,,,,,,,,,,,,,,,,,,,,,,,,,,,,,,,,,,,,,,,,,,,,,,,,,,,,,,60.77780863791145,81.77721365523448,83.36062216028988,75.28607423942836,97.81038276566957,97.81038276566957,4.0,4.1,-175,-280,0,13,183,-281,579.5112762451172,579.5113174915314,579.5139186382294,579.5256950855255,579.6759016513824,579.6759016513824,579.6759016513824,579.6759016513824,579.6759016513824,579.6759016513824,579.6759016513824,580.4938523769379,3,0.9580192565917969,None,,,,,,,,,,,,,,,,,,79,5,2025-02-21_13h29.24.439,comp,2024.2.4,60.08265421744219,2025-02-21 13h29.41.849708 -0500,
140,140,0,filler_square,None,None,None,None,None,None,None,None,None,None,2,1.366548776626587,None,,,,,0,0,0,0,0,140,140,190,580.5094208717346,,,,,,,,,,,,,,,,,,,,,,,,,,,,,,,,,,,,,,,,,,,,,,,,,,,,,,,,,,,,,,,,,,,,,,,,,,,,,,,,,84.58438730045108,84.58438730045108,70.4932414608887,81.77416853353841,82.72955209089518,59.88168359774608,2.2,2.22,-179,278,0,-277,167,-273,580.4948451519012,580.4948887825012,580.4971907138824,580.5094208717346,580.6592371463776,580.6592371463776,580.6592371463776,580.6592371463776,580.6592371463776,580.6592371463776,580.6592371463776,581.8936545848846,2,1.366548776626587,None,,,,,,,,,,,,,,,,,,79,5,2025-02-21_13h29.24.439,comp,2024.2.4,60.08265421744219,2025-02-21 13h29.41.849708 -0500,
