thisN,thisTrialN,thisRepN,effect,order,distance,config,diag,h_1,w_1,h_2,w_2,h_3,w_3,rect_choice.keys,rect_choice.rt,rect_choice.duration,instructions_loop.thisRepN,instructions_loop.thisTrialN,instructions_loop.thisN,instructions_loop.thisIndex,blocks.thisRepN,blocks.thisTrialN,blocks.thisN,blocks.thisIndex,trials.thisRepN,trials.thisTrialN,trials.thisN,trials.thisIndex,thisRow.t,notes,consent.started,agree_button.started,decline_button.started,consent_img.started,mouse.started,consent.stopped,agree_button.numClicks,agree_button.timesOn,agree_button.timesOff,decline_button.numClicks,decline_button.timesOn,decline_button.timesOff,mouse.x,mouse.y,mouse.leftButton,mouse.midButton,mouse.rightButton,mouse.time,mouse.clicked_name,exp_params.started,exp_params.stopped,welcome.started,welcome_text.started,welcome.stopped,instructions_1.started,instructions_1_text_1.started,instructions_1_text_2.started,key_resp.started,instructions_1.stopped,instructions_loop.key_resp.keys,instructions_loop.key_resp.rt,instructions_loop.key_resp.duration,instructions_2.started,instructions_2_text_1.started,instructions_2_text_2.started,key_resp_2.started,instructions_2.stopped,instructions_loop.key_resp_2.keys,instructions_loop.key_resp_2.rt,instructions_loop.key_resp_2.duration,instructions_3.started,instructions_3_text_1.started,r1_instr3.started,r2_instr3.started,r3_instr3.started,r1_instr3_label.started,r2_instr3_label.started,r3_instr3_label.started,instructions_3_text_3.started,instructions_3_text_4.started,key_resp_3.started,instructions_3.stopped,instructions_loop.key_resp_3.keys,instructions_loop.key_resp_3.rt,instructions_loop.key_resp_3.duration,instructions_4.started,instructions_4_text_1.started,instructions_4_text_3.started,instructions_4_text_2.started,key_resp_4.started,instructions_4.stopped,instructions_loop.key_resp_4.keys,instructions_loop.key_resp_4.rt,instructions_loop.key_resp_4.duration,instructions_5.started,instructions_5_text_1.started,instructions_5_text_2.started,key_resp_5.started,instructions_5.stopped,instructions_loop.key_resp_5.keys,instructions_loop.key_resp_5.rt,instructions_loop.key_resp_5.duration,start_exp.started,start_exp_text.started,key_resp_6.started,start_exp.stopped,key_resp_6.keys,key_resp_6.rt,key_resp_6.duration,h_1_tmp,w_1_tmp,h_2_tmp,w_2_tmp,h_3_tmp,w_3_tmp,config_tmp,config_tmp_1,r_1_x,r_1_y,r_2_x,r_2_y,r_3_x,r_3_y,pre_trial.started,pre_trial.stopped,choice_trial.started,rect_choice.started,r_1.started,r_2.started,r_3.started,r_1_label.started,r_2_label.started,r_3_label.started,prompt.started,choice_trial.stopped,trials.rect_choice.keys,trials.rect_choice.rt,trials.rect_choice.duration,end_block.started,end_block_text.started,end_block.stopped,end.started,end_text.started,key_resp_7.started,end.stopped,key_resp_7.keys,key_resp_7.rt,key_resp_7.duration,debriefing.started,debrief_form.started,end_debrief.started,debriefing.stopped,end_debrief.keys,end_debrief.rt,end_debrief.duration,participant,computer,date,expName,psychopyVersion,frameRate,expStart,
,,,,,,,,,,,,,,,,,,,,,,,,,,,,,,,0.015399694442749023,0.038506269454956055,0.038506269454956055,0.038506269454956055,0.015199422836303711,20.21614670753479,1,[20.175053119659424],[20.175076723098755],0,,,[-33.0],[-495.0],[1],[0],[0],[20.200162887573242],['agree_button'],,,,,,,,,,,,,,,,,,,,,,,,,,,,,,,,,,,,,,,,,,,,,,,,,,,,,,,,,,,,,,,,,,,,,,,,,,,,,,,,,,,,,,,,,,,,,,,,,,,,,,,,,,,7,1,2025-02-18_12h57.20.047,comp,2024.2.4,56.12903657490488,2025-02-18 13h00.13.306774 -0500,
,,,,,,,,,,,,,,,,,,,,,,,,,,,,,,,,,,,,,,,,,,,,,,,,,,20.216716766357422,20.216784715652466,,,,,,,,,,,,,,,,,,,,,,,,,,,,,,,,,,,,,,,,,,,,,,,,,,,,,,,,,,,,,,,,,,,,,,,,,,,,,,,,,,,,,,,,,,,,,,,,,,,,,,,,,7,1,2025-02-18_12h57.20.047,comp,2024.2.4,56.12903657490488,2025-02-18 13h00.13.306774 -0500,
,,,,,,,,,,,,,,,,,,,,,,,,,,,,,,,,,,,,,,,,,,,,,,,,,,,,20.2168288230896,20.233203887939453,22.22248888015747,,,,,,,,,,,,,,,,,,,,,,,,,,,,,,,,,,,,,,,,,,,,,,,,,,,,,,,,,,,,,,,,,,,,,,,,,,,,,,,,,,,,,,,,,,,,,,,,,,,,,,7,1,2025-02-18_12h57.20.047,comp,2024.2.4,56.12903657490488,2025-02-18 13h00.13.306774 -0500,
0,0,0,,,,,,,,,,,,,,,0,0,0,0,,,,,,,,,22.239012241363525,,,,,,,,,,,,,,,,,,,,,,,,,,22.22337770462036,22.239012241363525,22.239012241363525,23.722909212112427,27.125332832336426,space,3.3916962146759033,None,27.12547540664673,27.14241361618042,27.14241361618042,28.641141891479492,35.53335952758789,space,6.881358623504639,None,35.533549308776855,35.56383037567139,35.56383037567139,35.56383037567139,35.56383037567139,35.56383037567139,35.56383037567139,35.56383037567139,35.56383037567139,35.56383037567139,37.04263973236084,41.734594106674194,space,4.687906265258789,None,41.73475766181946,41.75226855278015,41.75226855278015,41.75226855278015,43.24571347236633,50.40017795562744,space,7.14044976234436,None,50.4003221988678,50.41509509086609,50.41509509086609,51.904425621032715,53.000792026519775,space,1.0814530849456787,None,53.000993967056274,53.0154812335968,53.0154812335968,54.10039973258972,space,1.0822911262512207,None,,,,,,,,,,,,,,,,,,,,,,,,,,,,,,,,,,,,,,,,,,,,,,,7,1,2025-02-18_12h57.20.047,comp,2024.2.4,56.12903657490488,2025-02-18 13h00.13.306774 -0500,
0,0,0,critical,whd,20.0,2.1,lower,57.0,133.0,133.0,57.0,78.0,78.0,2,14.68662166595459,None,,,,,0,0,0,0,0,0,0,14,54.180238246917725,,,,,,,,,,,,,,,,,,,,,,,,,,,,,,,,,,,,,,,,,,,,,,,,,,,,,,,,,,,,,,,,,,,,,,,,,,,,,,,,,57.0,133.0,133.0,57.0,78.0,78.0,2.1,2.12,-191,-288,0,-255,164,281,54.16335153579712,54.163384199142456,54.1646831035614,54.180238246917725,54.32533669471741,54.32533669471741,54.32533669471741,54.32533669471741,54.32533669471741,54.32533669471741,54.32533669471741,68.8730399608612,2,14.68662166595459,None,,,,,,,,,,,,,,,,,,7,1,2025-02-18_12h57.20.047,comp,2024.2.4,56.12903657490488,2025-02-18 13h00.13.306774 -0500,
1,1,0,critical,hwd,20.0,2.1,lower,133.0,57.0,57.0,133.0,78.0,78.0,1,6.106162786483765,None,,,,,0,0,0,0,0,1,1,42,68.88788342475891,,,,,,,,,,,,,,,,,,,,,,,,,,,,,,,,,,,,,,,,,,,,,,,,,,,,,,,,,,,,,,,,,,,,,,,,,,,,,,,,,133.0,57.0,57.0,133.0,78.0,78.0,2.1,2.12,-191,-274,0,-284,202,261,68.87441229820251,68.87447428703308,68.87708449363708,68.88788342475891,69.04778552055359,69.04778552055359,69.04778552055359,69.04778552055359,69.04778552055359,69.04778552055359,69.04778552055359,75.0069944858551,1,6.106162786483765,None,,,,,,,,,,,,,,,,,,7,1,2025-02-18_12h57.20.047,comp,2024.2.4,56.12903657490488,2025-02-18 13h00.13.306774 -0500,
2,2,0,critical,dhw,35.0,2.1,lower,70.0,70.0,133.0,57.0,57.0,133.0,2,2.707037925720215,None,,,,,0,0,0,0,0,2,2,0,75.02296257019043,,,,,,,,,,,,,,,,,,,,,,,,,,,,,,,,,,,,,,,,,,,,,,,,,,,,,,,,,,,,,,,,,,,,,,,,,,,,,,,,,70.0,70.0,133.0,57.0,57.0,133.0,2.1,2.12,-160,-287,0,-278,191,262,75.00852823257446,75.00861406326294,75.01172661781311,75.02296257019043,75.17442440986633,75.17442440986633,75.17442440986633,75.17442440986633,75.17442440986633,75.17442440986633,75.17442440986633,77.7411756515503,2,2.707037925720215,None,,,,,,,,,,,,,,,,,,7,1,2025-02-18_12h57.20.047,comp,2024.2.4,56.12903657490488,2025-02-18 13h00.13.306774 -0500,
3,3,0,critical,hwd,35.0,2.1,lower,133.0,57.0,57.0,133.0,70.0,70.0,1,4.421099901199341,None,,,,,0,0,0,0,0,3,3,16,77.75694990158081,,,,,,,,,,,,,,,,,,,,,,,,,,,,,,,,,,,,,,,,,,,,,,,,,,,,,,,,,,,,,,,,,,,,,,,,,,,,,,,,,133.0,57.0,57.0,133.0,70.0,70.0,2.1,2.11,-191,256,0,262,198,-281,77.74273109436035,77.74281024932861,77.74606132507324,77.75694990158081,77.91074061393738,77.91074061393738,77.91074061393738,77.91074061393738,77.91074061393738,77.91074061393738,77.91074061393738,82.19261574745178,1,4.421099901199341,None,,,,,,,,,,,,,,,,,,7,1,2025-02-18_12h57.20.047,comp,2024.2.4,56.12903657490488,2025-02-18 13h00.13.306774 -0500,
4,4,0,critical,whd,20.0,2.1,lower,57.0,133.0,133.0,57.0,78.0,78.0,2,7.882025480270386,None,,,,,0,0,0,0,0,4,4,38,82.20859742164612,,,,,,,,,,,,,,,,,,,,,,,,,,,,,,,,,,,,,,,,,,,,,,,,,,,,,,,,,,,,,,,,,,,,,,,,,,,,,,,,,57.0,133.0,133.0,57.0,78.0,78.0,2.1,2.12,-191,-262,0,-256,164,278,82.19418382644653,82.19426345825195,82.19737410545349,82.20859742164612,82.3627917766571,82.3627917766571,82.3627917766571,82.3627917766571,82.3627917766571,82.3627917766571,82.3627917766571,90.09610080718994,2,7.882025480270386,None,,,,,,,,,,,,,,,,,,7,1,2025-02-18_12h57.20.047,comp,2024.2.4,56.12903657490488,2025-02-18 13h00.13.306774 -0500,
5,5,0,critical,hwd,20.0,4.0,lower,133.0,57.0,57.0,133.0,78.0,78.0,1,8.15366244316101,None,,,,,0,0,0,0,0,5,5,106,90.11254119873047,,,,,,,,,,,,,,,,,,,,,,,,,,,,,,,,,,,,,,,,,,,,,,,,,,,,,,,,,,,,,,,,,,,,,,,,,,,,,,,,,133.0,57.0,57.0,133.0,78.0,78.0,4.0,4.1,-191,-280,0,12,202,-271,90.09777545928955,90.09791135787964,90.10150957107544,90.11254119873047,90.26063871383667,90.26063871383667,90.26063871383667,90.26063871383667,90.26063871383667,90.26063871383667,90.26063871383667,98.2825722694397,1,8.15366244316101,None,,,,,,,,,,,,,,,,,,7,1,2025-02-18_12h57.20.047,comp,2024.2.4,56.12903657490488,2025-02-18 13h00.13.306774 -0500,
6,6,0,critical,wdh,20.0,1.0,lower,57.0,133.0,78.0,78.0,133.0,57.0,3,10.208351612091064,None,,,,,0,0,0,0,0,6,6,78,98.29800343513489,,,,,,,,,,,,,,,,,,,,,,,,,,,,,,,,,,,,,,,,,,,,,,,,,,,,,,,,,,,,,,,,,,,,,,,,,,,,,,,,,57.0,133.0,78.0,78.0,133.0,57.0,1.0,1.2,-202,-6,0,6,164,-13,98.28413963317871,98.2842493057251,98.28774404525757,98.29800343513489,98.44876456260681,98.44876456260681,98.44876456260681,98.44876456260681,98.44876456260681,98.44876456260681,98.44876456260681,108.5177538394928,3,10.208351612091064,None,,,,,,,,,,,,,,,,,,7,1,2025-02-18_12h57.20.047,comp,2024.2.4,56.12903657490488,2025-02-18 13h00.13.306774 -0500,
7,7,0,filler_random,None,None,None,None,None,None,None,None,None,None,3,4.5555055141448975,None,,,,,0,0,0,0,0,7,7,137,108.53485798835754,,,,,,,,,,,,,,,,,,,,,,,,,,,,,,,,,,,,,,,,,,,,,,,,,,,,,,,,,,,,,,,,,,,,,,,,,,,,,,,,,112.2307142009049,91.98931031525157,196.85082010193943,63.03061275234036,180.05509049807853,144.33335187571967,2.2,2.22,-174,256,0,-269,200,-272,108.5195643901825,108.51965022087097,108.5231716632843,108.53485798835754,108.68462920188904,108.68462920188904,108.68462920188904,108.68462920188904,108.68462920188904,108.68462920188904,108.68462920188904,113.1037266254425,3,4.5555055141448975,None,,,,,,,,,,,,,,,,,,7,1,2025-02-18_12h57.20.047,comp,2024.2.4,56.12903657490488,2025-02-18 13h00.13.306774 -0500,
8,8,0,critical,whd,35.0,4.0,lower,57.0,133.0,133.0,57.0,70.0,70.0,1,7.012625217437744,None,,,,,0,0,0,0,0,8,8,88,113.12026739120483,,,,,,,,,,,,,,,,,,,,,,,,,,,,,,,,,,,,,,,,,,,,,,,,,,,,,,,,,,,,,,,,,,,,,,,,,,,,,,,,,57.0,133.0,133.0,57.0,70.0,70.0,4.0,4.1,-191,-262,0,14,160,-254,113.10531449317932,113.10539150238037,113.10977077484131,113.12026739120483,113.27263331413269,113.27263331413269,113.27263331413269,113.27263331413269,113.27263331413269,113.27263331413269,113.27263331413269,120.13667702674866,1,7.012625217437744,None,,,,,,,,,,,,,,,,,,7,1,2025-02-18_12h57.20.047,comp,2024.2.4,56.12903657490488,2025-02-18 13h00.13.306774 -0500,
9,9,0,critical,hwd,20.0,2.1,upper,200.0,125.0,125.0,200.0,141.0,141.0,1,5.417101621627808,None,,,,,0,0,0,0,0,9,9,43,120.15407538414001,,,,,,,,,,,,,,,,,,,,,,,,,,,,,,,,,,,,,,,,,,,,,,,,,,,,,,,,,,,,,,,,,,,,,,,,,,,,,,,,,200.0,125.0,125.0,200.0,141.0,141.0,2.1,2.12,-258,-290,0,-259,266,283,120.13837957382202,120.13845825195312,120.14200353622437,120.15407538414001,120.29489493370056,120.29489493370056,120.29489493370056,120.29489493370056,120.29489493370056,120.29489493370056,120.29489493370056,125.5736837387085,1,5.417101621627808,None,,,,,,,,,,,,,,,,,,7,1,2025-02-18_12h57.20.047,comp,2024.2.4,56.12903657490488,2025-02-18 13h00.13.306774 -0500,
10,10,0,critical,wdh,35.0,4.0,lower,57.0,133.0,70.0,70.0,133.0,57.0,3,3.948371410369873,None,,,,,0,0,0,0,0,10,10,76,125.59059619903564,,,,,,,,,,,,,,,,,,,,,,,,,,,,,,,,,,,,,,,,,,,,,,,,,,,,,,,,,,,,,,,,,,,,,,,,,,,,,,,,,57.0,133.0,70.0,70.0,133.0,57.0,4.0,4.2,-198,5,0,-255,160,-10,125.57523488998413,125.57531523704529,125.57894206047058,125.59059619903564,125.740638256073,125.740638256073,125.740638256073,125.740638256073,125.740638256073,125.740638256073,125.740638256073,129.54221653938293,3,3.948371410369873,None,,,,,,,,,,,,,,,,,,7,1,2025-02-18_12h57.20.047,comp,2024.2.4,56.12903657490488,2025-02-18 13h00.13.306774 -0500,
11,11,0,critical,hwd,20.0,4.0,upper,200.0,125.0,125.0,200.0,141.0,141.0,2,7.50874662399292,None,,,,,0,0,0,0,0,11,11,107,129.55862593650818,,,,,,,,,,,,,,,,,,,,,,,,,,,,,,,,,,,,,,,,,,,,,,,,,,,,,,,,,,,,,,,,,,,,,,,,,,,,,,,,,200.0,125.0,125.0,200.0,141.0,141.0,4.0,4.2,-258,20,0,-256,266,-1,129.54391431808472,129.54399347305298,129.5477442741394,129.55862593650818,129.7079713344574,129.7079713344574,129.7079713344574,129.7079713344574,129.7079713344574,129.7079713344574,129.7079713344574,137.07759141921997,2,7.50874662399292,None,,,,,,,,,,,,,,,,,,7,1,2025-02-18_12h57.20.047,comp,2024.2.4,56.12903657490488,2025-02-18 13h00.13.306774 -0500,
12,12,0,critical,dwh,20.0,2.1,lower,78.0,78.0,57.0,133.0,133.0,57.0,3,5.989028692245483,None,,,,,0,0,0,0,0,12,12,6,137.0937056541443,,,,,,,,,,,,,,,,,,,,,,,,,,,,,,,,,,,,,,,,,,,,,,,,,,,,,,,,,,,,,,,,,,,,,,,,,,,,,,,,,78.0,78.0,57.0,133.0,133.0,57.0,2.1,2.12,-202,-279,0,-279,191,288,137.07922768592834,137.07931089401245,137.08293509483337,137.0937056541443,137.23192381858826,137.23192381858826,137.23192381858826,137.23192381858826,137.23192381858826,137.23192381858826,137.23192381858826,143.09736227989197,3,5.989028692245483,None,,,,,,,,,,,,,,,,,,7,1,2025-02-18_12h57.20.047,comp,2024.2.4,56.12903657490488,2025-02-18 13h00.13.306774 -0500,
13,13,0,critical,hwd,35.0,3.0,lower,133.0,57.0,57.0,133.0,70.0,70.0,2,10.481309652328491,None,,,,,0,0,0,0,0,13,13,98,143.1134819984436,,,,,,,,,,,,,,,,,,,,,,,,,,,,,,,,,,,,,,,,,,,,,,,,,,,,,,,,,,,,,,,,,,,,,,,,,,,,,,,,,133.0,57.0,57.0,133.0,70.0,70.0,3.0,3.1,-191,276,0,6,198,-275,143.0990869998932,143.09916472434998,143.10316681861877,143.1134819984436,143.26254677772522,143.26254677772522,143.26254677772522,143.26254677772522,143.26254677772522,143.26254677772522,143.26254677772522,153.60076236724854,2,10.481309652328491,None,,,,,,,,,,,,,,,,,,7,1,2025-02-18_12h57.20.047,comp,2024.2.4,56.12903657490488,2025-02-18 13h00.13.306774 -0500,
14,14,0,critical,whd,35.0,2.1,lower,57.0,133.0,133.0,57.0,70.0,70.0,2,10.599955797195435,None,,,,,0,0,0,0,0,14,14,36,153.61921787261963,,,,,,,,,,,,,,,,,,,,,,,,,,,,,,,,,,,,,,,,,,,,,,,,,,,,,,,,,,,,,,,,,,,,,,,,,,,,,,,,,57.0,133.0,133.0,57.0,70.0,70.0,2.1,2.12,-191,-278,0,-288,160,268,153.60231494903564,153.60239458084106,153.60589480400085,153.61921787261963,153.76586294174194,153.76586294174194,153.76586294174194,153.76586294174194,153.76586294174194,153.76586294174194,153.76586294174194,164.23682594299316,2,10.599955797195435,None,,,,,,,,,,,,,,,,,,7,1,2025-02-18_12h57.20.047,comp,2024.2.4,56.12903657490488,2025-02-18 13h00.13.306774 -0500,
15,15,0,critical,wdh,35.0,2.1,upper,125.0,200.0,127.0,127.0,200.0,125.0,1,4.350491046905518,None,,,,,0,0,0,0,0,15,15,9,164.25283908843994,,,,,,,,,,,,,,,,,,,,,,,,,,,,,,,,,,,,,,,,,,,,,,,,,,,,,,,,,,,,,,,,,,,,,,,,,,,,,,,,,125.0,200.0,127.0,127.0,200.0,125.0,2.1,2.12,-260,-286,0,-289,222,258,164.2385973930359,164.23873686790466,164.242356300354,164.25283908843994,164.40376710891724,164.40376710891724,164.40376710891724,164.40376710891724,164.40376710891724,164.40376710891724,164.40376710891724,168.62047839164734,1,4.350491046905518,None,,,,,,,,,,,,,,,,,,7,1,2025-02-18_12h57.20.047,comp,2024.2.4,56.12903657490488,2025-02-18 13h00.13.306774 -0500,
16,16,0,filler_square,None,None,None,None,None,None,None,None,None,None,2,2.319227457046509,None,,,,,0,0,0,0,0,16,16,174,168.63629698753357,,,,,,,,,,,,,,,,,,,,,,,,,,,,,,,,,,,,,,,,,,,,,,,,,,,,,,,,,,,,,,,,,,,,,,,,,,,,,,,,,108.3785321456208,140.23251795443758,197.06107086920565,197.06107086920565,154.48660788423268,102.12875969755524,2.1,2.11,-265,251,0,263,246,-275,168.62230348587036,168.62238073349,168.6260130405426,168.63629698753357,168.7924222946167,168.7924222946167,168.7924222946167,168.7924222946167,168.7924222946167,168.7924222946167,168.7924222946167,170.97418904304504,2,2.319227457046509,None,,,,,,,,,,,,,,,,,,7,1,2025-02-18_12h57.20.047,comp,2024.2.4,56.12903657490488,2025-02-18 13h00.13.306774 -0500,
17,17,0,filler_square,None,None,None,None,None,None,None,None,None,None,3,2.2289676666259766,None,,,,,0,0,0,0,0,17,17,189,170.99091792106628,,,,,,,,,,,,,,,,,,,,,,,,,,,,,,,,,,,,,,,,,,,,,,,,,,,,,,,,,,,,,,,,,,,,,,,,,,,,,,,,,62.26402172429604,88.72006388951706,63.21492715267827,80.03302995741828,100.90226842899315,100.90226842899315,1.0,1.2,-180,15,0,-16,186,-17,170.9764964580536,170.97661662101746,170.98040962219238,170.99091792106628,171.1380352973938,171.1380352973938,171.1380352973938,171.1380352973938,171.1380352973938,171.1380352973938,171.1380352973938,173.2264792919159,3,2.2289676666259766,None,,,,,,,,,,,,,,,,,,7,1,2025-02-18_12h57.20.047,comp,2024.2.4,56.12903657490488,2025-02-18 13h00.13.306774 -0500,
18,18,0,critical,hwd,20.0,3.0,upper,200.0,125.0,125.0,200.0,141.0,141.0,2,4.431584119796753,None,,,,,0,0,0,0,0,18,18,105,173.24337339401245,,,,,,,,,,,,,,,,,,,,,,,,,,,,,,,,,,,,,,,,,,,,,,,,,,,,,,,,,,,,,,,,,,,,,,,,,,,,,,,,,200.0,125.0,125.0,200.0,141.0,141.0,3.0,3.1,-258,286,0,19,266,-268,173.22806119918823,173.22814321517944,173.23239517211914,173.24337339401245,173.38787460327148,173.38787460327148,173.38787460327148,173.38787460327148,173.38787460327148,173.38787460327148,173.38787460327148,177.684725522995,2,4.431584119796753,None,,,,,,,,,,,,,,,,,,7,1,2025-02-18_12h57.20.047,comp,2024.2.4,56.12903657490488,2025-02-18 13h00.13.306774 -0500,
19,19,0,filler_random,None,None,None,None,None,None,None,None,None,None,1,3.445363759994507,None,,,,,0,0,0,0,0,19,19,162,177.70161032676697,,,,,,,,,,,,,,,,,,,,,,,,,,,,,,,,,,,,,,,,,,,,,,,,,,,,,,,,,,,,,,,,,,,,,,,,,,,,,,,,,130.49435793252417,155.70739319772463,95.70973913349007,132.61012991493973,179.07370930270835,89.05121460574347,2.2,2.22,-240,257,0,-262,207,-261,177.68649053573608,177.686598777771,177.68962168693542,177.70161032676697,177.84067273139954,177.84067273139954,177.84067273139954,177.84067273139954,177.84067273139954,177.84067273139954,177.84067273139954,181.15707516670227,1,3.445363759994507,None,,,,,,,,,,,,,,,,,,7,1,2025-02-18_12h57.20.047,comp,2024.2.4,56.12903657490488,2025-02-18 13h00.13.306774 -0500,
20,20,0,filler_random,None,None,None,None,None,None,None,None,None,None,3,2.789822816848755,None,,,,,0,0,0,0,0,20,20,142,181.17438459396362,,,,,,,,,,,,,,,,,,,,,,,,,,,,,,,,,,,,,,,,,,,,,,,,,,,,,,,,,,,,,,,,,,,,,,,,,,,,,,,,,104.26647829921646,119.06731431408676,136.8045272911918,185.76712929373372,194.25673301933867,176.31443937087553,4.0,4.2,-248,11,0,-262,277,10,181.15898537635803,181.15906524658203,181.16246271133423,181.17438459396362,181.32560753822327,181.32560753822327,181.32560753822327,181.32560753822327,181.32560753822327,181.32560753822327,181.32560753822327,183.9758701324463,3,2.789822816848755,None,,,,,,,,,,,,,,,,,,7,1,2025-02-18_12h57.20.047,comp,2024.2.4,56.12903657490488,2025-02-18 13h00.13.306774 -0500,
21,21,0,filler_square,None,None,None,None,None,None,None,None,None,None,2,1.7541089057922363,None,,,,,0,0,0,0,0,21,21,206,183.99294471740723,,,,,,,,,,,,,,,,,,,,,,,,,,,,,,,,,,,,,,,,,,,,,,,,,,,,,,,,,,,,,,,,,,,,,,,,,,,,,,,,,57.65843612674412,67.56201317538286,161.6147459335044,161.6147459335044,153.1334814484925,83.63687639703005,2.1,2.11,-211,270,0,278,219,-260,183.97777462005615,183.97785758972168,183.9820625782013,183.99294471740723,184.15018677711487,184.15018677711487,184.15018677711487,184.15018677711487,184.15018677711487,184.15018677711487,184.15018677711487,185.7586874961853,2,1.7541089057922363,None,,,,,,,,,,,,,,,,,,7,1,2025-02-18_12h57.20.047,comp,2024.2.4,56.12903657490488,2025-02-18 13h00.13.306774 -0500,
22,22,0,filler_square,None,None,None,None,None,None,None,None,None,None,3,1.5721042156219482,None,,,,,0,0,0,0,0,22,22,184,185.77506852149963,,,,,,,,,,,,,,,,,,,,,,,,,,,,,,,,,,,,,,,,,,,,,,,,,,,,,,,,,,,,,,,,,,,,,,,,,,,,,,,,,160.3932314103654,88.03307192777399,66.69475724253157,72.98217887204405,163.71919486027716,163.71919486027716,4.0,4.1,-177,-251,0,-10,214,-269,185.76056623458862,185.76064825057983,185.76409912109375,185.77506852149963,185.9264690876007,185.9264690876007,185.9264690876007,185.9264690876007,185.9264690876007,185.9264690876007,185.9264690876007,187.3620309829712,3,1.5721042156219482,None,,,,,,,,,,,,,,,,,,7,1,2025-02-18_12h57.20.047,comp,2024.2.4,56.12903657490488,2025-02-18 13h00.13.306774 -0500,
23,23,0,filler_random,None,None,None,None,None,None,None,None,None,None,3,1.6254737377166748,None,,,,,0,0,0,0,0,23,23,167,187.37768650054932,,,,,,,,,,,,,,,,,,,,,,,,,,,,,,,,,,,,,,,,,,,,,,,,,,,,,,,,,,,,,,,,,,,,,,,,,,,,,,,,,191.9347854304316,72.19517739457122,103.21352721777743,126.88956414817368,155.80245581485838,198.57249904229982,4.0,4.2,-196,-7,0,-258,259,8,187.36411428451538,187.36424589157104,187.3674008846283,187.37768650054932,187.52800869941711,187.52800869941711,187.52800869941711,187.52800869941711,187.52800869941711,187.52800869941711,187.52800869941711,189.0129747390747,3,1.6254737377166748,None,,,,,,,,,,,,,,,,,,7,1,2025-02-18_12h57.20.047,comp,2024.2.4,56.12903657490488,2025-02-18 13h00.13.306774 -0500,
24,24,0,critical,whd,20.0,2.1,upper,125.0,200.0,200.0,125.0,141.0,141.0,2,6.854007959365845,None,,,,,0,0,0,0,0,24,24,15,189.0301775932312,,,,,,,,,,,,,,,,,,,,,,,,,,,,,,,,,,,,,,,,,,,,,,,,,,,,,,,,,,,,,,,,,,,,,,,,,,,,,,,,,125.0,200.0,200.0,125.0,141.0,141.0,2.1,2.12,-258,-259,0,-273,229,286,189.01492166519165,189.01503801345825,189.0185308456421,189.0301775932312,189.1777834892273,189.1777834892273,189.1777834892273,189.1777834892273,189.1777834892273,189.1777834892273,189.1777834892273,195.8869264125824,2,6.854007959365845,None,,,,,,,,,,,,,,,,,,7,1,2025-02-18_12h57.20.047,comp,2024.2.4,56.12903657490488,2025-02-18 13h00.13.306774 -0500,
25,25,0,critical,hdw,35.0,1.0,lower,133.0,57.0,70.0,70.0,57.0,133.0,1,6.933450937271118,None,,,,,0,0,0,0,0,25,25,108,195.90172028541565,,,,,,,,,,,,,,,,,,,,,,,,,,,,,,,,,,,,,,,,,,,,,,,,,,,,,,,,,,,,,,,,,,,,,,,,,,,,,,,,,133.0,57.0,70.0,70.0,57.0,133.0,1.0,1.3,320,-278,480,-273,678,-265,195.8885350227356,195.88864469528198,195.8917248249054,195.90172028541565,196.0438916683197,196.0438916683197,196.0438916683197,196.0438916683197,196.0438916683197,196.0438916683197,196.0438916683197,202.84832787513733,1,6.933450937271118,None,,,,,,,,,,,,,,,,,,7,1,2025-02-18_12h57.20.047,comp,2024.2.4,56.12903657490488,2025-02-18 13h00.13.306774 -0500,
26,26,0,catch,None,None,None,None,None,None,None,None,None,None,2,1.3378114700317383,None,,,,,0,0,0,0,0,26,26,126,202.8653314113617,,,,,,,,,,,,,,,,,,,,,,,,,,,,,,,,,,,,,,,,,,,,,,,,,,,,,,,,,,,,,,,,,,,,,,,,,,,,,,,,,90,100,140,185,112,78,1.0,1.2,-238,19,0,-17,228,7,202.85055088996887,202.85063672065735,202.8544626235962,202.8653314113617,203.01460981369019,203.01460981369019,203.01460981369019,203.01460981369019,203.01460981369019,203.01460981369019,203.01460981369019,204.2181715965271,2,1.3378114700317383,None,,,,,,,,,,,,,,,,,,7,1,2025-02-18_12h57.20.047,comp,2024.2.4,56.12903657490488,2025-02-18 13h00.13.306774 -0500,
27,27,0,filler_random,None,None,None,None,None,None,None,None,None,None,2,2.1048591136932373,None,,,,,0,0,0,0,0,27,27,143,204.2345449924469,,,,,,,,,,,,,,,,,,,,,,,,,,,,,,,,,,,,,,,,,,,,,,,,,,,,,,,,,,,,,,,,,,,,,,,,,,,,,,,,,144.3714638574512,127.98221413536449,189.212782550175,117.68534484310202,196.73976037844034,64.3722667000001,3.0,3.2,-219,-258,0,11,187,287,204.22020363807678,204.22028374671936,204.22411131858826,204.2345449924469,204.39182806015015,204.39182806015015,204.39182806015015,204.39182806015015,204.39182806015015,204.39182806015015,204.39182806015015,206.3513331413269,2,2.1048591136932373,None,,,,,,,,,,,,,,,,,,7,1,2025-02-18_12h57.20.047,comp,2024.2.4,56.12903657490488,2025-02-18 13h00.13.306774 -0500,
28,28,0,critical,dwh,20.0,1.0,upper,141.0,141.0,125.0,200.0,200.0,125.0,3,9.575709819793701,None,,,,,0,0,0,0,0,28,28,67,206.37218236923218,,,,,,,,,,,,,,,,,,,,,,,,,,,,,,,,,,,,,,,,,,,,,,,,,,,,,,,,,,,,,,,,,,,,,,,,,,,,,,,,,141.0,141.0,125.0,200.0,200.0,125.0,1.0,1.3,214,-262,480,-251,738,-275,206.35297298431396,206.35310411453247,206.35640621185303,206.37218236923218,206.5169746875763,206.5169746875763,206.5169746875763,206.5169746875763,206.5169746875763,206.5169746875763,206.5169746875763,215.95541405677795,3,9.575709819793701,None,,,,,,,,,,,,,,,,,,7,1,2025-02-18_12h57.20.047,comp,2024.2.4,56.12903657490488,2025-02-18 13h00.13.306774 -0500,
29,29,0,critical,whd,20.0,4.0,lower,57.0,133.0,133.0,57.0,78.0,78.0,2,3.3605563640594482,None,,,,,0,0,0,0,0,29,29,94,215.97138381004333,,,,,,,,,,,,,,,,,,,,,,,,,,,,,,,,,,,,,,,,,,,,,,,,,,,,,,,,,,,,,,,,,,,,,,,,,,,,,,,,,57.0,133.0,133.0,57.0,78.0,78.0,4.0,4.2,-191,9,0,-261,164,-19,215.957133769989,215.95721459388733,215.96046805381775,215.97138381004333,216.11934065818787,216.11934065818787,216.11934065818787,216.11934065818787,216.11934065818787,216.11934065818787,216.11934065818787,219.3371880054474,2,3.3605563640594482,None,,,,,,,,,,,,,,,,,,7,1,2025-02-18_12h57.20.047,comp,2024.2.4,56.12903657490488,2025-02-18 13h00.13.306774 -0500,
30,30,0,critical,hwd,20.0,1.0,lower,133.0,57.0,57.0,133.0,78.0,78.0,1,2.842050313949585,None,,,,,0,0,0,0,0,30,30,102,219.35322880744934,,,,,,,,,,,,,,,,,,,,,,,,,,,,,,,,,,,,,,,,,,,,,,,,,,,,,,,,,,,,,,,,,,,,,,,,,,,,,,,,,133.0,57.0,57.0,133.0,78.0,78.0,1.0,1.3,289,-283,480,-270,682,-255,219.3387644290924,219.3388442993164,219.34242582321167,219.35322880744934,219.50534534454346,219.50534534454346,219.50534534454346,219.50534534454346,219.50534534454346,219.50534534454346,219.50534534454346,222.20700120925903,1,2.842050313949585,None,,,,,,,,,,,,,,,,,,7,1,2025-02-18_12h57.20.047,comp,2024.2.4,56.12903657490488,2025-02-18 13h00.13.306774 -0500,
31,31,0,filler_square,None,None,None,None,None,None,None,None,None,None,3,7.019148588180542,None,,,,,0,0,0,0,0,31,31,199,222.22434449195862,,,,,,,,,,,,,,,,,,,,,,,,,,,,,,,,,,,,,,,,,,,,,,,,,,,,,,,,,,,,,,,,,,,,,,,,,,,,,,,,,58.77946383936463,59.42076584158389,58.283636172987606,57.439003013331906,59.462827930208505,59.462827930208505,1.0,1.1,-634,251,-480,259,-326,280,222.20947217941284,222.20959568023682,222.21274495124817,222.22434449195862,222.3713150024414,222.3713150024414,222.3713150024414,222.3713150024414,222.3713150024414,222.3713150024414,222.3713150024414,229.25877380371094,3,7.019148588180542,None,,,,,,,,,,,,,,,,,,7,1,2025-02-18_12h57.20.047,comp,2024.2.4,56.12903657490488,2025-02-18 13h00.13.306774 -0500,
32,32,0,critical,whd,35.0,2.1,upper,125.0,200.0,200.0,125.0,127.0,127.0,2,4.856739044189453,None,,,,,0,0,0,0,0,32,32,13,229.27489304542542,,,,,,,,,,,,,,,,,,,,,,,,,,,,,,,,,,,,,,,,,,,,,,,,,,,,,,,,,,,,,,,,,,,,,,,,,,,,,,,,,125.0,200.0,200.0,125.0,127.0,127.0,2.1,2.11,-258,287,0,260,222,-253,229.2604398727417,229.26054906845093,229.26454639434814,229.27489304542542,229.41436123847961,229.41436123847961,229.41436123847961,229.41436123847961,229.41436123847961,229.41436123847961,229.41436123847961,234.15141129493713,2,4.856739044189453,None,,,,,,,,,,,,,,,,,,7,1,2025-02-18_12h57.20.047,comp,2024.2.4,56.12903657490488,2025-02-18 13h00.13.306774 -0500,
33,33,0,critical,dhw,20.0,1.0,upper,141.0,141.0,200.0,125.0,125.0,200.0,2,15.074327230453491,None,,,,,0,0,0,0,0,33,33,55,234.16940879821777,,,,,,,,,,,,,,,,,,,,,,,,,,,,,,,,,,,,,,,,,,,,,,,,,,,,,,,,,,,,,,,,,,,,,,,,,,,,,,,,,141.0,141.0,200.0,125.0,125.0,200.0,1.0,1.1,-709,265,-480,275,-222,253,234.1530466079712,234.15316772460938,234.15670132637024,234.16940879821777,234.30895709991455,234.30895709991455,234.30895709991455,234.30895709991455,234.30895709991455,234.30895709991455,234.30895709991455,249.24796867370605,2,15.074327230453491,None,,,,,,,,,,,,,,,,,,7,1,2025-02-18_12h57.20.047,comp,2024.2.4,56.12903657490488,2025-02-18 13h00.13.306774 -0500,
34,34,0,filler_square,None,None,None,None,None,None,None,None,None,None,1,2.392667770385742,None,,,,,0,0,0,0,0,34,34,177,249.26696729660034,,,,,,,,,,,,,,,,,,,,,,,,,,,,,,,,,,,,,,,,,,,,,,,,,,,,,,,,,,,,,,,,,,,,,,,,,,,,,,,,,124.50548873750957,124.50548873750957,113.56020342713347,88.2561406102169,62.118607122804434,75.67652211205623,2.2,2.22,-202,255,0,-257,178,-273,249.2501721382141,249.25025296211243,249.2538285255432,249.26696729660034,249.4143545627594,249.4143545627594,249.4143545627594,249.4143545627594,249.4143545627594,249.4143545627594,249.4143545627594,251.663964509964,1,2.392667770385742,None,,,,,,,,,,,,,,,,,,7,1,2025-02-18_12h57.20.047,comp,2024.2.4,56.12903657490488,2025-02-18 13h00.13.306774 -0500,
35,35,0,critical,dwh,35.0,1.0,upper,127.0,127.0,125.0,200.0,200.0,125.0,3,4.075026988983154,None,,,,,0,0,0,0,0,35,35,61,251.6805682182312,,,,,,,,,,,,,,,,,,,,,,,,,,,,,,,,,,,,,,,,,,,,,,,,,,,,,,,,,,,,,,,,,,,,,,,,,,,,,,,,,127.0,127.0,125.0,200.0,200.0,125.0,1.0,1.1,-740,287,-480,284,-222,283,251.66570949554443,251.66582870483398,251.6694438457489,251.6805682182312,251.82997798919678,251.82997798919678,251.82997798919678,251.82997798919678,251.82997798919678,251.82997798919678,251.82997798919678,255.76616263389587,3,4.075026988983154,None,,,,,,,,,,,,,,,,,,7,1,2025-02-18_12h57.20.047,comp,2024.2.4,56.12903657490488,2025-02-18 13h00.13.306774 -0500,
36,36,0,filler_random,None,None,None,None,None,None,None,None,None,None,2,2.2204067707061768,None,,,,,0,0,0,0,0,36,36,164,255.78321146965027,,,,,,,,,,,,,,,,,,,,,,,,,,,,,,,,,,,,,,,,,,,,,,,,,,,,,,,,,,,,,,,,,,,,,,,,,,,,,,,,,73.08513860592566,136.6058626181228,128.40256949492482,175.8798948208115,115.88570470466178,110.39787603790947,2.1,2.11,-252,277,0,266,239,-279,255.76784324645996,255.7679226398468,255.77122974395752,255.78321146965027,255.93550753593445,255.93550753593445,255.93550753593445,255.93550753593445,255.93550753593445,255.93550753593445,255.93550753593445,258.0148539543152,2,2.2204067707061768,None,,,,,,,,,,,,,,,,,,7,1,2025-02-18_12h57.20.047,comp,2024.2.4,56.12903657490488,2025-02-18 13h00.13.306774 -0500,
37,37,0,filler_square,None,None,None,None,None,None,None,None,None,None,1,4.148544788360596,None,,,,,0,0,0,0,0,37,37,203,258.03156876564026,,,,,,,,,,,,,,,,,,,,,,,,,,,,,,,,,,,,,,,,,,,,,,,,,,,,,,,,,,,,,,,,,,,,,,,,,,,,,,,,,61.20453355382035,61.20453355382035,59.355168293636005,58.535228101345595,59.965506519460334,60.07073977685145,2.1,2.12,-156,-263,0,-258,155,256,258.01674365997314,258.01682591438293,258.0199637413025,258.03156876564026,258.18245005607605,258.18245005607605,258.18245005607605,258.18245005607605,258.18245005607605,258.18245005607605,258.18245005607605,262.1834137439728,1,4.148544788360596,None,,,,,,,,,,,,,,,,,,7,1,2025-02-18_12h57.20.047,comp,2024.2.4,56.12903657490488,2025-02-18 13h00.13.306774 -0500,
38,38,0,critical,hwd,35.0,4.0,lower,133.0,57.0,57.0,133.0,70.0,70.0,1,2.9947564601898193,None,,,,,0,0,0,0,0,38,38,100,262.20181703567505,,,,,,,,,,,,,,,,,,,,,,,,,,,,,,,,,,,,,,,,,,,,,,,,,,,,,,,,,,,,,,,,,,,,,,,,,,,,,,,,,133.0,57.0,57.0,133.0,70.0,70.0,4.0,4.1,-191,-290,0,10,198,-260,262.1850724220276,262.18515729904175,262.1886613368988,262.20181703567505,262.35080337524414,262.35080337524414,262.35080337524414,262.35080337524414,262.35080337524414,262.35080337524414,262.35080337524414,265.20454382896423,1,2.9947564601898193,None,,,,,,,,,,,,,,,,,,7,1,2025-02-18_12h57.20.047,comp,2024.2.4,56.12903657490488,2025-02-18 13h00.13.306774 -0500,
39,39,0,critical,dhw,20.0,2.1,upper,141.0,141.0,200.0,125.0,125.0,200.0,2,4.087351083755493,None,,,,,0,0,0,0,0,39,39,3,265.22106862068176,,,,,,,,,,,,,,,,,,,,,,,,,,,,,,,,,,,,,,,,,,,,,,,,,,,,,,,,,,,,,,,,,,,,,,,,,,,,,,,,,141.0,141.0,200.0,125.0,125.0,200.0,2.1,2.11,-229,289,0,253,258,-255,265.2062919139862,265.2063732147217,265.2094581127167,265.22106862068176,265.37189960479736,265.37189960479736,265.37189960479736,265.37189960479736,265.37189960479736,265.37189960479736,265.37189960479736,269.3204426765442,2,4.087351083755493,None,,,,,,,,,,,,,,,,,,7,1,2025-02-18_12h57.20.047,comp,2024.2.4,56.12903657490488,2025-02-18 13h00.13.306774 -0500,
40,40,0,critical,dwh,20.0,4.0,lower,78.0,78.0,57.0,133.0,133.0,57.0,2,3.547879695892334,None,,,,,0,0,0,0,0,40,40,70,269.33662033081055,,,,,,,,,,,,,,,,,,,,,,,,,,,,,,,,,,,,,,,,,,,,,,,,,,,,,,,,,,,,,,,,,,,,,,,,,,,,,,,,,78.0,78.0,57.0,133.0,133.0,57.0,4.0,4.2,-202,14,0,-288,191,-13,269.3220257759094,269.32210874557495,269.3257300853729,269.33662033081055,269.486435174942,269.486435174942,269.486435174942,269.486435174942,269.486435174942,269.486435174942,269.486435174942,272.88726019859314,2,3.547879695892334,None,,,,,,,,,,,,,,,,,,7,1,2025-02-18_12h57.20.047,comp,2024.2.4,56.12903657490488,2025-02-18 13h00.13.306774 -0500,
41,41,0,critical,dwh,35.0,1.0,lower,70.0,70.0,57.0,133.0,133.0,57.0,3,4.9727623462677,None,,,,,0,0,0,0,0,41,41,60,272.9034402370453,,,,,,,,,,,,,,,,,,,,,,,,,,,,,,,,,,,,,,,,,,,,,,,,,,,,,,,,,,,,,,,,,,,,,,,,,,,,,,,,,70.0,70.0,57.0,133.0,133.0,57.0,1.0,1.1,-678,282,-480,255,-289,274,272.8889219760895,272.88900566101074,272.8926384449005,272.9034402370453,273.05414509773254,273.05414509773254,273.05414509773254,273.05414509773254,273.05414509773254,273.05414509773254,273.05414509773254,277.8804521560669,3,4.9727623462677,None,,,,,,,,,,,,,,,,,,7,1,2025-02-18_12h57.20.047,comp,2024.2.4,56.12903657490488,2025-02-18 13h00.13.306774 -0500,
42,42,0,filler_square,None,None,None,None,None,None,None,None,None,None,1,1.5513949394226074,None,,,,,0,0,0,0,0,42,42,196,277.90121269226074,,,,,,,,,,,,,,,,,,,,,,,,,,,,,,,,,,,,,,,,,,,,,,,,,,,,,,,,,,,,,,,,,,,,,,,,,,,,,,,,,159.64180529425505,159.64180529425505,115.10945910015306,67.4500733735986,133.7064292907001,132.84619005754848,4.0,4.2,-210,-6,0,-271,196,7,277.8823239803314,277.88240337371826,277.885488986969,277.90121269226074,278.0401268005371,278.0401268005371,278.0401268005371,278.0401268005371,278.0401268005371,278.0401268005371,278.0401268005371,279.45917987823486,1,1.5513949394226074,None,,,,,,,,,,,,,,,,,,7,1,2025-02-18_12h57.20.047,comp,2024.2.4,56.12903657490488,2025-02-18 13h00.13.306774 -0500,
43,43,0,critical,hdw,35.0,4.0,upper,200.0,125.0,127.0,127.0,125.0,200.0,1,7.196828365325928,None,,,,,0,0,0,0,0,43,43,113,279.4798858165741,,,,,,,,,,,,,,,,,,,,,,,,,,,,,,,,,,,,,,,,,,,,,,,,,,,,,,,,,,,,,,,,,,,,,,,,,,,,,,,,,200.0,125.0,127.0,127.0,125.0,200.0,4.0,4.1,-222,-284,0,5,260,-276,279.46072721481323,279.4608232975006,279.46443486213684,279.4798858165741,279.6276972293854,279.6276972293854,279.6276972293854,279.6276972293854,279.6276972293854,279.6276972293854,279.6276972293854,286.6821799278259,1,7.196828365325928,None,,,,,,,,,,,,,,,,,,7,1,2025-02-18_12h57.20.047,comp,2024.2.4,56.12903657490488,2025-02-18 13h00.13.306774 -0500,
44,44,0,filler_square,None,None,None,None,None,None,None,None,None,None,1,1.8170111179351807,None,,,,,0,0,0,0,0,44,44,181,286.69885635375977,,,,,,,,,,,,,,,,,,,,,,,,,,,,,,,,,,,,,,,,,,,,,,,,,,,,,,,,,,,,,,,,,,,,,,,,,,,,,,,,,82.67726254844393,82.67726254844393,63.066889888874044,73.79655659798476,66.90193129465,77.67409880941509,2.2,2.21,-174,-267,0,266,172,261,286.68404841423035,286.6841323375702,286.68717861175537,286.69885635375977,286.8411593437195,286.8411593437195,286.8411593437195,286.8411593437195,286.8411593437195,286.8411593437195,286.8411593437195,288.52804708480835,1,1.8170111179351807,None,,,,,,,,,,,,,,,,,,7,1,2025-02-18_12h57.20.047,comp,2024.2.4,56.12903657490488,2025-02-18 13h00.13.306774 -0500,
45,45,0,filler_random,None,None,None,None,None,None,None,None,None,None,2,1.2952461242675781,None,,,,,0,0,0,0,0,45,45,169,288.54899430274963,,,,,,,,,,,,,,,,,,,,,,,,,,,,,,,,,,,,,,,,,,,,,,,,,,,,,,,,,,,,,,,,,,,,,,,,,,,,,,,,,118.5369603152808,94.03394445963536,188.8633858104411,196.56519326176917,100.32957791208645,122.31990963003526,2.1,2.11,-241,278,0,289,255,-272,288.5299320220947,288.5300190448761,288.5332510471344,288.54899430274963,288.6922342777252,288.6922342777252,288.6922342777252,288.6922342777252,288.6922342777252,288.6922342777252,288.6922342777252,289.8601429462433,2,1.2952461242675781,None,,,,,,,,,,,,,,,,,,7,1,2025-02-18_12h57.20.047,comp,2024.2.4,56.12903657490488,2025-02-18 13h00.13.306774 -0500,
46,46,0,critical,hwd,35.0,2.1,lower,133.0,57.0,57.0,133.0,70.0,70.0,1,2.6252267360687256,None,,,,,0,0,0,0,0,46,46,40,289.87713170051575,,,,,,,,,,,,,,,,,,,,,,,,,,,,,,,,,,,,,,,,,,,,,,,,,,,,,,,,,,,,,,,,,,,,,,,,,,,,,,,,,133.0,57.0,57.0,133.0,70.0,70.0,2.1,2.12,-191,-280,0,-275,198,277,289.86191153526306,289.8619909286499,289.86587285995483,289.87713170051575,290.0267035961151,290.0267035961151,290.0267035961151,290.0267035961151,290.0267035961151,290.0267035961151,290.0267035961151,292.5197536945343,1,2.6252267360687256,None,,,,,,,,,,,,,,,,,,7,1,2025-02-18_12h57.20.047,comp,2024.2.4,56.12903657490488,2025-02-18 13h00.13.306774 -0500,
47,47,0,critical,dwh,35.0,3.0,upper,127.0,127.0,125.0,200.0,200.0,125.0,2,2.3392081260681152,None,,,,,0,0,0,0,0,47,47,63,292.53674268722534,,,,,,,,,,,,,,,,,,,,,,,,,,,,,,,,,,,,,,,,,,,,,,,,,,,,,,,,,,,,,,,,,,,,,,,,,,,,,,,,,127.0,127.0,125.0,200.0,200.0,125.0,3.0,3.1,-260,289,0,3,258,-280,292.52124786376953,292.52132654190063,292.52440667152405,292.53674268722534,292.6743063926697,292.6743063926697,292.6743063926697,292.6743063926697,292.6743063926697,292.6743063926697,292.6743063926697,294.87794613838196,2,2.3392081260681152,None,,,,,,,,,,,,,,,,,,7,1,2025-02-18_12h57.20.047,comp,2024.2.4,56.12903657490488,2025-02-18 13h00.13.306774 -0500,
48,48,0,filler_random,None,None,None,None,None,None,None,None,None,None,1,1.630845069885254,None,,,,,0,0,0,0,0,48,48,158,294.8940088748932,,,,,,,,,,,,,,,,,,,,,,,,,,,,,,,,,,,,,,,,,,,,,,,,,,,,,,,,,,,,,,,,,,,,,,,,,,,,,,,,,164.28985524150272,138.07376596590538,90.3783983747006,129.3100730953739,150.01864692126986,124.47614186983832,1.0,1.2,-230,11,0,15,223,-16,294.87971329689026,294.8797926902771,294.88329696655273,294.8940088748932,295.0436429977417,295.0436429977417,295.0436429977417,295.0436429977417,295.0436429977417,295.0436429977417,295.0436429977417,296.5301592350006,1,1.630845069885254,None,,,,,,,,,,,,,,,,,,7,1,2025-02-18_12h57.20.047,comp,2024.2.4,56.12903657490488,2025-02-18 13h00.13.306774 -0500,
49,49,0,critical,dhw,20.0,4.0,lower,78.0,78.0,133.0,57.0,57.0,133.0,2,2.478008508682251,None,,,,,0,0,0,0,0,49,49,58,296.54310512542725,,,,,,,,,,,,,,,,,,,,,,,,,,,,,,,,,,,,,,,,,,,,,,,,,,,,,,,,,,,,,,,,,,,,,,,,,,,,,,,,,78.0,78.0,133.0,57.0,57.0,133.0,4.0,4.2,-164,17,0,-263,191,-15,296.53150153160095,296.53155517578125,296.53288984298706,296.54310512542725,296.69493079185486,296.69493079185486,296.69493079185486,296.69493079185486,296.69493079185486,296.69493079185486,296.69493079185486,299.0278899669647,2,2.478008508682251,None,,,,,,,,,,,,,,,,,,7,1,2025-02-18_12h57.20.047,comp,2024.2.4,56.12903657490488,2025-02-18 13h00.13.306774 -0500,
50,50,0,critical,whd,20.0,2.1,upper,125.0,200.0,200.0,125.0,141.0,141.0,1,3.9358530044555664,None,,,,,0,0,0,0,0,50,50,39,299.0442924499512,,,,,,,,,,,,,,,,,,,,,,,,,,,,,,,,,,,,,,,,,,,,,,,,,,,,,,,,,,,,,,,,,,,,,,,,,,,,,,,,,125.0,200.0,200.0,125.0,141.0,141.0,2.1,2.11,-258,263,0,262,229,-265,299.0293881893158,299.0294654369354,299.0325994491577,299.0442924499512,299.18481969833374,299.18481969833374,299.18481969833374,299.18481969833374,299.18481969833374,299.18481969833374,299.18481969833374,302.9849193096161,1,3.9358530044555664,None,,,,,,,,,,,,,,,,,,7,1,2025-02-18_12h57.20.047,comp,2024.2.4,56.12903657490488,2025-02-18 13h00.13.306774 -0500,
51,51,0,filler_square,None,None,None,None,None,None,None,None,None,None,3,1.7975590229034424,None,,,,,0,0,0,0,0,51,51,185,303.00657415390015,,,,,,,,,,,,,,,,,,,,,,,,,,,,,,,,,,,,,,,,,,,,,,,,,,,,,,,,,,,,,,,,,,,,,,,,,,,,,,,,,139.97309399552404,126.2589246546795,63.89188809604304,86.64637056047638,142.85937585675597,142.85937585675597,4.0,4.1,-202,-276,0,13,211,-283,302.98696660995483,302.98704624176025,302.990558385849,303.00657415390015,303.1471085548401,303.1471085548401,303.1471085548401,303.1471085548401,303.1471085548401,303.1471085548401,303.1471085548401,304.823579788208,3,1.7975590229034424,None,,,,,,,,,,,,,,,,,,7,1,2025-02-18_12h57.20.047,comp,2024.2.4,56.12903657490488,2025-02-18 13h00.13.306774 -0500,
52,52,0,critical,dhw,35.0,2.1,upper,127.0,127.0,200.0,125.0,125.0,200.0,3,1.84175705909729,None,,,,,0,0,0,0,0,52,52,1,304.84238266944885,,,,,,,,,,,,,,,,,,,,,,,,,,,,,,,,,,,,,,,,,,,,,,,,,,,,,,,,,,,,,,,,,,,,,,,,,,,,,,,,,127.0,127.0,200.0,125.0,125.0,200.0,2.1,2.11,-222,263,0,260,258,-255,304.82507610321045,304.8251519203186,304.8282096385956,304.84238266944885,304.9793243408203,304.9793243408203,304.9793243408203,304.9793243408203,304.9793243408203,304.9793243408203,304.9793243408203,306.69945216178894,3,1.84175705909729,None,,,,,,,,,,,,,,,,,,7,1,2025-02-18_12h57.20.047,comp,2024.2.4,56.12903657490488,2025-02-18 13h00.13.306774 -0500,
53,53,0,catch,None,None,None,None,None,None,None,None,None,None,3,1.3358633518218994,None,,,,,0,0,0,0,0,53,53,123,306.7161946296692,,,,,,,,,,,,,,,,,,,,,,,,,,,,,,,,,,,,,,,,,,,,,,,,,,,,,,,,,,,,,,,,,,,,,,,,,,,,,,,,,120,70,92,98,200,125,2.2,2.21,-180,-281,0,251,208,282,306.7017548084259,306.7018361091614,306.705867767334,306.7161946296692,306.87492775917053,306.87492775917053,306.87492775917053,306.87492775917053,306.87492775917053,306.87492775917053,306.87492775917053,308.06478238105774,3,1.3358633518218994,None,,,,,,,,,,,,,,,,,,7,1,2025-02-18_12h57.20.047,comp,2024.2.4,56.12903657490488,2025-02-18 13h00.13.306774 -0500,
54,54,0,critical,wdh,35.0,3.0,upper,125.0,200.0,127.0,127.0,200.0,125.0,1,2.2109103202819824,None,,,,,0,0,0,0,0,54,54,75,308.0821752548218,,,,,,,,,,,,,,,,,,,,,,,,,,,,,,,,,,,,,,,,,,,,,,,,,,,,,,,,,,,,,,,,,,,,,,,,,,,,,,,,,125.0,200.0,127.0,127.0,200.0,125.0,3.0,3.2,-260,-261,0,13,222,258,308.0663001537323,308.0663766860962,308.06973600387573,308.0821752548218,308.23132133483887,308.23132133483887,308.23132133483887,308.23132133483887,308.23132133483887,308.23132133483887,308.23132133483887,310.3003394603729,1,2.2109103202819824,None,,,,,,,,,,,,,,,,,,7,1,2025-02-18_12h57.20.047,comp,2024.2.4,56.12903657490488,2025-02-18 13h00.13.306774 -0500,
55,55,0,filler_square,None,None,None,None,None,None,None,None,None,None,2,1.341895341873169,None,,,,,0,0,0,0,0,55,55,178,310.3187589645386,,,,,,,,,,,,,,,,,,,,,,,,,,,,,,,,,,,,,,,,,,,,,,,,,,,,,,,,,,,,,,,,,,,,,,,,,,,,,,,,,96.01412614372327,113.09991667213417,187.82579265500195,187.82579265500195,142.6549630316194,154.6223190736059,2.2,2.22,-246,266,0,-272,267,-272,310.3023862838745,310.30246591567993,310.30614471435547,310.3187589645386,310.4548454284668,310.4548454284668,310.4548454284668,310.4548454284668,310.4548454284668,310.4548454284668,310.4548454284668,311.66562247276306,2,1.341895341873169,None,,,,,,,,,,,,,,,,,,7,1,2025-02-18_12h57.20.047,comp,2024.2.4,56.12903657490488,2025-02-18 13h00.13.306774 -0500,
56,56,0,critical,whd,20.0,3.0,upper,125.0,200.0,200.0,125.0,141.0,141.0,1,2.4397799968719482,None,,,,,0,0,0,0,0,56,56,93,311.68472027778625,,,,,,,,,,,,,,,,,,,,,,,,,,,,,,,,,,,,,,,,,,,,,,,,,,,,,,,,,,,,,,,,,,,,,,,,,,,,,,,,,125.0,200.0,200.0,125.0,141.0,141.0,3.0,3.2,-258,-280,0,18,229,282,311.6671426296234,311.66721844673157,311.6704993247986,311.68472027778625,311.8333730697632,311.8333730697632,311.8333730697632,311.8333730697632,311.8333730697632,311.8333730697632,311.8333730697632,314.13348484039307,1,2.4397799968719482,None,,,,,,,,,,,,,,,,,,7,1,2025-02-18_12h57.20.047,comp,2024.2.4,56.12903657490488,2025-02-18 13h00.13.306774 -0500,
57,57,0,critical,dwh,20.0,3.0,upper,141.0,141.0,125.0,200.0,200.0,125.0,2,1.063706398010254,None,,,,,0,0,0,0,0,57,57,69,314.14916348457336,,,,,,,,,,,,,,,,,,,,,,,,,,,,,,,,,,,,,,,,,,,,,,,,,,,,,,,,,,,,,,,,,,,,,,,,,,,,,,,,,141.0,141.0,125.0,200.0,200.0,125.0,3.0,3.1,-266,253,0,13,258,-259,314.1349620819092,314.1350405216217,314.1380524635315,314.14916348457336,314.30735540390015,314.30735540390015,314.30735540390015,314.30735540390015,314.30735540390015,314.30735540390015,314.30735540390015,315.2200276851654,2,1.063706398010254,None,,,,,,,,,,,,,,,,,,7,1,2025-02-18_12h57.20.047,comp,2024.2.4,56.12903657490488,2025-02-18 13h00.13.306774 -0500,
58,58,0,filler_random,None,None,None,None,None,None,None,None,None,None,3,2.134739398956299,None,,,,,0,0,0,0,0,58,58,148,315.23737239837646,,,,,,,,,,,,,,,,,,,,,,,,,,,,,,,,,,,,,,,,,,,,,,,,,,,,,,,,,,,,,,,,,,,,,,,,,,,,,,,,,137.29202516217396,60.22144824550277,93.56925520019993,194.65615685989974,195.9553537696593,159.6503824242448,3.0,3.1,-223,264,0,19,273,-265,315.22208404541016,315.22216296195984,315.2256808280945,315.23737239837646,315.3844392299652,315.3844392299652,315.3844392299652,315.3844392299652,315.3844392299652,315.3844392299652,315.3844392299652,317.38485980033875,3,2.134739398956299,None,,,,,,,,,,,,,,,,,,7,1,2025-02-18_12h57.20.047,comp,2024.2.4,56.12903657490488,2025-02-18 13h00.13.306774 -0500,
59,59,0,catch,None,None,None,None,None,None,None,None,None,None,1,1.3361420631408691,None,,,,,0,0,0,0,0,59,59,120,317.40413212776184,,,,,,,,,,,,,,,,,,,,,,,,,,,,,,,,,,,,,,,,,,,,,,,,,,,,,,,,,,,,,,,,,,,,,,,,,,,,,,,,,157,168,121,69,104,86,2.1,2.12,-214,-253,0,-250,174,288,317.38685607910156,317.3869376182556,317.39018082618713,317.40413212776184,317.55168199539185,317.55168199539185,317.55168199539185,317.55168199539185,317.55168199539185,317.55168199539185,317.55168199539185,318.75285959243774,1,1.3361420631408691,None,,,,,,,,,,,,,,,,,,7,1,2025-02-18_12h57.20.047,comp,2024.2.4,56.12903657490488,2025-02-18 13h00.13.306774 -0500,
60,60,0,filler_square,None,None,None,None,None,None,None,None,None,None,1,1.4865546226501465,None,,,,,0,0,0,0,0,60,60,193,318.77356362342834,,,,,,,,,,,,,,,,,,,,,,,,,,,,,,,,,,,,,,,,,,,,,,,,,,,,,,,,,,,,,,,,,,,,,,,,,,,,,,,,,137.53870977535746,137.53870977535746,127.98571745820891,94.65609002797878,128.2553401486245,91.93804195973027,1.0,1.2,-212,-4,0,-15,189,-4,318.7546327114105,318.7547128200531,318.758038520813,318.77356362342834,318.9228174686432,318.9228174686432,318.9228174686432,318.9228174686432,318.9228174686432,318.9228174686432,318.9228174686432,320.2753291130066,1,1.4865546226501465,None,,,,,,,,,,,,,,,,,,7,1,2025-02-18_12h57.20.047,comp,2024.2.4,56.12903657490488,2025-02-18 13h00.13.306774 -0500,
61,61,0,critical,whd,35.0,2.1,lower,57.0,133.0,133.0,57.0,70.0,70.0,2,2.5254132747650146,None,,,,,0,0,0,0,0,61,61,12,320.2949068546295,,,,,,,,,,,,,,,,,,,,,,,,,,,,,,,,,,,,,,,,,,,,,,,,,,,,,,,,,,,,,,,,,,,,,,,,,,,,,,,,,57.0,133.0,133.0,57.0,70.0,70.0,2.1,2.11,-191,254,0,251,160,-257,320.27691173553467,320.2769932746887,320.28008008003235,320.2949068546295,320.43811678886414,320.43811678886414,320.43811678886414,320.43811678886414,320.43811678886414,320.43811678886414,320.43811678886414,322.8368763923645,2,2.5254132747650146,None,,,,,,,,,,,,,,,,,,7,1,2025-02-18_12h57.20.047,comp,2024.2.4,56.12903657490488,2025-02-18 13h00.13.306774 -0500,
62,62,0,critical,whd,20.0,3.0,lower,57.0,133.0,133.0,57.0,78.0,78.0,2,2.600727081298828,None,,,,,0,0,0,0,0,62,62,92,322.8522174358368,,,,,,,,,,,,,,,,,,,,,,,,,,,,,,,,,,,,,,,,,,,,,,,,,,,,,,,,,,,,,,,,,,,,,,,,,,,,,,,,,57.0,133.0,133.0,57.0,78.0,78.0,3.0,3.2,-191,-264,0,-7,164,275,322.8383524417877,322.8384280204773,322.8419563770294,322.8522174358368,323.00937128067017,323.00937128067017,323.00937128067017,323.00937128067017,323.00937128067017,323.00937128067017,323.00937128067017,325.47114396095276,2,2.600727081298828,None,,,,,,,,,,,,,,,,,,7,1,2025-02-18_12h57.20.047,comp,2024.2.4,56.12903657490488,2025-02-18 13h00.13.306774 -0500,
63,63,0,filler_random,None,None,None,None,None,None,None,None,None,None,2,2.613316059112549,None,,,,,0,0,0,0,0,63,63,154,325.48761558532715,,,,,,,,,,,,,,,,,,,,,,,,,,,,,,,,,,,,,,,,,,,,,,,,,,,,,,,,,,,,,,,,,,,,,,,,,,,,,,,,,101.7625806863355,112.87974445679139,158.82345137701282,185.27877744114053,71.26910712694263,79.88126001122389,2.2,2.22,-245,284,0,-261,229,-258,325.47290301322937,325.47298216819763,325.4772355556488,325.48761558532715,325.6383488178253,325.6383488178253,325.6383488178253,325.6383488178253,325.6383488178253,325.6383488178253,325.6383488178253,328.1076514720917,2,2.613316059112549,None,,,,,,,,,,,,,,,,,,7,1,2025-02-18_12h57.20.047,comp,2024.2.4,56.12903657490488,2025-02-18 13h00.13.306774 -0500,
64,64,0,filler_square,None,None,None,None,None,None,None,None,None,None,2,3.5197510719299316,None,,,,,0,0,0,0,0,64,64,201,328.1246392726898,,,,,,,,,,,,,,,,,,,,,,,,,,,,,,,,,,,,,,,,,,,,,,,,,,,,,,,,,,,,,,,,,,,,,,,,,,,,,,,,,95.7268039954138,96.88284360152373,99.61143585739256,99.61143585739256,89.10865545106432,99.29260671121662,1.0,1.3,286,-255,480,-281,675,-278,328.10972690582275,328.10980772972107,328.11349987983704,328.1246392726898,328.27260422706604,328.27260422706604,328.27260422706604,328.27260422706604,328.27260422706604,328.27260422706604,328.27260422706604,331.66242384910583,2,3.5197510719299316,None,,,,,,,,,,,,,,,,,,7,1,2025-02-18_12h57.20.047,comp,2024.2.4,56.12903657490488,2025-02-18 13h00.13.306774 -0500,
65,65,0,critical,dhw,20.0,3.0,lower,78.0,78.0,133.0,57.0,57.0,133.0,2,3.4024736881256104,None,,,,,0,0,0,0,0,65,65,56,331.68244338035583,,,,,,,,,,,,,,,,,,,,,,,,,,,,,,,,,,,,,,,,,,,,,,,,,,,,,,,,,,,,,,,,,,,,,,,,,,,,,,,,,78.0,78.0,133.0,57.0,57.0,133.0,3.0,3.1,-164,279,0,12,191,-285,331.6639869213104,331.6640648841858,331.6671118736267,331.68244338035583,331.82432079315186,331.82432079315186,331.82432079315186,331.82432079315186,331.82432079315186,331.82432079315186,331.82432079315186,335.08992314338684,2,3.4024736881256104,None,,,,,,,,,,,,,,,,,,7,1,2025-02-18_12h57.20.047,comp,2024.2.4,56.12903657490488,2025-02-18 13h00.13.306774 -0500,
66,66,0,filler_square,None,None,None,None,None,None,None,None,None,None,3,1.3938193321228027,None,,,,,0,0,0,0,0,66,66,171,335.1071696281433,,,,,,,,,,,,,,,,,,,,,,,,,,,,,,,,,,,,,,,,,,,,,,,,,,,,,,,,,,,,,,,,,,,,,,,,,,,,,,,,,82.5003626581543,93.35546370818028,105.10380710705795,109.02485806413428,143.3352475167128,143.3352475167128,1.0,1.1,-677,283,-480,266,-258,254,335.09190106391907,335.0919888019562,335.09536242485046,335.1071696281433,335.2671790122986,335.2671790122986,335.2671790122986,335.2671790122986,335.2671790122986,335.2671790122986,335.2671790122986,336.5048494338989,3,1.3938193321228027,None,,,,,,,,,,,,,,,,,,7,1,2025-02-18_12h57.20.047,comp,2024.2.4,56.12903657490488,2025-02-18 13h00.13.306774 -0500,
67,67,0,critical,dwh,35.0,2.1,upper,127.0,127.0,125.0,200.0,200.0,125.0,3,5.2897868156433105,None,,,,,0,0,0,0,0,67,67,5,336.5225465297699,,,,,,,,,,,,,,,,,,,,,,,,,,,,,,,,,,,,,,,,,,,,,,,,,,,,,,,,,,,,,,,,,,,,,,,,,,,,,,,,,127.0,127.0,125.0,200.0,200.0,125.0,2.1,2.12,-260,-281,0,-277,258,277,336.5064685344696,336.50660467147827,336.51006603240967,336.5225465297699,336.66273832321167,336.66273832321167,336.66273832321167,336.66273832321167,336.66273832321167,336.66273832321167,336.66273832321167,341.8258104324341,3,5.2897868156433105,None,,,,,,,,,,,,,,,,,,7,1,2025-02-18_12h57.20.047,comp,2024.2.4,56.12903657490488,2025-02-18 13h00.13.306774 -0500,
68,68,0,critical,hwd,20.0,1.0,upper,200.0,125.0,125.0,200.0,141.0,141.0,1,1.2437303066253662,None,,,,,0,0,0,0,0,68,68,103,341.84163308143616,,,,,,,,,,,,,,,,,,,,,,,,,,,,,,,,,,,,,,,,,,,,,,,,,,,,,,,,,,,,,,,,,,,,,,,,,,,,,,,,,200.0,125.0,125.0,200.0,141.0,141.0,1.0,1.1,-738,270,-480,256,-214,269,341.82733249664307,341.82741141319275,341.8306829929352,341.84163308143616,341.99722719192505,341.99722719192505,341.99722719192505,341.99722719192505,341.99722719192505,341.99722719192505,341.99722719192505,343.09220790863037,1,1.2437303066253662,None,,,,,,,,,,,,,,,,,,7,1,2025-02-18_12h57.20.047,comp,2024.2.4,56.12903657490488,2025-02-18 13h00.13.306774 -0500,
69,69,0,filler_square,None,None,None,None,None,None,None,None,None,None,2,1.5119130611419678,None,,,,,0,0,0,0,0,69,69,198,343.10926818847656,,,,,,,,,,,,,,,,,,,,,,,,,,,,,,,,,,,,,,,,,,,,,,,,,,,,,,,,,,,,,,,,,,,,,,,,,,,,,,,,,144.6913699563882,85.71678169435955,170.38428155588858,170.38428155588858,137.10770673383843,157.44678552947096,3.0,3.1,-224,263,0,-12,260,-250,343.0940029621124,343.09408354759216,343.0972590446472,343.10926818847656,343.2479751110077,343.2479751110077,343.2479751110077,343.2479751110077,343.2479751110077,343.2479751110077,343.2479751110077,344.62544560432434,2,1.5119130611419678,None,,,,,,,,,,,,,,,,,,7,1,2025-02-18_12h57.20.047,comp,2024.2.4,56.12903657490488,2025-02-18 13h00.13.306774 -0500,
70,70,0,filler_random,None,None,None,None,None,None,None,None,None,None,2,2.3870108127593994,None,,,,,0,0,0,0,0,70,70,153,344.6413199901581,,,,,,,,,,,,,,,,,,,,,,,,,,,,,,,,,,,,,,,,,,,,,,,,,,,,,,,,,,,,,,,,,,,,,,,,,,,,,,,,,120.9683396534966,186.10420877807462,130.5045182784694,191.50736261048027,149.81939457876786,104.21219852453017,4.0,4.2,-285,6,0,-264,244,-18,344.6271803379059,344.6272611618042,344.6304988861084,344.6413199901581,344.7957227230072,344.7957227230072,344.7957227230072,344.7957227230072,344.7957227230072,344.7957227230072,344.7957227230072,347.0435061454773,2,2.3870108127593994,None,,,,,,,,,,,,,,,,,,7,1,2025-02-18_12h57.20.047,comp,2024.2.4,56.12903657490488,2025-02-18 13h00.13.306774 -0500,
71,71,0,critical,dwh,35.0,2.1,upper,127.0,127.0,125.0,200.0,200.0,125.0,3,6.184773921966553,None,,,,,0,0,0,0,0,71,71,29,347.05964159965515,,,,,,,,,,,,,,,,,,,,,,,,,,,,,,,,,,,,,,,,,,,,,,,,,,,,,,,,,,,,,,,,,,,,,,,,,,,,,,,,,127.0,127.0,125.0,200.0,200.0,125.0,2.1,2.11,-260,281,0,267,258,-266,347.04518270492554,347.04531359672546,347.04894185066223,347.05964159965515,347.2124276161194,347.2124276161194,347.2124276161194,347.2124276161194,347.2124276161194,347.2124276161194,347.2124276161194,353.25963163375854,3,6.184773921966553,None,,,,,,,,,,,,,,,,,,7,1,2025-02-18_12h57.20.047,comp,2024.2.4,56.12903657490488,2025-02-18 13h00.13.306774 -0500,
72,72,0,filler_square,None,None,None,None,None,None,None,None,None,None,2,1.741898536682129,None,,,,,0,0,0,0,0,72,72,179,353.27859115600586,,,,,,,,,,,,,,,,,,,,,,,,,,,,,,,,,,,,,,,,,,,,,,,,,,,,,,,,,,,,,,,,,,,,,,,,,,,,,,,,,76.43205645470421,67.54163904455244,89.78936375056793,89.78936375056793,76.23621258396935,75.91642772573324,2.2,2.21,-175,-271,0,271,179,287,353.26170229911804,353.26178216934204,353.2652699947357,353.27859115600586,353.41268944740295,353.41268944740295,353.41268944740295,353.41268944740295,353.41268944740295,353.41268944740295,353.41268944740295,355.03471064567566,2,1.741898536682129,None,,,,,,,,,,,,,,,,,,7,1,2025-02-18_12h57.20.047,comp,2024.2.4,56.12903657490488,2025-02-18 13h00.13.306774 -0500,
73,73,0,filler_random,None,None,None,None,None,None,None,None,None,None,2,1.6020796298980713,None,,,,,0,0,0,0,0,73,73,150,355.05029702186584,,,,,,,,,,,,,,,,,,,,,,,,,,,,,,,,,,,,,,,,,,,,,,,,,,,,,,,,,,,,,,,,,,,,,,,,,,,,,,,,,70.64093962111664,70.30084561756513,165.44130338233862,123.92438174495753,146.45381435024407,70.96382392718984,2.2,2.22,-193,268,0,-286,193,-264,355.0364909172058,355.03661465644836,355.0399935245514,355.05029702186584,355.1950671672821,355.1950671672821,355.1950671672821,355.1950671672821,355.1950671672821,355.1950671672821,355.1950671672821,356.6634421348572,2,1.6020796298980713,None,,,,,,,,,,,,,,,,,,7,1,2025-02-18_12h57.20.047,comp,2024.2.4,56.12903657490488,2025-02-18 13h00.13.306774 -0500,
74,74,0,critical,hwd,20.0,2.1,lower,133.0,57.0,57.0,133.0,78.0,78.0,1,3.3711602687835693,None,,,,,0,0,0,0,0,74,74,18,356.6812732219696,,,,,,,,,,,,,,,,,,,,,,,,,,,,,,,,,,,,,,,,,,,,,,,,,,,,,,,,,,,,,,,,,,,,,,,,,,,,,,,,,133.0,57.0,57.0,133.0,78.0,78.0,2.1,2.12,-191,-279,0,-274,202,251,356.66502261161804,356.66510367393494,356.6683259010315,356.6812732219696,356.8321099281311,356.8321099281311,356.8321099281311,356.8321099281311,356.8321099281311,356.8321099281311,356.8321099281311,360.0662474632263,1,3.3711602687835693,None,,,,,,,,,,,,,,,,,,7,1,2025-02-18_12h57.20.047,comp,2024.2.4,56.12903657490488,2025-02-18 13h00.13.306774 -0500,
75,75,0,critical,dhw,20.0,1.0,lower,78.0,78.0,133.0,57.0,57.0,133.0,2,4.441509485244751,None,,,,,0,0,0,0,0,75,75,54,360.08320927619934,,,,,,,,,,,,,,,,,,,,,,,,,,,,,,,,,,,,,,,,,,,,,,,,,,,,,,,,,,,,,,,,,,,,,,,,,,,,,,,,,78.0,78.0,133.0,57.0,57.0,133.0,1.0,1.1,-644,288,-480,266,-289,280,360.0678758621216,360.0679700374603,360.0714907646179,360.08320927619934,360.23447728157043,360.23447728157043,360.23447728157043,360.23447728157043,360.23447728157043,360.23447728157043,360.23447728157043,364.5334720611572,2,4.441509485244751,None,,,,,,,,,,,,,,,,,,7,1,2025-02-18_12h57.20.047,comp,2024.2.4,56.12903657490488,2025-02-18 13h00.13.306774 -0500,
76,76,0,critical,whd,20.0,4.0,upper,125.0,200.0,200.0,125.0,141.0,141.0,2,5.711514711380005,None,,,,,0,0,0,0,0,76,76,95,364.54999828338623,,,,,,,,,,,,,,,,,,,,,,,,,,,,,,,,,,,,,,,,,,,,,,,,,,,,,,,,,,,,,,,,,,,,,,,,,,,,,,,,,125.0,200.0,200.0,125.0,141.0,141.0,4.0,4.2,-258,-15,0,-272,229,17,364.5351417064667,364.5352258682251,364.53886580467224,364.54999828338623,364.7002282142639,364.7002282142639,364.7002282142639,364.7002282142639,364.7002282142639,364.7002282142639,364.7002282142639,370.26604104042053,2,5.711514711380005,None,,,,,,,,,,,,,,,,,,7,1,2025-02-18_12h57.20.047,comp,2024.2.4,56.12903657490488,2025-02-18 13h00.13.306774 -0500,
77,77,0,filler_random,None,None,None,None,None,None,None,None,None,None,2,1.3297247886657715,None,,,,,0,0,0,0,0,77,77,147,370.28331685066223,,,,,,,,,,,,,,,,,,,,,,,,,,,,,,,,,,,,,,,,,,,,,,,,,,,,,,,,,,,,,,,,,,,,,,,,,,,,,,,,,141.91566336635074,149.45425349758986,185.8036462941054,170.6250312430089,97.00736243309959,116.2773395889474,1.0,1.3,224,-279,480,-269,719,-271,370.26778054237366,370.2678632736206,370.2709684371948,370.28331685066223,370.43845200538635,370.43845200538635,370.43845200538635,370.43845200538635,370.43845200538635,370.43845200538635,370.43845200538635,371.62004947662354,2,1.3297247886657715,None,,,,,,,,,,,,,,,,,,7,1,2025-02-18_12h57.20.047,comp,2024.2.4,56.12903657490488,2025-02-18 13h00.13.306774 -0500,
78,78,0,critical,hdw,35.0,2.1,lower,133.0,57.0,70.0,70.0,57.0,133.0,1,2.1283679008483887,None,,,,,0,0,0,0,0,78,78,20,371.6368057727814,,,,,,,,,,,,,,,,,,,,,,,,,,,,,,,,,,,,,,,,,,,,,,,,,,,,,,,,,,,,,,,,,,,,,,,,,,,,,,,,,133.0,57.0,70.0,70.0,57.0,133.0,2.1,2.12,-160,-254,0,-260,198,281,371.6216115951538,371.62171363830566,371.6259491443634,371.6368057727814,371.784907579422,371.784907579422,371.784907579422,371.784907579422,371.784907579422,371.784907579422,371.784907579422,373.76959919929504,1,2.1283679008483887,None,,,,,,,,,,,,,,,,,,7,1,2025-02-18_12h57.20.047,comp,2024.2.4,56.12903657490488,2025-02-18 13h00.13.306774 -0500,
79,79,0,filler_square,None,None,None,None,None,None,None,None,None,None,1,2.9543168544769287,None,,,,,0,0,0,0,0,79,79,191,373.7864294052124,,,,,,,,,,,,,,,,,,,,,,,,,,,,,,,,,,,,,,,,,,,,,,,,,,,,,,,,,,,,,,,,,,,,,,,,,,,,,,,,,129.2180834899227,129.2180834899227,88.72753296754009,122.03494573948096,128.76761415453538,90.3488547715026,3.0,3.1,-222,269,0,-16,202,-250,373.7713828086853,373.77146458625793,373.77468061447144,373.7864294052124,373.93941497802734,373.93941497802734,373.93941497802734,373.93941497802734,373.93941497802734,373.93941497802734,373.93941497802734,376.753365278244,1,2.9543168544769287,None,,,,,,,,,,,,,,,,,,7,1,2025-02-18_12h57.20.047,comp,2024.2.4,56.12903657490488,2025-02-18 13h00.13.306774 -0500,
80,80,0,filler_random,None,None,None,None,None,None,None,None,None,None,1,1.3953166007995605,None,,,,,0,0,0,0,0,80,80,166,376.76994156837463,,,,,,,,,,,,,,,,,,,,,,,,,,,,,,,,,,,,,,,,,,,,,,,,,,,,,,,,,,,,,,,,,,,,,,,,,,,,,,,,,165.62239793583348,178.29334684456526,111.04829794588764,130.88339538539114,75.30087921401851,143.71634924638585,3.0,3.2,-251,-280,0,-7,233,289,376.755126953125,376.75520396232605,376.758633852005,376.76994156837463,376.90561032295227,376.90561032295227,376.90561032295227,376.90561032295227,376.90561032295227,376.90561032295227,376.90561032295227,378.16986298561096,1,1.3953166007995605,None,,,,,,,,,,,,,,,,,,7,1,2025-02-18_12h57.20.047,comp,2024.2.4,56.12903657490488,2025-02-18 13h00.13.306774 -0500,
81,81,0,critical,whd,35.0,1.0,upper,125.0,200.0,200.0,125.0,127.0,127.0,2,3.6429085731506348,None,,,,,0,0,0,0,0,81,81,85,378.18657517433167,,,,,,,,,,,,,,,,,,,,,,,,,,,,,,,,,,,,,,,,,,,,,,,,,,,,,,,,,,,,,,,,,,,,,,,,,,,,,,,,,125.0,200.0,200.0,125.0,127.0,127.0,1.0,1.1,-738,266,-480,278,-258,290,378.1714153289795,378.17149543762207,378.1747896671295,378.18657517433167,378.32650327682495,378.32650327682495,378.32650327682495,378.32650327682495,378.32650327682495,378.32650327682495,378.32650327682495,381.83935141563416,2,3.6429085731506348,None,,,,,,,,,,,,,,,,,,7,1,2025-02-18_12h57.20.047,comp,2024.2.4,56.12903657490488,2025-02-18 13h00.13.306774 -0500,
82,82,0,filler_square,None,None,None,None,None,None,None,None,None,None,1,5.636608362197876,None,,,,,0,0,0,0,0,82,82,208,381.85641288757324,,,,,,,,,,,,,,,,,,,,,,,,,,,,,,,,,,,,,,,,,,,,,,,,,,,,,,,,,,,,,,,,,,,,,,,,,,,,,,,,,64.32623311685069,64.32623311685069,63.59590041718053,58.1417614933625,62.114332304642666,58.089213408214356,1.0,1.1,-637,280,-480,264,-326,255,381.84124779701233,381.84132862091064,381.84503293037415,381.85641288757324,382.003271818161,382.003271818161,382.003271818161,382.003271818161,382.003271818161,382.003271818161,382.003271818161,387.5072922706604,1,5.636608362197876,None,,,,,,,,,,,,,,,,,,7,1,2025-02-18_12h57.20.047,comp,2024.2.4,56.12903657490488,2025-02-18 13h00.13.306774 -0500,
83,83,0,critical,wdh,20.0,2.1,upper,125.0,200.0,141.0,141.0,200.0,125.0,1,5.1463446617126465,None,,,,,0,0,0,0,0,83,83,35,387.5232255458832,,,,,,,,,,,,,,,,,,,,,,,,,,,,,,,,,,,,,,,,,,,,,,,,,,,,,,,,,,,,,,,,,,,,,,,,,,,,,,,,,125.0,200.0,141.0,141.0,200.0,125.0,2.1,2.11,-266,290,0,271,229,-279,387.5089614391327,387.50908184051514,387.5128195285797,387.5232255458832,387.68093037605286,387.68093037605286,387.68093037605286,387.68093037605286,387.68093037605286,387.68093037605286,387.68093037605286,392.6777353286743,1,5.1463446617126465,None,,,,,,,,,,,,,,,,,,7,1,2025-02-18_12h57.20.047,comp,2024.2.4,56.12903657490488,2025-02-18 13h00.13.306774 -0500,
84,84,0,filler_random,None,None,None,None,None,None,None,None,None,None,1,2.343167304992676,None,,,,,0,0,0,0,0,84,84,139,392.69446849823,,,,,,,,,,,,,,,,,,,,,,,,,,,,,,,,,,,,,,,,,,,,,,,,,,,,,,,,,,,,,,,,,,,,,,,,,,,,,,,,,110.09529099962194,178.9038449535085,81.56890027172953,182.58795948501955,154.05460553923868,101.7487306771269,3.0,3.1,-277,261,0,-13,238,-258,392.67957973480225,392.67966628074646,392.68300223350525,392.69446849823,392.8419756889343,392.8419756889343,392.8419756889343,392.8419756889343,392.8419756889343,392.8419756889343,392.8419756889343,395.0438463687897,1,2.343167304992676,None,,,,,,,,,,,,,,,,,,7,1,2025-02-18_12h57.20.047,comp,2024.2.4,56.12903657490488,2025-02-18 13h00.13.306774 -0500,
85,85,0,critical,wdh,20.0,1.0,upper,125.0,200.0,141.0,141.0,200.0,125.0,1,5.225615501403809,None,,,,,0,0,0,0,0,85,85,79,395.0597069263458,,,,,,,,,,,,,,,,,,,,,,,,,,,,,,,,,,,,,,,,,,,,,,,,,,,,,,,,,,,,,,,,,,,,,,,,,,,,,,,,,125.0,200.0,141.0,141.0,200.0,125.0,1.0,1.3,214,-281,480,-251,709,-275,395.0454034805298,395.04548382759094,395.0488352775574,395.0597069263458,395.2150032520294,395.2150032520294,395.2150032520294,395.2150032520294,395.2150032520294,395.2150032520294,395.2150032520294,400.3016278743744,1,5.225615501403809,None,,,,,,,,,,,,,,,,,,7,1,2025-02-18_12h57.20.047,comp,2024.2.4,56.12903657490488,2025-02-18 13h00.13.306774 -0500,
86,86,0,filler_random,None,None,None,None,None,None,None,None,None,None,3,1.9056951999664307,None,,,,,0,0,0,0,0,86,86,151,400.31766176223755,,,,,,,,,,,,,,,,,,,,,,,,,,,,,,,,,,,,,,,,,,,,,,,,,,,,,,,,,,,,,,,,,,,,,,,,,,,,,,,,,190.01253700629258,116.13674100976999,77.5005643174838,164.35080328761782,120.27230432568368,196.42872046468273,2.1,2.11,-236,276,0,265,276,-256,400.30335092544556,400.3034293651581,400.306494474411,400.31766176223755,400.46262216567993,400.46262216567993,400.46262216567993,400.46262216567993,400.46262216567993,400.46262216567993,400.46262216567993,402.2282898426056,3,1.9056951999664307,None,,,,,,,,,,,,,,,,,,7,1,2025-02-18_12h57.20.047,comp,2024.2.4,56.12903657490488,2025-02-18 13h00.13.306774 -0500,
87,87,0,filler_square,None,None,None,None,None,None,None,None,None,None,3,5.0963873863220215,None,,,,,0,0,0,0,0,87,87,190,402.2453444004059,,,,,,,,,,,,,,,,,,,,,,,,,,,,,,,,,,,,,,,,,,,,,,,,,,,,,,,,,,,,,,,,,,,,,,,,,,,,,,,,,60.81273562676364,60.81273562676364,57.915535235729365,57.951885320939134,57.4056057175452,58.822625035713884,2.1,2.11,-155,286,0,287,154,-286,402.2301733493805,402.2302556037903,402.2336313724518,402.2453444004059,402.39942741394043,402.39942741394043,402.39942741394043,402.39942741394043,402.39942741394043,402.39942741394043,402.39942741394043,407.3457176685333,3,5.0963873863220215,None,,,,,,,,,,,,,,,,,,7,1,2025-02-18_12h57.20.047,comp,2024.2.4,56.12903657490488,2025-02-18 13h00.13.306774 -0500,
88,88,0,critical,dwh,20.0,2.1,upper,141.0,141.0,125.0,200.0,200.0,125.0,3,6.931763648986816,None,,,,,0,0,0,0,0,88,88,31,407.3620955944061,,,,,,,,,,,,,,,,,,,,,,,,,,,,,,,,,,,,,,,,,,,,,,,,,,,,,,,,,,,,,,,,,,,,,,,,,,,,,,,,,141.0,141.0,125.0,200.0,200.0,125.0,2.1,2.11,-266,278,0,282,258,-277,407.34725999832153,407.347341299057,407.3505759239197,407.3620955944061,407.51168060302734,407.51168060302734,407.51168060302734,407.51168060302734,407.51168060302734,407.51168060302734,407.51168060302734,414.29902720451355,3,6.931763648986816,None,,,,,,,,,,,,,,,,,,7,1,2025-02-18_12h57.20.047,comp,2024.2.4,56.12903657490488,2025-02-18 13h00.13.306774 -0500,
89,89,0,critical,whd,35.0,2.1,upper,125.0,200.0,200.0,125.0,127.0,127.0,2,1.5203278064727783,None,,,,,0,0,0,0,0,89,89,37,414.3174796104431,,,,,,,,,,,,,,,,,,,,,,,,,,,,,,,,,,,,,,,,,,,,,,,,,,,,,,,,,,,,,,,,,,,,,,,,,,,,,,,,,125.0,200.0,200.0,125.0,127.0,127.0,2.1,2.11,-258,265,0,251,222,-289,414.3006076812744,414.3006854057312,414.30420088768005,414.3174796104431,414.45973467826843,414.45973467826843,414.45973467826843,414.45973467826843,414.45973467826843,414.45973467826843,414.45973467826843,415.8448886871338,2,1.5203278064727783,None,,,,,,,,,,,,,,,,,,7,1,2025-02-18_12h57.20.047,comp,2024.2.4,56.12903657490488,2025-02-18 13h00.13.306774 -0500,
90,90,0,critical,dwh,20.0,1.0,lower,78.0,78.0,57.0,133.0,133.0,57.0,3,3.648266077041626,None,,,,,0,0,0,0,0,90,90,66,415.8609707355499,,,,,,,,,,,,,,,,,,,,,,,,,,,,,,,,,,,,,,,,,,,,,,,,,,,,,,,,,,,,,,,,,,,,,,,,,,,,,,,,,78.0,78.0,57.0,133.0,133.0,57.0,1.0,1.3,278,-264,480,-266,671,-258,415.8464798927307,415.84662413597107,415.8500642776489,415.8609707355499,415.996609210968,415.996609210968,415.996609210968,415.996609210968,415.996609210968,415.996609210968,415.996609210968,419.517915725708,3,3.648266077041626,None,,,,,,,,,,,,,,,,,,7,1,2025-02-18_12h57.20.047,comp,2024.2.4,56.12903657490488,2025-02-18 13h00.13.306774 -0500,
91,91,0,critical,dwh,35.0,2.1,lower,70.0,70.0,57.0,133.0,133.0,57.0,2,4.039721488952637,None,,,,,0,0,0,0,0,91,91,4,419.53454518318176,,,,,,,,,,,,,,,,,,,,,,,,,,,,,,,,,,,,,,,,,,,,,,,,,,,,,,,,,,,,,,,,,,,,,,,,,,,,,,,,,70.0,70.0,57.0,133.0,133.0,57.0,2.1,2.12,-198,-254,0,-265,191,286,419.51958894729614,419.5197329521179,419.5233428478241,419.53454518318176,419.6884310245514,419.6884310245514,419.6884310245514,419.6884310245514,419.6884310245514,419.6884310245514,419.6884310245514,423.5787003040314,2,4.039721488952637,None,,,,,,,,,,,,,,,,,,7,1,2025-02-18_12h57.20.047,comp,2024.2.4,56.12903657490488,2025-02-18 13h00.13.306774 -0500,
92,92,0,critical,dhw,20.0,2.1,lower,78.0,78.0,133.0,57.0,57.0,133.0,2,3.7432332038879395,None,,,,,0,0,0,0,0,92,92,26,423.59914469718933,,,,,,,,,,,,,,,,,,,,,,,,,,,,,,,,,,,,,,,,,,,,,,,,,,,,,,,,,,,,,,,,,,,,,,,,,,,,,,,,,78.0,78.0,133.0,57.0,57.0,133.0,2.1,2.12,-164,-290,0,-266,191,255,423.5802445411682,423.5803246498108,423.58342003822327,423.59914469718933,423.7418487071991,423.7418487071991,423.7418487071991,423.7418487071991,423.7418487071991,423.7418487071991,423.7418487071991,427.3537986278534,2,3.7432332038879395,None,,,,,,,,,,,,,,,,,,7,1,2025-02-18_12h57.20.047,comp,2024.2.4,56.12903657490488,2025-02-18 13h00.13.306774 -0500,
93,93,0,critical,dhw,35.0,1.0,lower,70.0,70.0,133.0,57.0,57.0,133.0,2,1.7865829467773438,None,,,,,0,0,0,0,0,93,93,48,427.37060379981995,,,,,,,,,,,,,,,,,,,,,,,,,,,,,,,,,,,,,,,,,,,,,,,,,,,,,,,,,,,,,,,,,,,,,,,,,,,,,,,,,70.0,70.0,133.0,57.0,57.0,133.0,1.0,1.2,-160,7,0,-10,191,-8,427.3553342819214,427.35541439056396,427.35969710350037,427.37060379981995,427.51931166648865,427.51931166648865,427.51931166648865,427.51931166648865,427.51931166648865,427.51931166648865,427.51931166648865,429.1699059009552,2,1.7865829467773438,None,,,,,,,,,,,,,,,,,,7,1,2025-02-18_12h57.20.047,comp,2024.2.4,56.12903657490488,2025-02-18 13h00.13.306774 -0500,
94,94,0,critical,wdh,20.0,3.0,lower,57.0,133.0,78.0,78.0,133.0,57.0,1,10.003170728683472,None,,,,,0,0,0,0,0,94,94,80,429.18621921539307,,,,,,,,,,,,,,,,,,,,,,,,,,,,,,,,,,,,,,,,,,,,,,,,,,,,,,,,,,,,,,,,,,,,,,,,,,,,,,,,,57.0,133.0,78.0,78.0,133.0,57.0,3.0,3.2,-202,-283,0,-9,164,252,429.171434879303,429.17153573036194,429.1749269962311,429.18621921539307,429.32310461997986,429.32310461997986,429.32310461997986,429.32310461997986,429.32310461997986,429.32310461997986,429.32310461997986,439.19294452667236,1,10.003170728683472,None,,,,,,,,,,,,,,,,,,7,1,2025-02-18_12h57.20.047,comp,2024.2.4,56.12903657490488,2025-02-18 13h00.13.306774 -0500,
95,95,0,critical,wdh,20.0,2.1,lower,57.0,133.0,78.0,78.0,133.0,57.0,3,3.7755863666534424,None,,,,,0,0,0,0,0,95,95,10,439.21380519866943,,,,,,,,,,,,,,,,,,,,,,,,,,,,,,,,,,,,,,,,,,,,,,,,,,,,,,,,,,,,,,,,,,,,,,,,,,,,,,,,,57.0,133.0,78.0,78.0,133.0,57.0,2.1,2.11,-202,280,0,287,164,-260,439.19478726387024,439.1949234008789,439.19836044311523,439.21380519866943,439.3585433959961,439.3585433959961,439.3585433959961,439.3585433959961,439.3585433959961,439.3585433959961,439.3585433959961,442.99197363853455,3,3.7755863666534424,None,,,,,,,,,,,,,,,,,,7,1,2025-02-18_12h57.20.047,comp,2024.2.4,56.12903657490488,2025-02-18 13h00.13.306774 -0500,
96,96,0,critical,hwd,35.0,2.1,upper,200.0,125.0,125.0,200.0,127.0,127.0,1,8.893824100494385,None,,,,,0,0,0,0,0,96,96,41,443.007972240448,,,,,,,,,,,,,,,,,,,,,,,,,,,,,,,,,,,,,,,,,,,,,,,,,,,,,,,,,,,,,,,,,,,,,,,,,,,,,,,,,200.0,125.0,125.0,200.0,127.0,127.0,2.1,2.11,-258,284,0,270,260,-255,442.993501663208,442.99361419677734,442.99720764160156,443.007972240448,443.16229581832886,443.16229581832886,443.16229581832886,443.16229581832886,443.16229581832886,443.16229581832886,443.16229581832886,451.9112911224365,1,8.893824100494385,None,,,,,,,,,,,,,,,,,,7,1,2025-02-18_12h57.20.047,comp,2024.2.4,56.12903657490488,2025-02-18 13h00.13.306774 -0500,
97,97,0,catch,None,None,None,None,None,None,None,None,None,None,2,1.596271276473999,None,,,,,0,0,0,0,0,97,97,121,451.9298253059387,,,,,,,,,,,,,,,,,,,,,,,,,,,,,,,,,,,,,,,,,,,,,,,,,,,,,,,,,,,,,,,,,,,,,,,,,,,,,,,,,131,59,141,184,112,78,4.0,4.2,-218,-18,0,-289,227,14,451.9134204387665,451.91349935531616,451.91683745384216,451.9298253059387,452.07867646217346,452.07867646217346,452.07867646217346,452.07867646217346,452.07867646217346,452.07867646217346,452.07867646217346,453.5334663391113,2,1.596271276473999,None,,,,,,,,,,,,,,,,,,7,1,2025-02-18_12h57.20.047,comp,2024.2.4,56.12903657490488,2025-02-18 13h00.13.306774 -0500,
98,98,0,critical,dwh,20.0,2.1,lower,78.0,78.0,57.0,133.0,133.0,57.0,3,4.864845037460327,None,,,,,0,0,0,0,0,98,98,30,453.5491588115692,,,,,,,,,,,,,,,,,,,,,,,,,,,,,,,,,,,,,,,,,,,,,,,,,,,,,,,,,,,,,,,,,,,,,,,,,,,,,,,,,78.0,78.0,57.0,133.0,133.0,57.0,2.1,2.11,-202,265,0,252,191,-289,453.53506684303284,453.5351502895355,453.53820729255676,453.5491588115692,453.69649362564087,453.69649362564087,453.69649362564087,453.69649362564087,453.69649362564087,453.69649362564087,453.69649362564087,458.4234127998352,3,4.864845037460327,None,,,,,,,,,,,,,,,,,,7,1,2025-02-18_12h57.20.047,comp,2024.2.4,56.12903657490488,2025-02-18 13h00.13.306774 -0500,
99,99,0,critical,dwh,35.0,3.0,lower,70.0,70.0,57.0,133.0,133.0,57.0,3,3.396841049194336,None,,,,,0,0,0,0,0,99,99,62,458.4404995441437,,,,,,,,,,,,,,,,,,,,,,,,,,,,,,,,,,,,,,,,,,,,,,,,,,,,,,,,,,,,,,,,,,,,,,,,,,,,,,,,,70.0,70.0,57.0,133.0,133.0,57.0,3.0,3.2,-198,-275,0,6,191,272,458.42504024505615,458.4251198768616,458.42860770225525,458.4404995441437,458.5815818309784,458.5815818309784,458.5815818309784,458.5815818309784,458.5815818309784,458.5815818309784,458.5815818309784,461.8505790233612,3,3.396841049194336,None,,,,,,,,,,,,,,,,,,7,1,2025-02-18_12h57.20.047,comp,2024.2.4,56.12903657490488,2025-02-18 13h00.13.306774 -0500,
100,100,0,filler_square,None,None,None,None,None,None,None,None,None,None,3,3.401926040649414,None,,,,,0,0,0,0,0,100,100,186,461.8675925731659,,,,,,,,,,,,,,,,,,,,,,,,,,,,,,,,,,,,,,,,,,,,,,,,,,,,,,,,,,,,,,,,,,,,,,,,,,,,,,,,,63.39364034109634,63.39364034109634,62.96848299434717,60.88810448156309,61.6211250318473,61.25817549711737,2.1,2.11,-158,288,0,273,157,-259,461.85270738601685,461.8527886867523,461.85604190826416,461.8675925731659,462.01680421829224,462.01680421829224,462.01680421829224,462.01680421829224,462.01680421829224,462.01680421829224,462.01680421829224,465.2860629558563,3,3.401926040649414,None,,,,,,,,,,,,,,,,,,7,1,2025-02-18_12h57.20.047,comp,2024.2.4,56.12903657490488,2025-02-18 13h00.13.306774 -0500,
101,101,0,critical,wdh,35.0,2.1,upper,125.0,200.0,127.0,127.0,200.0,125.0,3,2.319274425506592,None,,,,,0,0,0,0,0,101,101,33,465.3021113872528,,,,,,,,,,,,,,,,,,,,,,,,,,,,,,,,,,,,,,,,,,,,,,,,,,,,,,,,,,,,,,,,,,,,,,,,,,,,,,,,,125.0,200.0,127.0,127.0,200.0,125.0,2.1,2.11,-260,258,0,283,222,-266,465.2876205444336,465.28770112991333,465.2917332649231,465.3021113872528,465.4504494667053,465.4504494667053,465.4504494667053,465.4504494667053,465.4504494667053,465.4504494667053,465.4504494667053,467.63234066963196,3,2.319274425506592,None,,,,,,,,,,,,,,,,,,7,1,2025-02-18_12h57.20.047,comp,2024.2.4,56.12903657490488,2025-02-18 13h00.13.306774 -0500,
102,102,0,critical,wdh,35.0,2.1,lower,57.0,133.0,70.0,70.0,133.0,57.0,3,2.3787050247192383,None,,,,,0,0,0,0,0,102,102,32,467.6508107185364,,,,,,,,,,,,,,,,,,,,,,,,,,,,,,,,,,,,,,,,,,,,,,,,,,,,,,,,,,,,,,,,,,,,,,,,,,,,,,,,,57.0,133.0,70.0,70.0,133.0,57.0,2.1,2.11,-198,265,0,268,160,-256,467.6339621543884,467.6340534687042,467.6375777721405,467.6508107185364,467.8023421764374,467.8023421764374,467.8023421764374,467.8023421764374,467.8023421764374,467.8023421764374,467.8023421764374,470.04242038726807,3,2.3787050247192383,None,,,,,,,,,,,,,,,,,,7,1,2025-02-18_12h57.20.047,comp,2024.2.4,56.12903657490488,2025-02-18 13h00.13.306774 -0500,
103,103,0,critical,dhw,35.0,3.0,lower,70.0,70.0,133.0,57.0,57.0,133.0,2,1.6401267051696777,None,,,,,0,0,0,0,0,103,103,50,470.0614445209503,,,,,,,,,,,,,,,,,,,,,,,,,,,,,,,,,,,,,,,,,,,,,,,,,,,,,,,,,,,,,,,,,,,,,,,,,,,,,,,,,70.0,70.0,133.0,57.0,57.0,133.0,3.0,3.1,-160,287,0,-1,191,-275,470.04397106170654,470.044052362442,470.047162771225,470.0614445209503,470.2001745700836,470.2001745700836,470.2001745700836,470.2001745700836,470.2001745700836,470.2001745700836,470.2001745700836,471.71711897850037,2,1.6401267051696777,None,,,,,,,,,,,,,,,,,,7,1,2025-02-18_12h57.20.047,comp,2024.2.4,56.12903657490488,2025-02-18 13h00.13.306774 -0500,
104,104,0,filler_random,None,None,None,None,None,None,None,None,None,None,2,1.869680404663086,None,,,,,0,0,0,0,0,104,104,156,471.73604583740234,,,,,,,,,,,,,,,,,,,,,,,,,,,,,,,,,,,,,,,,,,,,,,,,,,,,,,,,,,,,,,,,,,,,,,,,,,,,,,,,,86.64622064759943,64.1522487044677,129.8036921477334,139.93535856774918,71.10756665440489,171.700032580147,2.1,2.12,-198,-271,0,-262,252,264,471.71884751319885,471.7189242839813,471.7221829891205,471.73604583740234,471.8847346305847,471.8847346305847,471.8847346305847,471.8847346305847,471.8847346305847,471.8847346305847,471.8847346305847,473.61881399154663,2,1.869680404663086,None,,,,,,,,,,,,,,,,,,7,1,2025-02-18_12h57.20.047,comp,2024.2.4,56.12903657490488,2025-02-18 13h00.13.306774 -0500,
105,105,0,critical,dhw,35.0,4.0,lower,70.0,70.0,133.0,57.0,57.0,133.0,2,3.387147903442383,None,,,,,0,0,0,0,0,105,105,52,473.63463973999023,,,,,,,,,,,,,,,,,,,,,,,,,,,,,,,,,,,,,,,,,,,,,,,,,,,,,,,,,,,,,,,,,,,,,,,,,,,,,,,,,70.0,70.0,133.0,57.0,57.0,133.0,4.0,4.1,-160,-278,0,3,191,-270,473.62043619155884,473.6205897331238,473.6243255138397,473.63463973999023,473.78574895858765,473.78574895858765,473.78574895858765,473.78574895858765,473.78574895858765,473.78574895858765,473.78574895858765,477.03874230384827,2,3.387147903442383,None,,,,,,,,,,,,,,,,,,7,1,2025-02-18_12h57.20.047,comp,2024.2.4,56.12903657490488,2025-02-18 13h00.13.306774 -0500,
106,106,0,critical,hdw,35.0,3.0,lower,133.0,57.0,70.0,70.0,57.0,133.0,1,2.8536245822906494,None,,,,,0,0,0,0,0,106,106,110,477.05641984939575,,,,,,,,,,,,,,,,,,,,,,,,,,,,,,,,,,,,,,,,,,,,,,,,,,,,,,,,,,,,,,,,,,,,,,,,,,,,,,,,,133.0,57.0,70.0,70.0,57.0,133.0,3.0,3.2,-160,-261,0,-20,198,260,477.04037737846375,477.040456533432,477.04373383522034,477.05641984939575,477.20264506340027,477.20264506340027,477.20264506340027,477.20264506340027,477.20264506340027,477.20264506340027,477.20264506340027,479.92043352127075,1,2.8536245822906494,None,,,,,,,,,,,,,,,,,,7,1,2025-02-18_12h57.20.047,comp,2024.2.4,56.12903657490488,2025-02-18 13h00.13.306774 -0500,
107,107,0,filler_random,None,None,None,None,None,None,None,None,None,None,1,1.6291146278381348,None,,,,,0,0,0,0,0,107,107,157,479.93713212013245,,,,,,,,,,,,,,,,,,,,,,,,,,,,,,,,,,,,,,,,,,,,,,,,,,,,,,,,,,,,,,,,,,,,,,,,,,,,,,,,,176.66797309473074,127.41504990262038,184.794230390276,95.47324096888843,140.47902236792874,117.09974289055805,4.0,4.1,-207,-274,0,-4,202,-251,479.9223735332489,479.9225387573242,479.9261841773987,479.93713212013245,480.092159986496,480.092159986496,480.092159986496,480.092159986496,480.092159986496,480.092159986496,480.092159986496,481.57116079330444,1,1.6291146278381348,None,,,,,,,,,,,,,,,,,,7,1,2025-02-18_12h57.20.047,comp,2024.2.4,56.12903657490488,2025-02-18 13h00.13.306774 -0500,
108,108,0,critical,wdh,20.0,4.0,upper,125.0,200.0,141.0,141.0,200.0,125.0,3,11.875053882598877,None,,,,,0,0,0,0,0,108,108,83,481.58717823028564,,,,,,,,,,,,,,,,,,,,,,,,,,,,,,,,,,,,,,,,,,,,,,,,,,,,,,,,,,,,,,,,,,,,,,,,,,,,,,,,,125.0,200.0,141.0,141.0,200.0,125.0,4.0,4.1,-266,-253,0,-17,229,-274,481.57269740104675,481.57277727127075,481.57633876800537,481.58717823028564,481.736656665802,481.736656665802,481.736656665802,481.736656665802,481.736656665802,481.736656665802,481.736656665802,493.46773171424866,3,11.875053882598877,None,,,,,,,,,,,,,,,,,,7,1,2025-02-18_12h57.20.047,comp,2024.2.4,56.12903657490488,2025-02-18 13h00.13.306774 -0500,
109,109,0,critical,hwd,35.0,4.0,upper,200.0,125.0,125.0,200.0,127.0,127.0,2,2.257936477661133,None,,,,,0,0,0,0,0,109,109,101,493.4842805862427,,,,,,,,,,,,,,,,,,,,,,,,,,,,,,,,,,,,,,,,,,,,,,,,,,,,,,,,,,,,,,,,,,,,,,,,,,,,,,,,,200.0,125.0,125.0,200.0,127.0,127.0,4.0,4.2,-258,8,0,-265,260,7,493.46926259994507,493.4693434238434,493.47240114212036,493.4842805862427,493.6260335445404,493.6260335445404,493.6260335445404,493.6260335445404,493.6260335445404,493.6260335445404,493.6260335445404,495.7632567882538,2,2.257936477661133,None,,,,,,,,,,,,,,,,,,7,1,2025-02-18_12h57.20.047,comp,2024.2.4,56.12903657490488,2025-02-18 13h00.13.306774 -0500,
110,110,0,filler_random,None,None,None,None,None,None,None,None,None,None,2,2.534947633743286,None,,,,,0,0,0,0,0,110,110,134,495.7835786342621,,,,,,,,,,,,,,,,,,,,,,,,,,,,,,,,,,,,,,,,,,,,,,,,,,,,,,,,,,,,,,,,,,,,,,,,,,,,,,,,,68.01049778064537,146.30918015474714,64.86340825062409,189.67528991315783,102.62904958419531,91.08622285524947,2.1,2.12,-264,-277,0,-284,236,263,495.7650954723358,495.7651767730713,495.768269777298,495.7835786342621,495.9309525489807,495.9309525489807,495.9309525489807,495.9309525489807,495.9309525489807,495.9309525489807,495.9309525489807,498.3269646167755,2,2.534947633743286,None,,,,,,,,,,,,,,,,,,7,1,2025-02-18_12h57.20.047,comp,2024.2.4,56.12903657490488,2025-02-18 13h00.13.306774 -0500,
111,111,0,filler_random,None,None,None,None,None,None,None,None,None,None,2,1.5505340099334717,None,,,,,0,0,0,0,0,111,111,131,498.34321689605713,,,,,,,,,,,,,,,,,,,,,,,,,,,,,,,,,,,,,,,,,,,,,,,,,,,,,,,,,,,,,,,,,,,,,,,,,,,,,,,,,100.32519140056216,137.6868891658344,169.5963542104518,94.51378191978384,64.95145972076538,118.61546093242754,4.0,4.1,-212,-288,0,-15,203,-286,498.32881927490234,498.32890224456787,498.33245968818665,498.34321689605713,498.49394941329956,498.49394941329956,498.49394941329956,498.49394941329956,498.49394941329956,498.49394941329956,498.49394941329956,499.9102635383606,2,1.5505340099334717,None,,,,,,,,,,,,,,,,,,7,1,2025-02-18_12h57.20.047,comp,2024.2.4,56.12903657490488,2025-02-18 13h00.13.306774 -0500,
112,112,0,filler_square,None,None,None,None,None,None,None,None,None,None,1,2.7356789112091064,None,,,,,0,0,0,0,0,112,112,209,499.9267282485962,,,,,,,,,,,,,,,,,,,,,,,,,,,,,,,,,,,,,,,,,,,,,,,,,,,,,,,,,,,,,,,,,,,,,,,,,,,,,,,,,57.43206511925378,58.080452546664354,58.38240686585492,58.38240686585492,58.36389606032213,58.360062705729305,1.0,1.3,326,-253,480,-282,634,-268,499.9124276638031,499.9125072956085,499.9163181781769,499.9267282485962,500.07520031929016,500.07520031929016,500.07520031929016,500.07520031929016,500.07520031929016,500.07520031929016,500.07520031929016,502.667503118515,1,2.7356789112091064,None,,,,,,,,,,,,,,,,,,7,1,2025-02-18_12h57.20.047,comp,2024.2.4,56.12903657490488,2025-02-18 13h00.13.306774 -0500,
113,113,0,filler_random,None,None,None,None,None,None,None,None,None,None,1,1.7458932399749756,None,,,,,0,0,0,0,0,113,113,161,502.68395805358887,,,,,,,,,,,,,,,,,,,,,,,,,,,,,,,,,,,,,,,,,,,,,,,,,,,,,,,,,,,,,,,,,,,,,,,,,,,,,,,,,174.71411097000805,191.26438218743363,104.42518608388868,171.3093506425484,181.34244217306406,168.6321049429351,4.0,4.1,-277,-259,0,13,266,-275,502.6692097187042,502.6692924499512,502.6723551750183,502.68395805358887,502.82922196388245,502.82922196388245,502.82922196388245,502.82922196388245,502.82922196388245,502.82922196388245,502.82922196388245,504.4461176395416,1,1.7458932399749756,None,,,,,,,,,,,,,,,,,,7,1,2025-02-18_12h57.20.047,comp,2024.2.4,56.12903657490488,2025-02-18 13h00.13.306774 -0500,
114,114,0,critical,dhw,20.0,4.0,upper,141.0,141.0,200.0,125.0,125.0,200.0,3,4.066018342971802,None,,,,,0,0,0,0,0,114,114,59,504.4605920314789,,,,,,,,,,,,,,,,,,,,,,,,,,,,,,,,,,,,,,,,,,,,,,,,,,,,,,,,,,,,,,,,,,,,,,,,,,,,,,,,,141.0,141.0,200.0,125.0,125.0,200.0,4.0,4.2,-229,18,0,-264,258,8,504.4476411342621,504.44771790504456,504.4511225223541,504.4605920314789,504.61111211776733,504.61111211776733,504.61111211776733,504.61111211776733,504.61111211776733,504.61111211776733,504.61111211776733,508.53023505210876,3,4.066018342971802,None,,,,,,,,,,,,,,,,,,7,1,2025-02-18_12h57.20.047,comp,2024.2.4,56.12903657490488,2025-02-18 13h00.13.306774 -0500,
115,115,0,filler_random,None,None,None,None,None,None,None,None,None,None,2,1.3956761360168457,None,,,,,0,0,0,0,0,115,115,168,508.5470769405365,,,,,,,,,,,,,,,,,,,,,,,,,,,,,,,,,,,,,,,,,,,,,,,,,,,,,,,,,,,,,,,,,,,,,,,,,,,,,,,,,136.51236616843974,95.38739623604513,162.4242457493059,182.1835493498718,98.39643786836088,185.59305922672675,2.1,2.12,-235,-285,0,-259,280,255,508.5319826602936,508.53206300735474,508.5361964702606,508.5470769405365,508.6967315673828,508.6967315673828,508.6967315673828,508.6967315673828,508.6967315673828,508.6967315673828,508.6967315673828,509.94958901405334,2,1.3956761360168457,None,,,,,,,,,,,,,,,,,,7,1,2025-02-18_12h57.20.047,comp,2024.2.4,56.12903657490488,2025-02-18 13h00.13.306774 -0500,
116,116,0,catch,None,None,None,None,None,None,None,None,None,None,1,1.079618215560913,None,,,,,0,0,0,0,0,116,116,129,509.9666237831116,,,,,,,,,,,,,,,,,,,,,,,,,,,,,,,,,,,,,,,,,,,,,,,,,,,,,,,,,,,,,,,,,,,,,,,,,,,,,,,,,142,183,132,58,118,72,3.0,3.2,-216,-278,0,-4,161,274,509.9517984390259,509.9518814086914,509.95587635040283,509.9666237831116,510.1143982410431,510.1143982410431,510.1143982410431,510.1143982410431,510.1143982410431,510.1143982410431,510.1143982410431,511.0483064651489,1,1.079618215560913,None,,,,,,,,,,,,,,,,,,7,1,2025-02-18_12h57.20.047,comp,2024.2.4,56.12903657490488,2025-02-18 13h00.13.306774 -0500,
117,117,0,filler_square,None,None,None,None,None,None,None,None,None,None,2,1.4931707382202148,None,,,,,0,0,0,0,0,117,117,192,511.0654902458191,,,,,,,,,,,,,,,,,,,,,,,,,,,,,,,,,,,,,,,,,,,,,,,,,,,,,,,,,,,,,,,,,,,,,,,,,,,,,,,,,59.46640130845517,65.6438730723471,71.7180825895371,71.7180825895371,67.54710265324208,57.630722844676434,2.1,2.12,-165,-261,0,-288,161,257,511.05019068717957,511.0503180027008,511.0534710884094,511.0654902458191,511.2185788154602,511.2185788154602,511.2185788154602,511.2185788154602,511.2185788154602,511.2185788154602,511.2185788154602,512.5645027160645,2,1.4931707382202148,None,,,,,,,,,,,,,,,,,,7,1,2025-02-18_12h57.20.047,comp,2024.2.4,56.12903657490488,2025-02-18 13h00.13.306774 -0500,
118,118,0,critical,dwh,35.0,4.0,lower,70.0,70.0,57.0,133.0,133.0,57.0,3,1.6253879070281982,None,,,,,0,0,0,0,0,118,118,64,512.580500125885,,,,,,,,,,,,,,,,,,,,,,,,,,,,,,,,,,,,,,,,,,,,,,,,,,,,,,,,,,,,,,,,,,,,,,,,,,,,,,,,,70.0,70.0,57.0,133.0,133.0,57.0,4.0,4.1,-198,-283,0,-3,191,-259,512.5661089420319,512.5661902427673,512.5697228908539,512.580500125885,512.7316725254059,512.7316725254059,512.7316725254059,512.7316725254059,512.7316725254059,512.7316725254059,512.7316725254059,514.2180681228638,3,1.6253879070281982,None,,,,,,,,,,,,,,,,,,7,1,2025-02-18_12h57.20.047,comp,2024.2.4,56.12903657490488,2025-02-18 13h00.13.306774 -0500,
119,119,0,critical,whd,35.0,1.0,lower,57.0,133.0,133.0,57.0,70.0,70.0,1,3.7643344402313232,None,,,,,0,0,0,0,0,119,119,84,514.2337999343872,,,,,,,,,,,,,,,,,,,,,,,,,,,,,,,,,,,,,,,,,,,,,,,,,,,,,,,,,,,,,,,,,,,,,,,,,,,,,,,,,57.0,133.0,133.0,57.0,70.0,70.0,1.0,1.1,-671,258,-480,289,-320,256,514.2202532291412,514.2203352451324,514.2234308719635,514.2337999343872,514.3823502063751,514.3823502063751,514.3823502063751,514.3823502063751,514.3823502063751,514.3823502063751,514.3823502063751,518.0150816440582,1,3.7643344402313232,None,,,,,,,,,,,,,,,,,,7,1,2025-02-18_12h57.20.047,comp,2024.2.4,56.12903657490488,2025-02-18 13h00.13.306774 -0500,
120,120,0,filler_square,None,None,None,None,None,None,None,None,None,None,1,1.2793984413146973,None,,,,,0,0,0,0,0,120,120,202,518.0317542552948,,,,,,,,,,,,,,,,,,,,,,,,,,,,,,,,,,,,,,,,,,,,,,,,,,,,,,,,,,,,,,,,,,,,,,,,,,,,,,,,,156.85539807514016,156.85539807514016,59.65195591206631,128.44938432829625,101.96073798246815,129.68738844775567,1.0,1.3,241,-257,480,-254,705,-275,518.0169186592102,518.0169987678528,518.020231962204,518.0317542552948,518.172039270401,518.172039270401,518.172039270401,518.172039270401,518.172039270401,518.172039270401,518.172039270401,519.3158156871796,1,1.2793984413146973,None,,,,,,,,,,,,,,,,,,7,1,2025-02-18_12h57.20.047,comp,2024.2.4,56.12903657490488,2025-02-18 13h00.13.306774 -0500,
121,121,0,critical,whd,35.0,3.0,upper,125.0,200.0,200.0,125.0,127.0,127.0,2,6.687532663345337,None,,,,,0,0,0,0,0,121,121,87,519.3346111774445,,,,,,,,,,,,,,,,,,,,,,,,,,,,,,,,,,,,,,,,,,,,,,,,,,,,,,,,,,,,,,,,,,,,,,,,,,,,,,,,,125.0,200.0,200.0,125.0,127.0,127.0,3.0,3.1,-258,253,0,-11,222,-260,519.3173279762268,519.3174061775208,519.3207530975342,519.3346111774445,519.48406291008,519.48406291008,519.48406291008,519.48406291008,519.48406291008,519.48406291008,519.48406291008,526.0359551906586,2,6.687532663345337,None,,,,,,,,,,,,,,,,,,7,1,2025-02-18_12h57.20.047,comp,2024.2.4,56.12903657490488,2025-02-18 13h00.13.306774 -0500,
122,122,0,critical,wdh,35.0,1.0,upper,125.0,200.0,127.0,127.0,200.0,125.0,1,2.298550844192505,None,,,,,0,0,0,0,0,122,122,73,526.0516500473022,,,,,,,,,,,,,,,,,,,,,,,,,,,,,,,,,,,,,,,,,,,,,,,,,,,,,,,,,,,,,,,,,,,,,,,,,,,,,,,,,125.0,200.0,127.0,127.0,200.0,125.0,1.0,1.3,220,-290,480,-256,702,-279,526.0376234054565,526.0377042293549,526.0410177707672,526.0516500473022,526.1899206638336,526.1899206638336,526.1899206638336,526.1899206638336,526.1899206638336,526.1899206638336,526.1899206638336,528.3703045845032,1,2.298550844192505,None,,,,,,,,,,,,,,,,,,7,1,2025-02-18_12h57.20.047,comp,2024.2.4,56.12903657490488,2025-02-18 13h00.13.306774 -0500,
123,123,0,filler_random,None,None,None,None,None,None,None,None,None,None,3,2.3227176666259766,None,,,,,0,0,0,0,0,123,123,130,528.3878746032715,,,,,,,,,,,,,,,,,,,,,,,,,,,,,,,,,,,,,,,,,,,,,,,,,,,,,,,,,,,,,,,,,,,,,,,,,,,,,,,,,96.7741950371588,164.90044026839627,191.84838864465752,69.59340077842836,113.00097763230917,169.44845840173934,2.1,2.12,-213,-259,0,-274,216,283,528.3720502853394,528.3721301555634,528.3759968280792,528.3878746032715,528.539689540863,528.539689540863,528.539689540863,528.539689540863,528.539689540863,528.539689540863,528.539689540863,530.7280642986298,3,2.3227176666259766,None,,,,,,,,,,,,,,,,,,7,1,2025-02-18_12h57.20.047,comp,2024.2.4,56.12903657490488,2025-02-18 13h00.13.306774 -0500,
124,124,0,filler_random,None,None,None,None,None,None,None,None,None,None,1,4.334561586380005,None,,,,,0,0,0,0,0,124,124,144,530.7439532279968,,,,,,,,,,,,,,,,,,,,,,,,,,,,,,,,,,,,,,,,,,,,,,,,,,,,,,,,,,,,,,,,,,,,,,,,,,,,,,,,,122.58058495136001,93.45528290777636,100.32998218907248,66.89699301337355,93.03749908154819,96.43145895443406,2.2,2.22,-176,267,0,-281,178,-281,530.7303035259247,530.7304222583771,530.7335824966431,530.7439532279968,530.8877353668213,530.8877353668213,530.8877353668213,530.8877353668213,530.8877353668213,530.8877353668213,530.8877353668213,535.087366104126,1,4.334561586380005,None,,,,,,,,,,,,,,,,,,7,1,2025-02-18_12h57.20.047,comp,2024.2.4,56.12903657490488,2025-02-18 13h00.13.306774 -0500,
125,125,0,critical,hdw,20.0,2.1,upper,200.0,125.0,141.0,141.0,125.0,200.0,3,3.107773542404175,None,,,,,0,0,0,0,0,125,125,23,535.1071259975433,,,,,,,,,,,,,,,,,,,,,,,,,,,,,,,,,,,,,,,,,,,,,,,,,,,,,,,,,,,,,,,,,,,,,,,,,,,,,,,,,200.0,125.0,141.0,141.0,125.0,200.0,2.1,2.11,-229,266,0,251,266,-271,535.0889945030212,535.0890760421753,535.0925571918488,535.1071259975433,535.2547521591187,535.2547521591187,535.2547521591187,535.2547521591187,535.2547521591187,535.2547521591187,535.2547521591187,538.221438407898,3,3.107773542404175,None,,,,,,,,,,,,,,,,,,7,1,2025-02-18_12h57.20.047,comp,2024.2.4,56.12903657490488,2025-02-18 13h00.13.306774 -0500,
126,126,0,critical,wdh,20.0,3.0,upper,125.0,200.0,141.0,141.0,200.0,125.0,1,3.271847724914551,None,,,,,0,0,0,0,0,126,126,81,538.2385556697845,,,,,,,,,,,,,,,,,,,,,,,,,,,,,,,,,,,,,,,,,,,,,,,,,,,,,,,,,,,,,,,,,,,,,,,,,,,,,,,,,125.0,200.0,141.0,141.0,200.0,125.0,3.0,3.2,-266,-283,0,0,229,263,538.2229647636414,538.2230460643768,538.2264366149902,538.2385556697845,538.3896045684814,538.3896045684814,538.3896045684814,538.3896045684814,538.3896045684814,538.3896045684814,538.3896045684814,541.5208940505981,1,3.271847724914551,None,,,,,,,,,,,,,,,,,,7,1,2025-02-18_12h57.20.047,comp,2024.2.4,56.12903657490488,2025-02-18 13h00.13.306774 -0500,
127,127,0,critical,hdw,20.0,1.0,lower,133.0,57.0,78.0,78.0,57.0,133.0,1,4.381126403808594,None,,,,,0,0,0,0,0,127,127,114,541.5378110408783,,,,,,,,,,,,,,,,,,,,,,,,,,,,,,,,,,,,,,,,,,,,,,,,,,,,,,,,,,,,,,,,,,,,,,,,,,,,,,,,,133.0,57.0,78.0,78.0,57.0,133.0,1.0,1.3,316,-275,480,-259,682,-273,541.5225088596344,541.5226674079895,541.5261082649231,541.5378110408783,541.6944258213043,541.6944258213043,541.6944258213043,541.6944258213043,541.6944258213043,541.6944258213043,541.6944258213043,545.9258368015289,1,4.381126403808594,None,,,,,,,,,,,,,,,,,,7,1,2025-02-18_12h57.20.047,comp,2024.2.4,56.12903657490488,2025-02-18 13h00.13.306774 -0500,
128,128,0,filler_random,None,None,None,None,None,None,None,None,None,None,2,1.1842467784881592,None,,,,,0,0,0,0,0,128,128,132,545.9419236183167,,,,,,,,,,,,,,,,,,,,,,,,,,,,,,,,,,,,,,,,,,,,,,,,,,,,,,,,,,,,,,,,,,,,,,,,,,,,,,,,,135.6473174204938,71.2539683776879,124.75242157424653,167.85346424599214,64.99010898228127,171.7786372510236,1.0,1.2,-216,-14,0,9,266,4,545.9275734424591,545.927657365799,545.9311764240265,545.9419236183167,546.1016051769257,546.1016051769257,546.1016051769257,546.1016051769257,546.1016051769257,546.1016051769257,546.1016051769257,547.1427550315857,2,1.1842467784881592,None,,,,,,,,,,,,,,,,,,7,1,2025-02-18_12h57.20.047,comp,2024.2.4,56.12903657490488,2025-02-18 13h00.13.306774 -0500,
129,129,0,critical,hdw,20.0,1.0,upper,200.0,125.0,141.0,141.0,125.0,200.0,1,2.833012342453003,None,,,,,0,0,0,0,0,129,129,115,547.1581575870514,,,,,,,,,,,,,,,,,,,,,,,,,,,,,,,,,,,,,,,,,,,,,,,,,,,,,,,,,,,,,,,,,,,,,,,,,,,,,,,,,200.0,125.0,141.0,141.0,125.0,200.0,1.0,1.2,-229,-8,0,-10,266,-5,547.1442973613739,547.1443748474121,547.1478409767151,547.1581575870514,547.3074126243591,547.3074126243591,547.3074126243591,547.3074126243591,547.3074126243591,547.3074126243591,547.3074126243591,549.9958205223083,1,2.833012342453003,None,,,,,,,,,,,,,,,,,,7,1,2025-02-18_12h57.20.047,comp,2024.2.4,56.12903657490488,2025-02-18 13h00.13.306774 -0500,
130,130,0,critical,wdh,20.0,2.1,upper,125.0,200.0,141.0,141.0,200.0,125.0,1,3.281611442565918,None,,,,,0,0,0,0,0,130,130,11,550.012672662735,,,,,,,,,,,,,,,,,,,,,,,,,,,,,,,,,,,,,,,,,,,,,,,,,,,,,,,,,,,,,,,,,,,,,,,,,,,,,,,,,125.0,200.0,141.0,141.0,200.0,125.0,2.1,2.11,-266,281,0,273,229,-257,549.997611284256,549.9976930618286,550.00182056427,550.012672662735,550.1652765274048,550.1652765274048,550.1652765274048,550.1652765274048,550.1652765274048,550.1652765274048,550.1652765274048,553.3110017776489,1,3.281611442565918,None,,,,,,,,,,,,,,,,,,7,1,2025-02-18_12h57.20.047,comp,2024.2.4,56.12903657490488,2025-02-18 13h00.13.306774 -0500,
131,131,0,critical,wdh,35.0,2.1,lower,57.0,133.0,70.0,70.0,133.0,57.0,3,6.246240139007568,None,,,,,0,0,0,0,0,131,131,8,553.3287420272827,,,,,,,,,,,,,,,,,,,,,,,,,,,,,,,,,,,,,,,,,,,,,,,,,,,,,,,,,,,,,,,,,,,,,,,,,,,,,,,,,57.0,133.0,70.0,70.0,133.0,57.0,2.1,2.12,-198,-279,0,-262,160,268,553.3125529289246,553.3126363754272,553.315929889679,553.3287420272827,553.4827630519867,553.4827630519867,553.4827630519867,553.4827630519867,553.4827630519867,553.4827630519867,553.4827630519867,559.5798296928406,3,6.246240139007568,None,,,,,,,,,,,,,,,,,,7,1,2025-02-18_12h57.20.047,comp,2024.2.4,56.12903657490488,2025-02-18 13h00.13.306774 -0500,
132,132,0,critical,whd,35.0,4.0,upper,125.0,200.0,200.0,125.0,127.0,127.0,1,5.803001165390015,None,,,,,0,0,0,0,0,132,132,89,559.5958545207977,,,,,,,,,,,,,,,,,,,,,,,,,,,,,,,,,,,,,,,,,,,,,,,,,,,,,,,,,,,,,,,,,,,,,,,,,,,,,,,,,125.0,200.0,200.0,125.0,127.0,127.0,4.0,4.1,-258,-255,0,5,222,-255,559.5813975334167,559.5814800262451,559.5851004123688,559.5958545207977,559.7462196350098,559.7462196350098,559.7462196350098,559.7462196350098,559.7462196350098,559.7462196350098,559.7462196350098,565.416487455368,1,5.803001165390015,None,,,,,,,,,,,,,,,,,,7,1,2025-02-18_12h57.20.047,comp,2024.2.4,56.12903657490488,2025-02-18 13h00.13.306774 -0500,
133,133,0,filler_square,None,None,None,None,None,None,None,None,None,None,1,1.6700217723846436,None,,,,,0,0,0,0,0,133,133,180,565.433351278305,,,,,,,,,,,,,,,,,,,,,,,,,,,,,,,,,,,,,,,,,,,,,,,,,,,,,,,,,,,,,,,,,,,,,,,,,,,,,,,,,108.30055260593255,108.30055260593255,79.22657613294464,84.77500684397206,73.05020841829611,72.93641179040243,2.2,2.22,-193,252,0,-255,175,-274,565.4187161922455,565.4188513755798,565.4221937656403,565.433351278305,565.5783987045288,565.5783987045288,565.5783987045288,565.5783987045288,565.5783987045288,565.5783987045288,565.5783987045288,567.1167047023773,1,1.6700217723846436,None,,,,,,,,,,,,,,,,,,7,1,2025-02-18_12h57.20.047,comp,2024.2.4,56.12903657490488,2025-02-18 13h00.13.306774 -0500,
134,134,0,critical,dwh,20.0,4.0,upper,141.0,141.0,125.0,200.0,200.0,125.0,3,3.7615931034088135,None,,,,,0,0,0,0,0,134,134,71,567.1332037448883,,,,,,,,,,,,,,,,,,,,,,,,,,,,,,,,,,,,,,,,,,,,,,,,,,,,,,,,,,,,,,,,,,,,,,,,,,,,,,,,,141.0,141.0,125.0,200.0,200.0,125.0,4.0,4.2,-266,9,0,-265,258,16,567.1183485984802,567.1184606552124,567.1220028400421,567.1332037448883,567.2816832065582,567.2816832065582,567.2816832065582,567.2816832065582,567.2816832065582,567.2816832065582,567.2816832065582,570.8989987373352,3,3.7615931034088135,None,,,,,,,,,,,,,,,,,,7,1,2025-02-18_12h57.20.047,comp,2024.2.4,56.12903657490488,2025-02-18 13h00.13.306774 -0500,
135,135,0,catch,None,None,None,None,None,None,None,None,None,None,3,1.763408899307251,None,,,,,0,0,0,0,0,135,135,124,570.9154012203217,,,,,,,,,,,,,,,,,,,,,,,,,,,,,,,,,,,,,,,,,,,,,,,,,,,,,,,,,,,,,,,,,,,,,,,,,,,,,,,,,114,76,69,121,198,127,1.0,1.3,286,-275,480,-268,700,-270,570.9009983539581,570.9010808467865,570.9043099880219,570.9154012203217,571.0694260597229,571.0694260597229,571.0694260597229,571.0694260597229,571.0694260597229,571.0694260597229,571.0694260597229,572.682165145874,3,1.763408899307251,None,,,,,,,,,,,,,,,,,,7,1,2025-02-18_12h57.20.047,comp,2024.2.4,56.12903657490488,2025-02-18 13h00.13.306774 -0500,
136,136,0,filler_random,None,None,None,None,None,None,None,None,None,None,3,2.28366756439209,None,,,,,0,0,0,0,0,136,136,152,572.6993319988251,,,,,,,,,,,,,,,,,,,,,,,,,,,,,,,,,,,,,,,,,,,,,,,,,,,,,,,,,,,,,,,,,,,,,,,,,,,,,,,,,179.35804577868527,67.10563795137594,98.22779749432897,153.41056090784286,128.01125281137888,197.5432671110914,4.0,4.1,-206,-277,0,-3,271,-264,572.6839597225189,572.6840867996216,572.6875081062317,572.6993319988251,572.8349711894989,572.8349711894989,572.8349711894989,572.8349711894989,572.8349711894989,572.8349711894989,572.8349711894989,574.985155582428,3,2.28366756439209,None,,,,,,,,,,,,,,,,,,7,1,2025-02-18_12h57.20.047,comp,2024.2.4,56.12903657490488,2025-02-18 13h00.13.306774 -0500,
137,137,0,filler_random,None,None,None,None,None,None,None,None,None,None,2,1.1729557514190674,None,,,,,0,0,0,0,0,137,137,140,575.0021016597748,,,,,,,,,,,,,,,,,,,,,,,,,,,,,,,,,,,,,,,,,,,,,,,,,,,,,,,,,,,,,,,,,,,,,,,,,,,,,,,,,98.58811276709548,75.19853198281717,116.87469439528626,139.54208355423856,126.33206739464435,79.82505076077081,1.0,1.3,277,-262,480,-288,686,-278,574.9870343208313,574.9871137142181,574.9904165267944,575.0021016597748,575.1506242752075,575.1506242752075,575.1506242752075,575.1506242752075,575.1506242752075,575.1506242752075,575.1506242752075,576.183468580246,2,1.1729557514190674,None,,,,,,,,,,,,,,,,,,7,1,2025-02-18_12h57.20.047,comp,2024.2.4,56.12903657490488,2025-02-18 13h00.13.306774 -0500,
138,138,0,critical,hwd,20.0,2.1,upper,200.0,125.0,125.0,200.0,141.0,141.0,1,3.0225844383239746,None,,,,,0,0,0,0,0,138,138,19,576.1998989582062,,,,,,,,,,,,,,,,,,,,,,,,,,,,,,,,,,,,,,,,,,,,,,,,,,,,,,,,,,,,,,,,,,,,,,,,,,,,,,,,,200.0,125.0,125.0,200.0,141.0,141.0,2.1,2.12,-258,-287,0,-285,266,272,576.185010433197,576.1850855350494,576.1881680488586,576.1998989582062,576.3559517860413,576.3559517860413,576.3559517860413,576.3559517860413,576.3559517860413,576.3559517860413,576.3559517860413,579.2377507686615,1,3.0225844383239746,None,,,,,,,,,,,,,,,,,,7,1,2025-02-18_12h57.20.047,comp,2024.2.4,56.12903657490488,2025-02-18 13h00.13.306774 -0500,
139,139,0,critical,hwd,35.0,1.0,lower,133.0,57.0,57.0,133.0,70.0,70.0,1,2.176942825317383,None,,,,,0,0,0,0,0,139,139,96,579.2536678314209,,,,,,,,,,,,,,,,,,,,,,,,,,,,,,,,,,,,,,,,,,,,,,,,,,,,,,,,,,,,,,,,,,,,,,,,,,,,,,,,,133.0,57.0,57.0,133.0,70.0,70.0,1.0,1.3,289,-276,480,-263,678,-274,579.2394695281982,579.2396328449249,579.2432765960693,579.2536678314209,579.406085729599,579.406085729599,579.406085729599,579.406085729599,579.406085729599,579.406085729599,579.406085729599,581.4353778362274,1,2.176942825317383,None,,,,,,,,,,,,,,,,,,7,1,2025-02-18_12h57.20.047,comp,2024.2.4,56.12903657490488,2025-02-18 13h00.13.306774 -0500,
140,140,0,filler_random,None,None,None,None,None,None,None,None,None,None,3,1.379023790359497,None,,,,,0,0,0,0,0,140,140,138,581.45197224617,,,,,,,,,,,,,,,,,,,,,,,,,,,,,,,,,,,,,,,,,,,,,,,,,,,,,,,,,,,,,,,,,,,,,,,,,,,,,,,,,86.04432971950894,156.97758481809353,187.33959470468554,70.0328213966393,146.15622529269223,160.75401115617194,1.0,1.2,-210,-13,0,-12,211,-8,581.4361562728882,581.4361913204193,581.4376628398895,581.45197224617,581.5857915878296,581.5857915878296,581.5857915878296,581.5857915878296,581.5857915878296,581.5857915878296,581.5857915878296,582.8384127616882,3,1.379023790359497,None,,,,,,,,,,,,,,,,,,7,1,2025-02-18_12h57.20.047,comp,2024.2.4,56.12903657490488,2025-02-18 13h00.13.306774 -0500,
