thisN,thisTrialN,thisRepN,effect,order,distance,config,diag,h_1,w_1,h_2,w_2,h_3,w_3,rect_choice.keys,rect_choice.rt,rect_choice.duration,instructions_loop.thisRepN,instructions_loop.thisTrialN,instructions_loop.thisN,instructions_loop.thisIndex,blocks.thisRepN,blocks.thisTrialN,blocks.thisN,blocks.thisIndex,trials.thisRepN,trials.thisTrialN,trials.thisN,trials.thisIndex,thisRow.t,notes,consent.started,agree_button.started,decline_button.started,consent_img.started,mouse.started,consent.stopped,agree_button.numClicks,agree_button.timesOn,agree_button.timesOff,decline_button.numClicks,decline_button.timesOn,decline_button.timesOff,mouse.x,mouse.y,mouse.leftButton,mouse.midButton,mouse.rightButton,mouse.time,mouse.clicked_name,exp_params.started,exp_params.stopped,welcome.started,welcome_text.started,welcome.stopped,instructions_1.started,instructions_1_text_1.started,instructions_1_text_2.started,key_resp.started,instructions_1.stopped,instructions_loop.key_resp.keys,instructions_loop.key_resp.rt,instructions_loop.key_resp.duration,instructions_2.started,instructions_2_text_1.started,instructions_2_text_2.started,key_resp_2.started,instructions_2.stopped,instructions_loop.key_resp_2.keys,instructions_loop.key_resp_2.rt,instructions_loop.key_resp_2.duration,instructions_3.started,instructions_3_text_1.started,r1_instr3.started,r2_instr3.started,r3_instr3.started,r1_instr3_label.started,r2_instr3_label.started,r3_instr3_label.started,instructions_3_text_3.started,instructions_3_text_4.started,key_resp_3.started,instructions_3.stopped,instructions_loop.key_resp_3.keys,instructions_loop.key_resp_3.rt,instructions_loop.key_resp_3.duration,instructions_4.started,instructions_4_text_1.started,instructions_4_text_3.started,instructions_4_text_2.started,key_resp_4.started,instructions_4.stopped,instructions_loop.key_resp_4.keys,instructions_loop.key_resp_4.rt,instructions_loop.key_resp_4.duration,instructions_5.started,instructions_5_text_1.started,instructions_5_text_2.started,key_resp_5.started,instructions_5.stopped,instructions_loop.key_resp_5.keys,instructions_loop.key_resp_5.rt,instructions_loop.key_resp_5.duration,start_exp.started,start_exp_text.started,key_resp_6.started,start_exp.stopped,key_resp_6.keys,key_resp_6.rt,key_resp_6.duration,h_1_tmp,w_1_tmp,h_2_tmp,w_2_tmp,h_3_tmp,w_3_tmp,config_tmp,config_tmp_1,r_1_x,r_1_y,r_2_x,r_2_y,r_3_x,r_3_y,pre_trial.started,pre_trial.stopped,choice_trial.started,rect_choice.started,r_1.started,r_2.started,r_3.started,r_1_label.started,r_2_label.started,r_3_label.started,prompt.started,choice_trial.stopped,trials.rect_choice.keys,trials.rect_choice.rt,trials.rect_choice.duration,end_block.started,end_block_text.started,end_block.stopped,end.started,end_text.started,key_resp_7.started,end.stopped,key_resp_7.keys,key_resp_7.rt,key_resp_7.duration,debriefing.started,debrief_form.started,end_debrief.started,debriefing.stopped,end_debrief.keys,end_debrief.rt,end_debrief.duration,participant,computer,date,expName,psychopyVersion,frameRate,expStart,
,,,,,,,,,,,,,,,,,,,,,,,,,,,,,,,0.014862537384033203,0.08168745040893555,0.08168745040893555,0.08168745040893555,0.014659881591796875,55.463372468948364,1,[55.37906074523926],[55.37908482551575],0,,,[-89.0],[-540.0],[1],[0],[0],[55.43404817581177],['agree_button'],,,,,,,,,,,,,,,,,,,,,,,,,,,,,,,,,,,,,,,,,,,,,,,,,,,,,,,,,,,,,,,,,,,,,,,,,,,,,,,,,,,,,,,,,,,,,,,,,,,,,,,,,,,80,4,2025-02-21_13h30.02.136,comp,2024.2.4,55.80032541178693,2025-02-21 13h31.45.100656 -0500,
,,,,,,,,,,,,,,,,,,,,,,,,,,,,,,,,,,,,,,,,,,,,,,,,,,55.463974475860596,55.4640417098999,,,,,,,,,,,,,,,,,,,,,,,,,,,,,,,,,,,,,,,,,,,,,,,,,,,,,,,,,,,,,,,,,,,,,,,,,,,,,,,,,,,,,,,,,,,,,,,,,,,,,,,,,80,4,2025-02-21_13h30.02.136,comp,2024.2.4,55.80032541178693,2025-02-21 13h31.45.100656 -0500,
,,,,,,,,,,,,,,,,,,,,,,,,,,,,,,,,,,,,,,,,,,,,,,,,,,,,55.4640851020813,55.480238914489746,57.479469776153564,,,,,,,,,,,,,,,,,,,,,,,,,,,,,,,,,,,,,,,,,,,,,,,,,,,,,,,,,,,,,,,,,,,,,,,,,,,,,,,,,,,,,,,,,,,,,,,,,,,,,,80,4,2025-02-21_13h30.02.136,comp,2024.2.4,55.80032541178693,2025-02-21 13h31.45.100656 -0500,
0,0,0,,,,,,,,,,,,,,,0,0,0,0,,,,,,,,,57.49532890319824,,,,,,,,,,,,,,,,,,,,,,,,,,57.48035216331482,57.49532890319824,57.49532890319824,58.976890325546265,61.16421914100647,space,2.17271089553833,None,61.164363622665405,61.179646730422974,61.179646730422974,62.67770576477051,75.15098333358765,space,12.455445766448975,None,75.15113186836243,75.18187546730042,75.18187546730042,75.18187546730042,75.18187546730042,75.18187546730042,75.18187546730042,75.18187546730042,75.18187546730042,75.18187546730042,76.6512393951416,80.22048282623291,space,3.5628321170806885,None,80.22066903114319,80.24272751808167,80.24272751808167,80.24272751808167,81.72541546821594,84.7383942604065,space,2.99988055229187,None,84.73854637145996,84.75198149681091,84.75198149681091,86.23774600028992,86.33853435516357,space,0.08778262138366699,None,86.33876419067383,86.35506129264832,86.35506129264832,87.17578101158142,space,0.8187990188598633,None,,,,,,,,,,,,,,,,,,,,,,,,,,,,,,,,,,,,,,,,,,,,,,,80,4,2025-02-21_13h30.02.136,comp,2024.2.4,55.80032541178693,2025-02-21 13h31.45.100656 -0500,
0,0,0,critical,dhw,35.0,2.1,upper,127.0,127.0,200.0,125.0,125.0,200.0,3,5.003179550170898,None,,,,,0,0,0,0,0,0,0,25,87.38650727272034,,,,,,,,,,,,,,,,,,,,,,,,,,,,,,,,,,,,,,,,,,,,,,,,,,,,,,,,,,,,,,,,,,,,,,,,,,,,,,,,,127.0,127.0,200.0,125.0,125.0,200.0,2.1,2.12,-222,-288,0,-288,258,275,87.36738681793213,87.36747217178345,87.37052536010742,87.38650727272034,87.5301468372345,87.5301468372345,87.5301468372345,87.5301468372345,87.5301468372345,87.5301468372345,87.5301468372345,92.39664101600647,3,5.003179550170898,None,,,,,,,,,,,,,,,,,,80,4,2025-02-21_13h30.02.136,comp,2024.2.4,55.80032541178693,2025-02-21 13h31.45.100656 -0500,
1,1,0,critical,wdh,35.0,3.0,upper,125.0,200.0,127.0,127.0,200.0,125.0,1,5.133211135864258,None,,,,,0,0,0,0,0,1,1,75,92.41668224334717,,,,,,,,,,,,,,,,,,,,,,,,,,,,,,,,,,,,,,,,,,,,,,,,,,,,,,,,,,,,,,,,,,,,,,,,,,,,,,,,,125.0,200.0,127.0,127.0,200.0,125.0,3.0,3.1,-260,280,0,-18,222,-267,92.39808773994446,92.39816331863403,92.40097236633301,92.41668224334717,92.55744647979736,92.55744647979736,92.55744647979736,92.55744647979736,92.55744647979736,92.55744647979736,92.55744647979736,97.55848336219788,1,5.133211135864258,None,,,,,,,,,,,,,,,,,,80,4,2025-02-21_13h30.02.136,comp,2024.2.4,55.80032541178693,2025-02-21 13h31.45.100656 -0500,
2,2,0,filler_random,None,None,None,None,None,None,None,None,None,None,3,4.062619686126709,None,,,,,0,0,0,0,0,2,2,163,97.5752329826355,,,,,,,,,,,,,,,,,,,,,,,,,,,,,,,,,,,,,,,,,,,,,,,,,,,,,,,,,,,,,,,,,,,,,,,,,,,,,,,,,197.84769705027836,103.84796680490243,108.71777915929843,163.20452392849214,167.78260232521694,194.3069321668007,3.0,3.2,-230,-273,0,13,275,262,97.56031489372253,97.56041026115417,97.56355214118958,97.5752329826355,97.72499775886536,97.72499775886536,97.72499775886536,97.72499775886536,97.72499775886536,97.72499775886536,97.72499775886536,101.64236116409302,3,4.062619686126709,None,,,,,,,,,,,,,,,,,,80,4,2025-02-21_13h30.02.136,comp,2024.2.4,55.80032541178693,2025-02-21 13h31.45.100656 -0500,
3,3,0,critical,wdh,35.0,1.0,lower,57.0,133.0,70.0,70.0,133.0,57.0,1,3.999018907546997,None,,,,,0,0,0,0,0,3,3,72,101.66241717338562,,,,,,,,,,,,,,,,,,,,,,,,,,,,,,,,,,,,,,,,,,,,,,,,,,,,,,,,,,,,,,,,,,,,,,,,,,,,,,,,,57.0,133.0,70.0,70.0,133.0,57.0,1.0,1.1,-678,279,-480,288,-320,276,101.64398193359375,101.64405918121338,101.64731645584106,101.66241717338562,101.81467866897583,101.81467866897583,101.81467866897583,101.81467866897583,101.81467866897583,101.81467866897583,101.81467866897583,105.66333222389221,1,3.999018907546997,None,,,,,,,,,,,,,,,,,,80,4,2025-02-21_13h30.02.136,comp,2024.2.4,55.80032541178693,2025-02-21 13h31.45.100656 -0500,
4,4,0,critical,hwd,35.0,2.1,lower,133.0,57.0,57.0,133.0,70.0,70.0,1,5.0213847160339355,None,,,,,0,0,0,0,0,4,4,40,105.67966914176941,,,,,,,,,,,,,,,,,,,,,,,,,,,,,,,,,,,,,,,,,,,,,,,,,,,,,,,,,,,,,,,,,,,,,,,,,,,,,,,,,133.0,57.0,57.0,133.0,70.0,70.0,2.1,2.12,-191,-274,0,-272,198,258,105.66533589363098,105.66546416282654,105.66892838478088,105.67966914176941,105.83146262168884,105.83146262168884,105.83146262168884,105.83146262168884,105.83146262168884,105.83146262168884,105.83146262168884,110.70325326919556,1,5.0213847160339355,None,,,,,,,,,,,,,,,,,,80,4,2025-02-21_13h30.02.136,comp,2024.2.4,55.80032541178693,2025-02-21 13h31.45.100656 -0500,
5,5,0,critical,whd,20.0,1.0,upper,125.0,200.0,200.0,125.0,141.0,141.0,1,2.5510456562042236,None,,,,,0,0,0,0,0,5,5,91,110.72009229660034,,,,,,,,,,,,,,,,,,,,,,,,,,,,,,,,,,,,,,,,,,,,,,,,,,,,,,,,,,,,,,,,,,,,,,,,,,,,,,,,,125.0,200.0,200.0,125.0,141.0,141.0,1.0,1.2,-258,3,0,3,229,-10,110.70429396629333,110.70437288284302,110.70725655555725,110.72009229660034,110.86197280883789,110.86197280883789,110.86197280883789,110.86197280883789,110.86197280883789,110.86197280883789,110.86197280883789,113.27707505226135,1,2.5510456562042236,None,,,,,,,,,,,,,,,,,,80,4,2025-02-21_13h30.02.136,comp,2024.2.4,55.80032541178693,2025-02-21 13h31.45.100656 -0500,
6,6,0,critical,hwd,20.0,4.0,lower,133.0,57.0,57.0,133.0,78.0,78.0,1,3.302694320678711,None,,,,,0,0,0,0,0,6,6,106,113.29452586174011,,,,,,,,,,,,,,,,,,,,,,,,,,,,,,,,,,,,,,,,,,,,,,,,,,,,,,,,,,,,,,,,,,,,,,,,,,,,,,,,,133.0,57.0,57.0,133.0,78.0,78.0,4.0,4.2,-191,-3,0,-288,202,-13,113.27796745300293,113.2780454158783,113.2808940410614,113.29452586174011,113.43139600753784,113.43139600753784,113.43139600753784,113.43139600753784,113.43139600753784,113.43139600753784,113.43139600753784,116.61710357666016,1,3.302694320678711,None,,,,,,,,,,,,,,,,,,80,4,2025-02-21_13h30.02.136,comp,2024.2.4,55.80032541178693,2025-02-21 13h31.45.100656 -0500,
7,7,0,critical,whd,20.0,4.0,lower,57.0,133.0,133.0,57.0,78.0,78.0,1,3.4894871711730957,None,,,,,0,0,0,0,0,7,7,94,116.63774490356445,,,,,,,,,,,,,,,,,,,,,,,,,,,,,,,,,,,,,,,,,,,,,,,,,,,,,,,,,,,,,,,,,,,,,,,,,,,,,,,,,57.0,133.0,133.0,57.0,78.0,78.0,4.0,4.1,-191,-274,0,-12,164,-256,116.61898899078369,116.61911678314209,116.62243676185608,116.63774490356445,116.78141593933105,116.78141593933105,116.78141593933105,116.78141593933105,116.78141593933105,116.78141593933105,116.78141593933105,120.1407241821289,1,3.4894871711730957,None,,,,,,,,,,,,,,,,,,80,4,2025-02-21_13h30.02.136,comp,2024.2.4,55.80032541178693,2025-02-21 13h31.45.100656 -0500,
8,8,0,critical,hdw,20.0,2.1,lower,133.0,57.0,78.0,78.0,57.0,133.0,3,1.8801672458648682,None,,,,,0,0,0,0,0,8,8,46,120.15709209442139,,,,,,,,,,,,,,,,,,,,,,,,,,,,,,,,,,,,,,,,,,,,,,,,,,,,,,,,,,,,,,,,,,,,,,,,,,,,,,,,,133.0,57.0,78.0,78.0,57.0,133.0,2.1,2.11,-164,272,0,251,202,-269,120.14239382743835,120.14252495765686,120.14580059051514,120.15709209442139,120.30170106887817,120.30170106887817,120.30170106887817,120.30170106887817,120.30170106887817,120.30170106887817,120.30170106887817,122.05399870872498,3,1.8801672458648682,None,,,,,,,,,,,,,,,,,,80,4,2025-02-21_13h30.02.136,comp,2024.2.4,55.80032541178693,2025-02-21 13h31.45.100656 -0500,
9,9,0,critical,wdh,35.0,2.1,upper,125.0,200.0,127.0,127.0,200.0,125.0,1,2.9286255836486816,None,,,,,0,0,0,0,0,9,9,9,122.06902623176575,,,,,,,,,,,,,,,,,,,,,,,,,,,,,,,,,,,,,,,,,,,,,,,,,,,,,,,,,,,,,,,,,,,,,,,,,,,,,,,,,125.0,200.0,127.0,127.0,200.0,125.0,2.1,2.12,-260,-269,0,-267,222,266,122.05558586120605,122.05573105812073,122.05864691734314,122.06902623176575,122.21722555160522,122.21722555160522,122.21722555160522,122.21722555160522,122.21722555160522,122.21722555160522,122.21722555160522,125.00434732437134,1,2.9286255836486816,None,,,,,,,,,,,,,,,,,,80,4,2025-02-21_13h30.02.136,comp,2024.2.4,55.80032541178693,2025-02-21 13h31.45.100656 -0500,
10,10,0,filler_square,None,None,None,None,None,None,None,None,None,None,2,4.1505584716796875,None,,,,,0,0,0,0,0,10,10,179,125.02340722084045,,,,,,,,,,,,,,,,,,,,,,,,,,,,,,,,,,,,,,,,,,,,,,,,,,,,,,,,,,,,,,,,,,,,,,,,,,,,,,,,,146.20528753029868,153.73745953999082,156.9857612156377,156.9857612156377,60.49587293297182,120.63645191556589,4.0,4.1,-251,-287,0,4,235,-280,125.00640201568604,125.00648283958435,125.00986170768738,125.02340722084045,125.16774988174438,125.16774988174438,125.16774988174438,125.16774988174438,125.16774988174438,125.16774988174438,125.16774988174438,129.19448041915894,2,4.1505584716796875,None,,,,,,,,,,,,,,,,,,80,4,2025-02-21_13h30.02.136,comp,2024.2.4,55.80032541178693,2025-02-21 13h31.45.100656 -0500,
11,11,0,filler_random,None,None,None,None,None,None,None,None,None,None,2,2.359027147293091,None,,,,,0,0,0,0,0,11,11,151,129.21434783935547,,,,,,,,,,,,,,,,,,,,,,,,,,,,,,,,,,,,,,,,,,,,,,,,,,,,,,,,,,,,,,,,,,,,,,,,,,,,,,,,,127.50670853372178,81.28867595741434,159.34615874376343,82.5024224533073,74.89541014693748,180.51002446411732,2.1,2.12,-178,-269,0,-271,228,252,129.19617652893066,129.19625115394592,129.1990830898285,129.21434783935547,129.35370635986328,129.35370635986328,129.35370635986328,129.35370635986328,129.35370635986328,129.35370635986328,129.35370635986328,131.58677339553833,2,2.359027147293091,None,,,,,,,,,,,,,,,,,,80,4,2025-02-21_13h30.02.136,comp,2024.2.4,55.80032541178693,2025-02-21 13h31.45.100656 -0500,
12,12,0,critical,dwh,20.0,2.1,lower,78.0,78.0,57.0,133.0,133.0,57.0,3,2.5147132873535156,None,,,,,0,0,0,0,0,12,12,6,131.6031813621521,,,,,,,,,,,,,,,,,,,,,,,,,,,,,,,,,,,,,,,,,,,,,,,,,,,,,,,,,,,,,,,,,,,,,,,,,,,,,,,,,78.0,78.0,57.0,133.0,133.0,57.0,2.1,2.11,-202,268,0,283,191,-280,131.58833765983582,131.58841466903687,131.59242987632751,131.6031813621521,131.75499272346497,131.75499272346497,131.75499272346497,131.75499272346497,131.75499272346497,131.75499272346497,131.75499272346497,134.1259162425995,3,2.5147132873535156,None,,,,,,,,,,,,,,,,,,80,4,2025-02-21_13h30.02.136,comp,2024.2.4,55.80032541178693,2025-02-21 13h31.45.100656 -0500,
13,13,0,critical,hwd,35.0,1.0,upper,200.0,125.0,125.0,200.0,127.0,127.0,2,2.5570120811462402,None,,,,,0,0,0,0,0,13,13,97,134.14454293251038,,,,,,,,,,,,,,,,,,,,,,,,,,,,,,,,,,,,,,,,,,,,,,,,,,,,,,,,,,,,,,,,,,,,,,,,,,,,,,,,,200.0,125.0,125.0,200.0,127.0,127.0,1.0,1.1,-738,256,-480,268,-220,273,134.12757539749146,134.1277301311493,134.13106489181519,134.14454293251038,134.28954529762268,134.28954529762268,134.28954529762268,134.28954529762268,134.28954529762268,134.28954529762268,134.28954529762268,136.7205593585968,2,2.5570120811462402,None,,,,,,,,,,,,,,,,,,80,4,2025-02-21_13h30.02.136,comp,2024.2.4,55.80032541178693,2025-02-21 13h31.45.100656 -0500,
14,14,0,critical,hwd,20.0,1.0,lower,133.0,57.0,57.0,133.0,78.0,78.0,1,4.1168906688690186,None,,,,,0,0,0,0,0,14,14,102,136.7365279197693,,,,,,,,,,,,,,,,,,,,,,,,,,,,,,,,,,,,,,,,,,,,,,,,,,,,,,,,,,,,,,,,,,,,,,,,,,,,,,,,,133.0,57.0,57.0,133.0,78.0,78.0,1.0,1.3,289,-265,480,-272,682,-257,136.72215485572815,136.72223377227783,136.72527956962585,136.7365279197693,136.88689851760864,136.88689851760864,136.88689851760864,136.88689851760864,136.88689851760864,136.88689851760864,136.88689851760864,140.8588511943817,1,4.1168906688690186,None,,,,,,,,,,,,,,,,,,80,4,2025-02-21_13h30.02.136,comp,2024.2.4,55.80032541178693,2025-02-21 13h31.45.100656 -0500,
15,15,0,critical,wdh,35.0,2.1,lower,57.0,133.0,70.0,70.0,133.0,57.0,3,2.489908456802368,None,,,,,0,0,0,0,0,15,15,32,140.8766484260559,,,,,,,,,,,,,,,,,,,,,,,,,,,,,,,,,,,,,,,,,,,,,,,,,,,,,,,,,,,,,,,,,,,,,,,,,,,,,,,,,57.0,133.0,70.0,70.0,133.0,57.0,2.1,2.12,-198,-267,0,-254,160,267,140.86057710647583,140.86069583892822,140.8635745048523,140.8766484260559,141.02370977401733,141.02370977401733,141.02370977401733,141.02370977401733,141.02370977401733,141.02370977401733,141.02370977401733,143.37081933021545,3,2.489908456802368,None,,,,,,,,,,,,,,,,,,80,4,2025-02-21_13h30.02.136,comp,2024.2.4,55.80032541178693,2025-02-21 13h31.45.100656 -0500,
16,16,0,critical,dwh,35.0,2.1,upper,127.0,127.0,125.0,200.0,200.0,125.0,2,1.8428981304168701,None,,,,,0,0,0,0,0,16,16,29,143.38740468025208,,,,,,,,,,,,,,,,,,,,,,,,,,,,,,,,,,,,,,,,,,,,,,,,,,,,,,,,,,,,,,,,,,,,,,,,,,,,,,,,,127.0,127.0,125.0,200.0,200.0,125.0,2.1,2.11,-260,253,0,274,258,-271,143.37231755256653,143.37239360809326,143.3752589225769,143.38740468025208,143.5243203639984,143.5243203639984,143.5243203639984,143.5243203639984,143.5243203639984,143.5243203639984,143.5243203639984,145.2410762310028,2,1.8428981304168701,None,,,,,,,,,,,,,,,,,,80,4,2025-02-21_13h30.02.136,comp,2024.2.4,55.80032541178693,2025-02-21 13h31.45.100656 -0500,
17,17,0,critical,dhw,35.0,1.0,upper,127.0,127.0,200.0,125.0,125.0,200.0,3,1.0773727893829346,None,,,,,0,0,0,0,0,17,17,49,145.25670957565308,,,,,,,,,,,,,,,,,,,,,,,,,,,,,,,,,,,,,,,,,,,,,,,,,,,,,,,,,,,,,,,,,,,,,,,,,,,,,,,,,127.0,127.0,200.0,125.0,125.0,200.0,1.0,1.2,-222,-20,0,-6,258,15,145.24249243736267,145.2425661087036,145.24599838256836,145.25670957565308,145.40658617019653,145.40658617019653,145.40658617019653,145.40658617019653,145.40658617019653,145.40658617019653,145.40658617019653,146.34088134765625,3,1.0773727893829346,None,,,,,,,,,,,,,,,,,,80,4,2025-02-21_13h30.02.136,comp,2024.2.4,55.80032541178693,2025-02-21 13h31.45.100656 -0500,
18,18,0,critical,whd,20.0,3.0,upper,125.0,200.0,200.0,125.0,141.0,141.0,1,1.616382122039795,None,,,,,0,0,0,0,0,18,18,93,146.35685276985168,,,,,,,,,,,,,,,,,,,,,,,,,,,,,,,,,,,,,,,,,,,,,,,,,,,,,,,,,,,,,,,,,,,,,,,,,,,,,,,,,125.0,200.0,200.0,125.0,141.0,141.0,3.0,3.2,-258,-258,0,1,229,289,146.3423457145691,146.34242177009583,146.3455822467804,146.35685276985168,146.50790667533875,146.50790667533875,146.50790667533875,146.50790667533875,146.50790667533875,146.50790667533875,146.50790667533875,147.97691249847412,1,1.616382122039795,None,,,,,,,,,,,,,,,,,,80,4,2025-02-21_13h30.02.136,comp,2024.2.4,55.80032541178693,2025-02-21 13h31.45.100656 -0500,
19,19,0,critical,dwh,35.0,4.0,lower,70.0,70.0,57.0,133.0,133.0,57.0,3,2.0500380992889404,None,,,,,0,0,0,0,0,19,19,64,147.9953155517578,,,,,,,,,,,,,,,,,,,,,,,,,,,,,,,,,,,,,,,,,,,,,,,,,,,,,,,,,,,,,,,,,,,,,,,,,,,,,,,,,70.0,70.0,57.0,133.0,133.0,57.0,4.0,4.1,-198,-287,0,12,191,-281,147.97841882705688,147.9784951210022,147.9814794063568,147.9953155517578,148.14267563819885,148.14267563819885,148.14267563819885,148.14267563819885,148.14267563819885,148.14267563819885,148.14267563819885,150.05615711212158,3,2.0500380992889404,None,,,,,,,,,,,,,,,,,,80,4,2025-02-21_13h30.02.136,comp,2024.2.4,55.80032541178693,2025-02-21 13h31.45.100656 -0500,
20,20,0,filler_square,None,None,None,None,None,None,None,None,None,None,1,2.1495914459228516,None,,,,,0,0,0,0,0,20,20,203,150.07207250595093,,,,,,,,,,,,,,,,,,,,,,,,,,,,,,,,,,,,,,,,,,,,,,,,,,,,,,,,,,,,,,,,,,,,,,,,,,,,,,,,,107.01392878201746,107.01392878201746,100.70918315202829,84.95745780770802,95.531806493473,88.01969832890423,2.1,2.12,-192,-259,0,-258,182,278,150.05786299705505,150.05793857574463,150.06073689460754,150.07207250595093,150.22623944282532,150.22623944282532,150.22623944282532,150.22623944282532,150.22623944282532,150.22623944282532,150.22623944282532,152.22638249397278,1,2.1495914459228516,None,,,,,,,,,,,,,,,,,,80,4,2025-02-21_13h30.02.136,comp,2024.2.4,55.80032541178693,2025-02-21 13h31.45.100656 -0500,
21,21,0,filler_random,None,None,None,None,None,None,None,None,None,None,2,1.6931736469268799,None,,,,,0,0,0,0,0,21,21,158,152.24078822135925,,,,,,,,,,,,,,,,,,,,,,,,,,,,,,,,,,,,,,,,,,,,,,,,,,,,,,,,,,,,,,,,,,,,,,,,,,,,,,,,,93.45811280617393,175.33651298391646,153.1557302234645,135.5110475603998,101.35419314577418,173.39031916286055,2.1,2.12,-251,-264,0,-268,250,284,152.22815823554993,152.22823452949524,152.2313516139984,152.24078822135925,152.393372297287,152.393372297287,152.393372297287,152.393372297287,152.393372297287,152.393372297287,152.393372297287,153.94387865066528,2,1.6931736469268799,None,,,,,,,,,,,,,,,,,,80,4,2025-02-21_13h30.02.136,comp,2024.2.4,55.80032541178693,2025-02-21 13h31.45.100656 -0500,
22,22,0,critical,whd,20.0,2.1,upper,125.0,200.0,200.0,125.0,141.0,141.0,1,2.567455530166626,None,,,,,0,0,0,0,0,22,22,39,153.95842504501343,,,,,,,,,,,,,,,,,,,,,,,,,,,,,,,,,,,,,,,,,,,,,,,,,,,,,,,,,,,,,,,,,,,,,,,,,,,,,,,,,125.0,200.0,200.0,125.0,141.0,141.0,2.1,2.11,-258,269,0,275,229,-252,153.94543385505676,153.94550800323486,153.94898533821106,153.95842504501343,154.10842323303223,154.10842323303223,154.10842323303223,154.10842323303223,154.10842323303223,154.10842323303223,154.10842323303223,156.53386902809143,1,2.567455530166626,None,,,,,,,,,,,,,,,,,,80,4,2025-02-21_13h30.02.136,comp,2024.2.4,55.80032541178693,2025-02-21 13h31.45.100656 -0500,
23,23,0,critical,whd,20.0,2.1,upper,125.0,200.0,200.0,125.0,141.0,141.0,1,5.0788962841033936,None,,,,,0,0,0,0,0,23,23,15,156.55046319961548,,,,,,,,,,,,,,,,,,,,,,,,,,,,,,,,,,,,,,,,,,,,,,,,,,,,,,,,,,,,,,,,,,,,,,,,,,,,,,,,,125.0,200.0,200.0,125.0,141.0,141.0,2.1,2.12,-258,-270,0,-268,229,269,156.53544998168945,156.53552675247192,156.53884935379028,156.55046319961548,156.6948881149292,156.6948881149292,156.6948881149292,156.6948881149292,156.6948881149292,156.6948881149292,156.6948881149292,161.64773511886597,1,5.0788962841033936,None,,,,,,,,,,,,,,,,,,80,4,2025-02-21_13h30.02.136,comp,2024.2.4,55.80032541178693,2025-02-21 13h31.45.100656 -0500,
24,24,0,critical,hdw,20.0,1.0,lower,133.0,57.0,78.0,78.0,57.0,133.0,3,2.004998207092285,None,,,,,0,0,0,0,0,24,24,114,161.66472625732422,,,,,,,,,,,,,,,,,,,,,,,,,,,,,,,,,,,,,,,,,,,,,,,,,,,,,,,,,,,,,,,,,,,,,,,,,,,,,,,,,133.0,57.0,78.0,78.0,57.0,133.0,1.0,1.3,316,-268,480,-255,682,-267,161.64933586120605,161.64941024780273,161.65229678153992,161.66472625732422,161.81168723106384,161.81168723106384,161.81168723106384,161.81168723106384,161.81168723106384,161.81168723106384,161.81168723106384,163.68452501296997,3,2.004998207092285,None,,,,,,,,,,,,,,,,,,80,4,2025-02-21_13h30.02.136,comp,2024.2.4,55.80032541178693,2025-02-21 13h31.45.100656 -0500,
25,25,0,critical,dwh,20.0,4.0,upper,141.0,141.0,125.0,200.0,200.0,125.0,2,1.4775900840759277,None,,,,,0,0,0,0,0,25,25,71,163.70391416549683,,,,,,,,,,,,,,,,,,,,,,,,,,,,,,,,,,,,,,,,,,,,,,,,,,,,,,,,,,,,,,,,,,,,,,,,,,,,,,,,,141.0,141.0,125.0,200.0,200.0,125.0,4.0,4.1,-266,-289,0,-14,258,-260,163.68618440628052,163.6862597465515,163.68964505195618,163.70391416549683,163.84954929351807,163.84954929351807,163.84954929351807,163.84954929351807,163.84954929351807,163.84954929351807,163.84954929351807,165.19790863990784,2,1.4775900840759277,None,,,,,,,,,,,,,,,,,,80,4,2025-02-21_13h30.02.136,comp,2024.2.4,55.80032541178693,2025-02-21 13h31.45.100656 -0500,
26,26,0,critical,hdw,20.0,2.1,upper,200.0,125.0,141.0,141.0,125.0,200.0,3,1.5438511371612549,None,,,,,0,0,0,0,0,26,26,47,165.2137849330902,,,,,,,,,,,,,,,,,,,,,,,,,,,,,,,,,,,,,,,,,,,,,,,,,,,,,,,,,,,,,,,,,,,,,,,,,,,,,,,,,200.0,125.0,141.0,141.0,125.0,200.0,2.1,2.11,-229,272,0,268,266,-283,165.19945168495178,165.1995255947113,165.20355081558228,165.2137849330902,165.3628125190735,165.3628125190735,165.3628125190735,165.3628125190735,165.3628125190735,165.3628125190735,165.3628125190735,166.77569317817688,3,1.5438511371612549,None,,,,,,,,,,,,,,,,,,80,4,2025-02-21_13h30.02.136,comp,2024.2.4,55.80032541178693,2025-02-21 13h31.45.100656 -0500,
27,27,0,critical,dwh,20.0,2.1,upper,141.0,141.0,125.0,200.0,200.0,125.0,2,3.1421761512756348,None,,,,,0,0,0,0,0,27,27,31,166.7910487651825,,,,,,,,,,,,,,,,,,,,,,,,,,,,,,,,,,,,,,,,,,,,,,,,,,,,,,,,,,,,,,,,,,,,,,,,,,,,,,,,,141.0,141.0,125.0,200.0,200.0,125.0,2.1,2.11,-266,264,0,288,258,-266,166.7772343158722,166.77730679512024,166.7805290222168,166.7910487651825,166.9321048259735,166.9321048259735,166.9321048259735,166.9321048259735,166.9321048259735,166.9321048259735,166.9321048259735,169.94834780693054,2,3.1421761512756348,None,,,,,,,,,,,,,,,,,,80,4,2025-02-21_13h30.02.136,comp,2024.2.4,55.80032541178693,2025-02-21 13h31.45.100656 -0500,
28,28,0,filler_square,None,None,None,None,None,None,None,None,None,None,2,2.048203945159912,None,,,,,0,0,0,0,0,28,28,197,169.96505737304688,,,,,,,,,,,,,,,,,,,,,,,,,,,,,,,,,,,,,,,,,,,,,,,,,,,,,,,,,,,,,,,,,,,,,,,,,,,,,,,,,70.4187647603383,60.372299216849996,74.77623321534486,74.77623321534486,64.16788235974025,63.79275633770877,3.0,3.2,-164,-280,0,18,165,290,169.9503800868988,169.95045804977417,169.9538197517395,169.96505737304688,170.11458230018616,170.11458230018616,170.11458230018616,170.11458230018616,170.11458230018616,170.11458230018616,170.11458230018616,172.01642656326294,2,2.048203945159912,None,,,,,,,,,,,,,,,,,,80,4,2025-02-21_13h30.02.136,comp,2024.2.4,55.80032541178693,2025-02-21 13h31.45.100656 -0500,
29,29,0,critical,hdw,35.0,3.0,lower,133.0,57.0,70.0,70.0,57.0,133.0,3,1.5427889823913574,None,,,,,0,0,0,0,0,29,29,110,172.03202486038208,,,,,,,,,,,,,,,,,,,,,,,,,,,,,,,,,,,,,,,,,,,,,,,,,,,,,,,,,,,,,,,,,,,,,,,,,,,,,,,,,133.0,57.0,70.0,70.0,57.0,133.0,3.0,3.1,-160,262,0,16,198,-277,172.0179078578949,172.01798295974731,172.02136707305908,172.03202486038208,172.19219422340393,172.19219422340393,172.19219422340393,172.19219422340393,172.19219422340393,172.19219422340393,172.19219422340393,173.581374168396,3,1.5427889823913574,None,,,,,,,,,,,,,,,,,,80,4,2025-02-21_13h30.02.136,comp,2024.2.4,55.80032541178693,2025-02-21 13h31.45.100656 -0500,
30,30,0,critical,hdw,35.0,2.1,upper,200.0,125.0,127.0,127.0,125.0,200.0,3,3.0327672958374023,None,,,,,0,0,0,0,0,30,30,45,173.59725666046143,,,,,,,,,,,,,,,,,,,,,,,,,,,,,,,,,,,,,,,,,,,,,,,,,,,,,,,,,,,,,,,,,,,,,,,,,,,,,,,,,200.0,125.0,127.0,127.0,125.0,200.0,2.1,2.12,-222,-254,0,-253,260,268,173.58308243751526,173.58315992355347,173.5864589214325,173.59725666046143,173.7386507987976,173.7386507987976,173.7386507987976,173.7386507987976,173.7386507987976,173.7386507987976,173.7386507987976,176.63749504089355,3,3.0327672958374023,None,,,,,,,,,,,,,,,,,,80,4,2025-02-21_13h30.02.136,comp,2024.2.4,55.80032541178693,2025-02-21 13h31.45.100656 -0500,
31,31,0,critical,dhw,20.0,2.1,lower,78.0,78.0,133.0,57.0,57.0,133.0,3,2.9847476482391357,None,,,,,0,0,0,0,0,31,31,2,176.6526758670807,,,,,,,,,,,,,,,,,,,,,,,,,,,,,,,,,,,,,,,,,,,,,,,,,,,,,,,,,,,,,,,,,,,,,,,,,,,,,,,,,78.0,78.0,133.0,57.0,57.0,133.0,2.1,2.12,-164,-265,0,-271,191,262,176.63912320137024,176.63920211791992,176.6420509815216,176.6526758670807,176.80036616325378,176.80036616325378,176.80036616325378,176.80036616325378,176.80036616325378,176.80036616325378,176.80036616325378,179.65136456489563,3,2.9847476482391357,None,,,,,,,,,,,,,,,,,,80,4,2025-02-21_13h30.02.136,comp,2024.2.4,55.80032541178693,2025-02-21 13h31.45.100656 -0500,
32,32,0,filler_random,None,None,None,None,None,None,None,None,None,None,3,3.41288685798645,None,,,,,0,0,0,0,0,32,32,133,179.66687750816345,,,,,,,,,,,,,,,,,,,,,,,,,,,,,,,,,,,,,,,,,,,,,,,,,,,,,,,,,,,,,,,,,,,,,,,,,,,,,,,,,83.07224887367695,61.44039137138386,77.53209388844337,190.953912182247,57.070259232533175,176.50391577201998,3.0,3.1,-222,289,0,7,280,-271,179.6531536579132,179.6532347202301,179.6566083431244,179.66687750816345,179.82396936416626,179.82396936416626,179.82396936416626,179.82396936416626,179.82396936416626,179.82396936416626,179.82396936416626,183.08503007888794,3,3.41288685798645,None,,,,,,,,,,,,,,,,,,80,4,2025-02-21_13h30.02.136,comp,2024.2.4,55.80032541178693,2025-02-21 13h31.45.100656 -0500,
33,33,0,critical,hdw,20.0,4.0,upper,200.0,125.0,141.0,141.0,125.0,200.0,3,1.4713547229766846,None,,,,,0,0,0,0,0,33,33,119,183.1019561290741,,,,,,,,,,,,,,,,,,,,,,,,,,,,,,,,,,,,,,,,,,,,,,,,,,,,,,,,,,,,,,,,,,,,,,,,,,,,,,,,,200.0,125.0,141.0,141.0,125.0,200.0,4.0,4.1,-229,-281,0,1,266,-263,183.08675169944763,183.08682942390442,183.0902383327484,183.1019561290741,183.25275468826294,183.25275468826294,183.25275468826294,183.25275468826294,183.25275468826294,183.25275468826294,183.25275468826294,184.58606266975403,3,1.4713547229766846,None,,,,,,,,,,,,,,,,,,80,4,2025-02-21_13h30.02.136,comp,2024.2.4,55.80032541178693,2025-02-21 13h31.45.100656 -0500,
34,34,0,critical,whd,35.0,1.0,upper,125.0,200.0,200.0,125.0,127.0,127.0,1,1.860532283782959,None,,,,,0,0,0,0,0,34,34,85,184.60081148147583,,,,,,,,,,,,,,,,,,,,,,,,,,,,,,,,,,,,,,,,,,,,,,,,,,,,,,,,,,,,,,,,,,,,,,,,,,,,,,,,,125.0,200.0,200.0,125.0,127.0,127.0,1.0,1.2,-258,-18,0,2,222,-14,184.58751916885376,184.5876109600067,184.5905327796936,184.60081148147583,184.75453972816467,184.75453972816467,184.75453972816467,184.75453972816467,184.75453972816467,184.75453972816467,184.75453972816467,186.47109031677246,1,1.860532283782959,None,,,,,,,,,,,,,,,,,,80,4,2025-02-21_13h30.02.136,comp,2024.2.4,55.80032541178693,2025-02-21 13h31.45.100656 -0500,
35,35,0,filler_square,None,None,None,None,None,None,None,None,None,None,1,2.02238130569458,None,,,,,0,0,0,0,0,35,35,180,186.48686718940735,,,,,,,,,,,,,,,,,,,,,,,,,,,,,,,,,,,,,,,,,,,,,,,,,,,,,,,,,,,,,,,,,,,,,,,,,,,,,,,,,126.16192837763641,126.16192837763641,95.99465357517053,116.05803672511755,96.46192853235758,113.77393901225352,3.0,3.2,-217,-259,0,11,211,266,186.47280073165894,186.47287726402283,186.47606992721558,186.48686718940735,186.63733839988708,186.63733839988708,186.63733839988708,186.63733839988708,186.63733839988708,186.63733839988708,186.63733839988708,188.52118587493896,1,2.02238130569458,None,,,,,,,,,,,,,,,,,,80,4,2025-02-21_13h30.02.136,comp,2024.2.4,55.80032541178693,2025-02-21 13h31.45.100656 -0500,
36,36,0,filler_square,None,None,None,None,None,None,None,None,None,None,3,0.9895720481872559,None,,,,,0,0,0,0,0,36,36,196,188.536776304245,,,,,,,,,,,,,,,,,,,,,,,,,,,,,,,,,,,,,,,,,,,,,,,,,,,,,,,,,,,,,,,,,,,,,,,,,,,,,,,,,73.69440502433703,100.92956208916996,79.84859356736592,97.7884746127254,130.3935922057288,130.3935922057288,2.2,2.21,-195,-253,0,255,210,253,188.5230507850647,188.52312898635864,188.52648901939392,188.536776304245,188.68830037117004,188.68830037117004,188.68830037117004,188.68830037117004,188.68830037117004,188.68830037117004,188.68830037117004,189.53788304328918,3,0.9895720481872559,None,,,,,,,,,,,,,,,,,,80,4,2025-02-21_13h30.02.136,comp,2024.2.4,55.80032541178693,2025-02-21 13h31.45.100656 -0500,
37,37,0,critical,dhw,20.0,4.0,upper,141.0,141.0,200.0,125.0,125.0,200.0,3,1.3316724300384521,None,,,,,0,0,0,0,0,37,37,59,189.55397653579712,,,,,,,,,,,,,,,,,,,,,,,,,,,,,,,,,,,,,,,,,,,,,,,,,,,,,,,,,,,,,,,,,,,,,,,,,,,,,,,,,141.0,141.0,200.0,125.0,125.0,200.0,4.0,4.1,-229,-256,0,20,258,-265,189.53941702842712,189.53949356079102,189.54289841651917,189.55397653579712,189.7037889957428,189.7037889957428,189.7037889957428,189.7037889957428,189.7037889957428,189.7037889957428,189.7037889957428,190.8877146244049,3,1.3316724300384521,None,,,,,,,,,,,,,,,,,,80,4,2025-02-21_13h30.02.136,comp,2024.2.4,55.80032541178693,2025-02-21 13h31.45.100656 -0500,
38,38,0,critical,whd,35.0,1.0,lower,57.0,133.0,133.0,57.0,70.0,70.0,1,1.5824668407440186,None,,,,,0,0,0,0,0,38,38,84,190.90365743637085,,,,,,,,,,,,,,,,,,,,,,,,,,,,,,,,,,,,,,,,,,,,,,,,,,,,,,,,,,,,,,,,,,,,,,,,,,,,,,,,,57.0,133.0,133.0,57.0,70.0,70.0,1.0,1.3,289,-260,480,-251,640,-282,190.8892102241516,190.88928771018982,190.89236569404602,190.90365743637085,191.05969667434692,191.05969667434692,191.05969667434692,191.05969667434692,191.05969667434692,191.05969667434692,191.05969667434692,192.49221444129944,1,1.5824668407440186,None,,,,,,,,,,,,,,,,,,80,4,2025-02-21_13h30.02.136,comp,2024.2.4,55.80032541178693,2025-02-21 13h31.45.100656 -0500,
39,39,0,critical,dwh,35.0,1.0,lower,70.0,70.0,57.0,133.0,133.0,57.0,3,1.3605124950408936,None,,,,,0,0,0,0,0,39,39,60,192.5091519355774,,,,,,,,,,,,,,,,,,,,,,,,,,,,,,,,,,,,,,,,,,,,,,,,,,,,,,,,,,,,,,,,,,,,,,,,,,,,,,,,,70.0,70.0,57.0,133.0,133.0,57.0,1.0,1.2,-198,-11,0,8,191,5,192.49387121200562,192.49400401115417,192.49802350997925,192.5091519355774,192.6567838191986,192.6567838191986,192.6567838191986,192.6567838191986,192.6567838191986,192.6567838191986,192.6567838191986,193.87189197540283,3,1.3605124950408936,None,,,,,,,,,,,,,,,,,,80,4,2025-02-21_13h30.02.136,comp,2024.2.4,55.80032541178693,2025-02-21 13h31.45.100656 -0500,
40,40,0,filler_random,None,None,None,None,None,None,None,None,None,None,3,1.9969673156738281,None,,,,,0,0,0,0,0,40,40,137,193.88850474357605,,,,,,,,,,,,,,,,,,,,,,,,,,,,,,,,,,,,,,,,,,,,,,,,,,,,,,,,,,,,,,,,,,,,,,,,,,,,,,,,,73.15171672031832,149.59806157065773,116.03073823566633,93.32997648617186,91.38494844201662,189.00793129990254,2.2,2.22,-217,260,0,-255,237,-265,193.87369108200073,193.87381839752197,193.87727975845337,193.88850474357605,194.03782677650452,194.03782677650452,194.03782677650452,194.03782677650452,194.03782677650452,194.03782677650452,194.03782677650452,195.89002561569214,3,1.9969673156738281,None,,,,,,,,,,,,,,,,,,80,4,2025-02-21_13h30.02.136,comp,2024.2.4,55.80032541178693,2025-02-21 13h31.45.100656 -0500,
41,41,0,critical,dhw,35.0,3.0,lower,70.0,70.0,133.0,57.0,57.0,133.0,2,2.692875385284424,None,,,,,0,0,0,0,0,41,41,50,195.90570449829102,,,,,,,,,,,,,,,,,,,,,,,,,,,,,,,,,,,,,,,,,,,,,,,,,,,,,,,,,,,,,,,,,,,,,,,,,,,,,,,,,70.0,70.0,133.0,57.0,57.0,133.0,3.0,3.2,-160,-281,0,-3,191,277,195.89151883125305,195.8916187286377,195.8950560092926,195.90570449829102,196.0582447052002,196.0582447052002,196.0582447052002,196.0582447052002,196.0582447052002,196.0582447052002,196.0582447052002,198.606586933136,2,2.692875385284424,None,,,,,,,,,,,,,,,,,,80,4,2025-02-21_13h30.02.136,comp,2024.2.4,55.80032541178693,2025-02-21 13h31.45.100656 -0500,
42,42,0,catch,None,None,None,None,None,None,None,None,None,None,1,2.2200112342834473,None,,,,,0,0,0,0,0,42,42,120,198.6253571510315,,,,,,,,,,,,,,,,,,,,,,,,,,,,,,,,,,,,,,,,,,,,,,,,,,,,,,,,,,,,,,,,,,,,,,,,,,,,,,,,,138,187,81,109,118,72,2.2,2.22,-244,280,0,-254,186,-253,198.608811378479,198.608891248703,198.61221027374268,198.6253571510315,198.7742416858673,198.7742416858673,198.7742416858673,198.7742416858673,198.7742416858673,198.7742416858673,198.7742416858673,200.86599040031433,1,2.2200112342834473,None,,,,,,,,,,,,,,,,,,80,4,2025-02-21_13h30.02.136,comp,2024.2.4,55.80032541178693,2025-02-21 13h31.45.100656 -0500,
43,43,0,filler_random,None,None,None,None,None,None,None,None,None,None,1,1.0902330875396729,None,,,,,0,0,0,0,0,43,43,132,200.8836407661438,,,,,,,,,,,,,,,,,,,,,,,,,,,,,,,,,,,,,,,,,,,,,,,,,,,,,,,,,,,,,,,,,,,,,,,,,,,,,,,,,153.5186326142567,187.1844795175958,68.67033317236883,172.9250403840598,106.90066644963298,136.63184174691173,2.1,2.11,-276,269,0,261,251,-263,200.86799955368042,200.86807560920715,200.87094926834106,200.8836407661438,201.02566480636597,201.02566480636597,201.02566480636597,201.02566480636597,201.02566480636597,201.02566480636597,201.02566480636597,201.99190092086792,1,1.0902330875396729,None,,,,,,,,,,,,,,,,,,80,4,2025-02-21_13h30.02.136,comp,2024.2.4,55.80032541178693,2025-02-21 13h31.45.100656 -0500,
44,44,0,critical,dhw,20.0,3.0,lower,78.0,78.0,133.0,57.0,57.0,133.0,3,2.486164093017578,None,,,,,0,0,0,0,0,44,44,56,202.0071439743042,,,,,,,,,,,,,,,,,,,,,,,,,,,,,,,,,,,,,,,,,,,,,,,,,,,,,,,,,,,,,,,,,,,,,,,,,,,,,,,,,78.0,78.0,133.0,57.0,57.0,133.0,3.0,3.2,-164,-250,0,-4,191,287,201.993412733078,201.99348950386047,201.99691009521484,202.0071439743042,202.15912771224976,202.15912771224976,202.15912771224976,202.15912771224976,202.15912771224976,202.15912771224976,202.15912771224976,204.49515557289124,3,2.486164093017578,None,,,,,,,,,,,,,,,,,,80,4,2025-02-21_13h30.02.136,comp,2024.2.4,55.80032541178693,2025-02-21 13h31.45.100656 -0500,
45,45,0,critical,hwd,35.0,4.0,upper,200.0,125.0,125.0,200.0,127.0,127.0,1,1.2861945629119873,None,,,,,0,0,0,0,0,45,45,101,204.5110592842102,,,,,,,,,,,,,,,,,,,,,,,,,,,,,,,,,,,,,,,,,,,,,,,,,,,,,,,,,,,,,,,,,,,,,,,,,,,,,,,,,200.0,125.0,125.0,200.0,127.0,127.0,4.0,4.2,-258,17,0,-274,260,-20,204.49682426452637,204.49690556526184,204.5003101825714,204.5110592842102,204.65567088127136,204.65567088127136,204.65567088127136,204.65567088127136,204.65567088127136,204.65567088127136,204.65567088127136,205.80857610702515,1,1.2861945629119873,None,,,,,,,,,,,,,,,,,,80,4,2025-02-21_13h30.02.136,comp,2024.2.4,55.80032541178693,2025-02-21 13h31.45.100656 -0500,
46,46,0,critical,dwh,20.0,4.0,lower,78.0,78.0,57.0,133.0,133.0,57.0,3,1.2849268913269043,None,,,,,0,0,0,0,0,46,46,70,205.82489848136902,,,,,,,,,,,,,,,,,,,,,,,,,,,,,,,,,,,,,,,,,,,,,,,,,,,,,,,,,,,,,,,,,,,,,,,,,,,,,,,,,78.0,78.0,57.0,133.0,133.0,57.0,4.0,4.2,-202,7,0,-266,191,2,205.81008505821228,205.81016159057617,205.81321740150452,205.82489848136902,205.9794900417328,205.9794900417328,205.9794900417328,205.9794900417328,205.9794900417328,205.9794900417328,205.9794900417328,207.12748861312866,3,1.2849268913269043,None,,,,,,,,,,,,,,,,,,80,4,2025-02-21_13h30.02.136,comp,2024.2.4,55.80032541178693,2025-02-21 13h31.45.100656 -0500,
47,47,0,critical,dhw,35.0,1.0,lower,70.0,70.0,133.0,57.0,57.0,133.0,3,0.8467419147491455,None,,,,,0,0,0,0,0,47,47,48,207.1431441307068,,,,,,,,,,,,,,,,,,,,,,,,,,,,,,,,,,,,,,,,,,,,,,,,,,,,,,,,,,,,,,,,,,,,,,,,,,,,,,,,,70.0,70.0,133.0,57.0,57.0,133.0,1.0,1.2,-160,-19,0,7,191,-6,207.1291036605835,207.12917923927307,207.13281297683716,207.1431441307068,207.29354429244995,207.29354429244995,207.29354429244995,207.29354429244995,207.29354429244995,207.29354429244995,207.29354429244995,207.99515891075134,3,0.8467419147491455,None,,,,,,,,,,,,,,,,,,80,4,2025-02-21_13h30.02.136,comp,2024.2.4,55.80032541178693,2025-02-21 13h31.45.100656 -0500,
48,48,0,critical,hdw,20.0,3.0,upper,200.0,125.0,141.0,141.0,125.0,200.0,3,2.740220546722412,None,,,,,0,0,0,0,0,48,48,117,208.0102777481079,,,,,,,,,,,,,,,,,,,,,,,,,,,,,,,,,,,,,,,,,,,,,,,,,,,,,,,,,,,,,,,,,,,,,,,,,,,,,,,,,200.0,125.0,141.0,141.0,125.0,200.0,3.0,3.2,-229,-276,0,16,266,282,207.99670934677124,207.9968113899231,207.99973511695862,208.0102777481079,208.16015791893005,208.16015791893005,208.16015791893005,208.16015791893005,208.16015791893005,208.16015791893005,208.16015791893005,210.76149535179138,3,2.740220546722412,None,,,,,,,,,,,,,,,,,,80,4,2025-02-21_13h30.02.136,comp,2024.2.4,55.80032541178693,2025-02-21 13h31.45.100656 -0500,
49,49,0,filler_square,None,None,None,None,None,None,None,None,None,None,3,1.060584306716919,None,,,,,0,0,0,0,0,49,49,199,210.77727794647217,,,,,,,,,,,,,,,,,,,,,,,,,,,,,,,,,,,,,,,,,,,,,,,,,,,,,,,,,,,,,,,,,,,,,,,,,,,,,,,,,124.1490039069883,96.67061880642186,123.76837445754752,86.76478924591093,154.18463899975268,154.18463899975268,2.1,2.12,-188,-282,0,-280,216,271,210.76321172714233,210.76328802108765,210.76656913757324,210.77727794647217,210.92556595802307,210.92556595802307,210.92556595802307,210.92556595802307,210.92556595802307,210.92556595802307,210.92556595802307,211.8457338809967,3,1.060584306716919,None,,,,,,,,,,,,,,,,,,80,4,2025-02-21_13h30.02.136,comp,2024.2.4,55.80032541178693,2025-02-21 13h31.45.100656 -0500,
50,50,0,critical,whd,35.0,3.0,upper,125.0,200.0,200.0,125.0,127.0,127.0,1,1.489213228225708,None,,,,,0,0,0,0,0,50,50,87,211.86131262779236,,,,,,,,,,,,,,,,,,,,,,,,,,,,,,,,,,,,,,,,,,,,,,,,,,,,,,,,,,,,,,,,,,,,,,,,,,,,,,,,,125.0,200.0,200.0,125.0,127.0,127.0,3.0,3.1,-258,261,0,-14,222,-284,211.84722566604614,211.84730100631714,211.85078120231628,211.86131262779236,212.0143687725067,212.0143687725067,212.0143687725067,212.0143687725067,212.0143687725067,212.0143687725067,212.0143687725067,213.36463618278503,1,1.489213228225708,None,,,,,,,,,,,,,,,,,,80,4,2025-02-21_13h30.02.136,comp,2024.2.4,55.80032541178693,2025-02-21 13h31.45.100656 -0500,
51,51,0,filler_random,None,None,None,None,None,None,None,None,None,None,1,1.369044303894043,None,,,,,0,0,0,0,0,51,51,168,213.38030457496643,,,,,,,,,,,,,,,,,,,,,,,,,,,,,,,,,,,,,,,,,,,,,,,,,,,,,,,,,,,,,,,,,,,,,,,,,,,,,,,,,198.42120150646141,154.07024702030628,162.48132523007212,155.29153577398822,61.679405964110224,112.1008845614116,2.2,2.21,-251,-276,0,263,230,283,213.36702275276184,213.36710238456726,213.37000727653503,213.38030457496643,213.52888798713684,213.52888798713684,213.52888798713684,213.52888798713684,213.52888798713684,213.52888798713684,213.52888798713684,214.76777243614197,1,1.369044303894043,None,,,,,,,,,,,,,,,,,,80,4,2025-02-21_13h30.02.136,comp,2024.2.4,55.80032541178693,2025-02-21 13h31.45.100656 -0500,
52,52,0,filler_square,None,None,None,None,None,None,None,None,None,None,2,2.8843188285827637,None,,,,,0,0,0,0,0,52,52,183,214.78503942489624,,,,,,,,,,,,,,,,,,,,,,,,,,,,,,,,,,,,,,,,,,,,,,,,,,,,,,,,,,,,,,,,,,,,,,,,,,,,,,,,,61.5948969808279,62.39015173682694,64.8923056919695,64.8923056919695,62.52944334687518,61.25913460293421,1.0,1.3,320,-275,480,-260,639,-276,214.7695014476776,214.7695767879486,214.77239894866943,214.78503942489624,214.92928957939148,214.92928957939148,214.92928957939148,214.92928957939148,214.92928957939148,214.92928957939148,214.92928957939148,217.6824140548706,2,2.8843188285827637,None,,,,,,,,,,,,,,,,,,80,4,2025-02-21_13h30.02.136,comp,2024.2.4,55.80032541178693,2025-02-21 13h31.45.100656 -0500,
53,53,0,filler_square,None,None,None,None,None,None,None,None,None,None,1,2.1148085594177246,None,,,,,0,0,0,0,0,53,53,173,217.69853281974792,,,,,,,,,,,,,,,,,,,,,,,,,,,,,,,,,,,,,,,,,,,,,,,,,,,,,,,,,,,,,,,,,,,,,,,,,,,,,,,,,145.51391742496148,145.51391742496148,59.29609439282098,94.5726296089876,136.0621732742639,77.63382484374975,3.0,3.1,-216,289,0,-8,182,-260,217.6843478679657,217.68442463874817,217.68832969665527,217.69853281974792,217.84655785560608,217.84655785560608,217.84655785560608,217.84655785560608,217.84655785560608,217.84655785560608,217.84655785560608,219.81623125076294,1,2.1148085594177246,None,,,,,,,,,,,,,,,,,,80,4,2025-02-21_13h30.02.136,comp,2024.2.4,55.80032541178693,2025-02-21 13h31.45.100656 -0500,
54,54,0,catch,None,None,None,None,None,None,None,None,None,None,3,0.8531074523925781,None,,,,,0,0,0,0,0,54,54,127,219.83299803733826,,,,,,,,,,,,,,,,,,,,,,,,,,,,,,,,,,,,,,,,,,,,,,,,,,,,,,,,,,,,,,,,,,,,,,,,,,,,,,,,,71,119,71,119,169,156,3.0,3.2,-215,-262,0,10,234,270,219.8185796737671,219.81873321533203,219.8223750591278,219.83299803733826,219.98085570335388,219.98085570335388,219.98085570335388,219.98085570335388,219.98085570335388,219.98085570335388,219.98085570335388,220.69777369499207,3,0.8531074523925781,None,,,,,,,,,,,,,,,,,,80,4,2025-02-21_13h30.02.136,comp,2024.2.4,55.80032541178693,2025-02-21 13h31.45.100656 -0500,
55,55,0,filler_random,None,None,None,None,None,None,None,None,None,None,3,1.6213231086730957,None,,,,,0,0,0,0,0,55,55,134,220.7122905254364,,,,,,,,,,,,,,,,,,,,,,,,,,,,,,,,,,,,,,,,,,,,,,,,,,,,,,,,,,,,,,,,,,,,,,,,,,,,,,,,,106.53103993272678,166.95385438497786,163.78925865084432,110.56747485984354,128.91875564581505,154.63376359587093,2.1,2.11,-235,261,0,251,229,-279,220.69954085350037,220.69965314865112,220.70295786857605,220.7122905254364,220.86218333244324,220.86218333244324,220.86218333244324,220.86218333244324,220.86218333244324,220.86218333244324,220.86218333244324,222.34869527816772,3,1.6213231086730957,None,,,,,,,,,,,,,,,,,,80,4,2025-02-21_13h30.02.136,comp,2024.2.4,55.80032541178693,2025-02-21 13h31.45.100656 -0500,
56,56,0,critical,hdw,35.0,3.0,upper,200.0,125.0,127.0,127.0,125.0,200.0,3,0.9619872570037842,None,,,,,0,0,0,0,0,56,56,111,222.36425638198853,,,,,,,,,,,,,,,,,,,,,,,,,,,,,,,,,,,,,,,,,,,,,,,,,,,,,,,,,,,,,,,,,,,,,,,,,,,,,,,,,200.0,125.0,127.0,127.0,125.0,200.0,3.0,3.1,-222,284,0,-14,260,-263,222.35032057762146,222.35042357444763,222.35393285751343,222.36425638198853,222.5135374069214,222.5135374069214,222.5135374069214,222.5135374069214,222.5135374069214,222.5135374069214,222.5135374069214,223.33202004432678,3,0.9619872570037842,None,,,,,,,,,,,,,,,,,,80,4,2025-02-21_13h30.02.136,comp,2024.2.4,55.80032541178693,2025-02-21 13h31.45.100656 -0500,
57,57,0,critical,whd,35.0,2.1,upper,125.0,200.0,200.0,125.0,127.0,127.0,1,1.4829959869384766,None,,,,,0,0,0,0,0,57,57,13,223.34634971618652,,,,,,,,,,,,,,,,,,,,,,,,,,,,,,,,,,,,,,,,,,,,,,,,,,,,,,,,,,,,,,,,,,,,,,,,,,,,,,,,,125.0,200.0,200.0,125.0,127.0,127.0,2.1,2.11,-258,282,0,284,222,-262,223.33355736732483,223.3336639404297,223.33692693710327,223.34634971618652,223.50114274024963,223.50114274024963,223.50114274024963,223.50114274024963,223.50114274024963,223.50114274024963,223.50114274024963,224.84122347831726,1,1.4829959869384766,None,,,,,,,,,,,,,,,,,,80,4,2025-02-21_13h30.02.136,comp,2024.2.4,55.80032541178693,2025-02-21 13h31.45.100656 -0500,
58,58,0,critical,dwh,35.0,2.1,lower,70.0,70.0,57.0,133.0,133.0,57.0,3,1.6908152103424072,None,,,,,0,0,0,0,0,58,58,28,224.85863208770752,,,,,,,,,,,,,,,,,,,,,,,,,,,,,,,,,,,,,,,,,,,,,,,,,,,,,,,,,,,,,,,,,,,,,,,,,,,,,,,,,70.0,70.0,57.0,133.0,133.0,57.0,2.1,2.11,-198,271,0,266,191,-266,224.84267830848694,224.84275245666504,224.8455638885498,224.85863208770752,225.0017330646515,225.0017330646515,225.0017330646515,225.0017330646515,225.0017330646515,225.0017330646515,225.0017330646515,226.56625986099243,3,1.6908152103424072,None,,,,,,,,,,,,,,,,,,80,4,2025-02-21_13h30.02.136,comp,2024.2.4,55.80032541178693,2025-02-21 13h31.45.100656 -0500,
59,59,0,filler_random,None,None,None,None,None,None,None,None,None,None,1,1.9273571968078613,None,,,,,0,0,0,0,0,59,59,131,226.58248353004456,,,,,,,,,,,,,,,,,,,,,,,,,,,,,,,,,,,,,,,,,,,,,,,,,,,,,,,,,,,,,,,,,,,,,,,,,,,,,,,,,147.3841190953283,163.31162958268823,67.5718042975603,105.97372809153072,167.3557149501492,95.0474595144247,2.2,2.22,-231,251,0,-257,197,-261,226.56795048713684,226.56802535057068,226.57210230827332,226.58248353004456,226.7369122505188,226.7369122505188,226.7369122505188,226.7369122505188,226.7369122505188,226.7369122505188,226.7369122505188,228.51817297935486,1,1.9273571968078613,None,,,,,,,,,,,,,,,,,,80,4,2025-02-21_13h30.02.136,comp,2024.2.4,55.80032541178693,2025-02-21 13h31.45.100656 -0500,
60,60,0,critical,dwh,20.0,1.0,upper,141.0,141.0,125.0,200.0,200.0,125.0,3,3.23134708404541,None,,,,,0,0,0,0,0,60,60,67,228.53402519226074,,,,,,,,,,,,,,,,,,,,,,,,,,,,,,,,,,,,,,,,,,,,,,,,,,,,,,,,,,,,,,,,,,,,,,,,,,,,,,,,,141.0,141.0,125.0,200.0,200.0,125.0,1.0,1.3,214,-279,480,-263,738,-278,228.51963806152344,228.51971697807312,228.52320766448975,228.53402519226074,228.68346238136292,228.68346238136292,228.68346238136292,228.68346238136292,228.68346238136292,228.68346238136292,228.68346238136292,231.7750997543335,3,3.23134708404541,None,,,,,,,,,,,,,,,,,,80,4,2025-02-21_13h30.02.136,comp,2024.2.4,55.80032541178693,2025-02-21 13h31.45.100656 -0500,
61,61,0,filler_random,None,None,None,None,None,None,None,None,None,None,1,1.6869912147521973,None,,,,,0,0,0,0,0,61,61,147,231.79111886024475,,,,,,,,,,,,,,,,,,,,,,,,,,,,,,,,,,,,,,,,,,,,,,,,,,,,,,,,,,,,,,,,,,,,,,,,,,,,,,,,,72.34851850739653,164.54581041236946,68.90404476333131,124.1826131863514,143.40415415836276,58.69181240992947,3.0,3.2,-240,-252,0,17,187,254,231.77682185173035,231.7769000530243,231.77983331680298,231.79111886024475,231.94509983062744,231.94509983062744,231.94509983062744,231.94509983062744,231.94509983062744,231.94509983062744,231.94509983062744,233.48413014411926,1,1.6869912147521973,None,,,,,,,,,,,,,,,,,,80,4,2025-02-21_13h30.02.136,comp,2024.2.4,55.80032541178693,2025-02-21 13h31.45.100656 -0500,
62,62,0,filler_square,None,None,None,None,None,None,None,None,None,None,2,1.7647273540496826,None,,,,,0,0,0,0,0,62,62,185,233.50473499298096,,,,,,,,,,,,,,,,,,,,,,,,,,,,,,,,,,,,,,,,,,,,,,,,,,,,,,,,,,,,,,,,,,,,,,,,,,,,,,,,,57.842917177515815,80.47378532185635,84.84846622743196,84.84846622743196,70.31974474376963,80.4084184855339,2.1,2.12,-179,-257,0,-272,179,283,233.4859058856964,233.485981464386,233.48907685279846,233.50473499298096,233.65182328224182,233.65182328224182,233.65182328224182,233.65182328224182,233.65182328224182,233.65182328224182,233.65182328224182,235.285879611969,2,1.7647273540496826,None,,,,,,,,,,,,,,,,,,80,4,2025-02-21_13h30.02.136,comp,2024.2.4,55.80032541178693,2025-02-21 13h31.45.100656 -0500,
63,63,0,filler_square,None,None,None,None,None,None,None,None,None,None,3,1.9195778369903564,None,,,,,0,0,0,0,0,63,63,189,235.30171847343445,,,,,,,,,,,,,,,,,,,,,,,,,,,,,,,,,,,,,,,,,,,,,,,,,,,,,,,,,,,,,,,,,,,,,,,,,,,,,,,,,63.970660257205694,67.04321603226676,61.17488102622719,63.2224680316548,68.02833023034991,68.02833023034991,2.1,2.11,-161,252,0,255,162,-271,235.28786420822144,235.28794169425964,235.29133296012878,235.30171847343445,235.45195293426514,235.45195293426514,235.45195293426514,235.45195293426514,235.45195293426514,235.45195293426514,235.45195293426514,237.23713374137878,3,1.9195778369903564,None,,,,,,,,,,,,,,,,,,80,4,2025-02-21_13h30.02.136,comp,2024.2.4,55.80032541178693,2025-02-21 13h31.45.100656 -0500,
64,64,0,critical,hdw,35.0,4.0,lower,133.0,57.0,70.0,70.0,57.0,133.0,3,2.6798126697540283,None,,,,,0,0,0,0,0,64,64,112,237.25347352027893,,,,,,,,,,,,,,,,,,,,,,,,,,,,,,,,,,,,,,,,,,,,,,,,,,,,,,,,,,,,,,,,,,,,,,,,,,,,,,,,,133.0,57.0,70.0,70.0,57.0,133.0,4.0,4.2,-160,14,0,-253,198,6,237.23873114585876,237.2388300895691,237.2422580718994,237.25347352027893,237.40866565704346,237.40866565704346,237.40866565704346,237.40866565704346,237.40866565704346,237.40866565704346,237.40866565704346,239.94390225410461,3,2.6798126697540283,None,,,,,,,,,,,,,,,,,,80,4,2025-02-21_13h30.02.136,comp,2024.2.4,55.80032541178693,2025-02-21 13h31.45.100656 -0500,
65,65,0,critical,wdh,20.0,1.0,upper,125.0,200.0,141.0,141.0,200.0,125.0,3,1.212663173675537,None,,,,,0,0,0,0,0,65,65,79,239.96128821372986,,,,,,,,,,,,,,,,,,,,,,,,,,,,,,,,,,,,,,,,,,,,,,,,,,,,,,,,,,,,,,,,,,,,,,,,,,,,,,,,,125.0,200.0,141.0,141.0,200.0,125.0,1.0,1.1,-746,258,-480,258,-251,265,239.9454140663147,239.94549107551575,239.94830799102783,239.96128821372986,240.10344791412354,240.10344791412354,240.10344791412354,240.10344791412354,240.10344791412354,240.10344791412354,240.10344791412354,241.17607617378235,3,1.212663173675537,None,,,,,,,,,,,,,,,,,,80,4,2025-02-21_13h30.02.136,comp,2024.2.4,55.80032541178693,2025-02-21 13h31.45.100656 -0500,
66,66,0,critical,hdw,35.0,1.0,lower,133.0,57.0,70.0,70.0,57.0,133.0,3,1.445375680923462,None,,,,,0,0,0,0,0,66,66,108,241.1919445991516,,,,,,,,,,,,,,,,,,,,,,,,,,,,,,,,,,,,,,,,,,,,,,,,,,,,,,,,,,,,,,,,,,,,,,,,,,,,,,,,,133.0,57.0,70.0,70.0,57.0,133.0,1.0,1.1,-640,257,-480,253,-282,256,241.1775758266449,241.1776885986328,241.18049955368042,241.1919445991516,241.33752918243408,241.33752918243408,241.33752918243408,241.33752918243408,241.33752918243408,241.33752918243408,241.33752918243408,242.65389776229858,3,1.445375680923462,None,,,,,,,,,,,,,,,,,,80,4,2025-02-21_13h30.02.136,comp,2024.2.4,55.80032541178693,2025-02-21 13h31.45.100656 -0500,
67,67,0,critical,wdh,35.0,2.1,lower,57.0,133.0,70.0,70.0,133.0,57.0,3,2.2523131370544434,None,,,,,0,0,0,0,0,67,67,8,242.67324566841125,,,,,,,,,,,,,,,,,,,,,,,,,,,,,,,,,,,,,,,,,,,,,,,,,,,,,,,,,,,,,,,,,,,,,,,,,,,,,,,,,57.0,133.0,70.0,70.0,133.0,57.0,2.1,2.12,-198,-262,0,-268,160,279,242.65536761283875,242.6554410457611,242.65846371650696,242.67324566841125,242.80871319770813,242.80871319770813,242.80871319770813,242.80871319770813,242.80871319770813,242.80871319770813,242.80871319770813,244.94153809547424,3,2.2523131370544434,None,,,,,,,,,,,,,,,,,,80,4,2025-02-21_13h30.02.136,comp,2024.2.4,55.80032541178693,2025-02-21 13h31.45.100656 -0500,
68,68,0,filler_random,None,None,None,None,None,None,None,None,None,None,3,1.2960178852081299,None,,,,,0,0,0,0,0,68,68,149,244.9578995704651,,,,,,,,,,,,,,,,,,,,,,,,,,,,,,,,,,,,,,,,,,,,,,,,,,,,,,,,,,,,,,,,,,,,,,,,,,,,,,,,,80.92725458691896,132.54122494094855,102.47737219884397,179.6732353000706,135.57444900876635,150.74616681329968,1.0,1.2,-252,18,0,19,261,-2,244.94341683387756,244.94349360466003,244.9472954273224,244.9578995704651,245.10617780685425,245.10617780685425,245.10617780685425,245.10617780685425,245.10617780685425,245.10617780685425,245.10617780685425,246.25614404678345,3,1.2960178852081299,None,,,,,,,,,,,,,,,,,,80,4,2025-02-21_13h30.02.136,comp,2024.2.4,55.80032541178693,2025-02-21 13h31.45.100656 -0500,
69,69,0,critical,dhw,35.0,2.1,upper,127.0,127.0,200.0,125.0,125.0,200.0,3,1.597987413406372,None,,,,,0,0,0,0,0,69,69,1,246.27169728279114,,,,,,,,,,,,,,,,,,,,,,,,,,,,,,,,,,,,,,,,,,,,,,,,,,,,,,,,,,,,,,,,,,,,,,,,,,,,,,,,,127.0,127.0,200.0,125.0,125.0,200.0,2.1,2.11,-222,271,0,290,258,-288,246.25768494606018,246.25776171684265,246.26078391075134,246.27169728279114,246.42695116996765,246.42695116996765,246.42695116996765,246.42695116996765,246.42695116996765,246.42695116996765,246.42695116996765,247.8719506263733,3,1.597987413406372,None,,,,,,,,,,,,,,,,,,80,4,2025-02-21_13h30.02.136,comp,2024.2.4,55.80032541178693,2025-02-21 13h31.45.100656 -0500,
70,70,0,filler_square,None,None,None,None,None,None,None,None,None,None,1,1.1851205825805664,None,,,,,0,0,0,0,0,70,70,171,247.89220356941223,,,,,,,,,,,,,,,,,,,,,,,,,,,,,,,,,,,,,,,,,,,,,,,,,,,,,,,,,,,,,,,,,,,,,,,,,,,,,,,,,130.69368373525256,130.69368373525256,103.5357855281454,76.5493239250736,86.3990451657228,122.01396316626213,1.0,1.2,-200,11,0,-12,195,12,247.87366199493408,247.8737428188324,247.87703704833984,247.89220356941223,248.03993892669678,248.03993892669678,248.03993892669678,248.03993892669678,248.03993892669678,248.03993892669678,248.03993892669678,249.08907556533813,1,1.1851205825805664,None,,,,,,,,,,,,,,,,,,80,4,2025-02-21_13h30.02.136,comp,2024.2.4,55.80032541178693,2025-02-21 13h31.45.100656 -0500,
71,71,0,critical,wdh,20.0,3.0,upper,125.0,200.0,141.0,141.0,200.0,125.0,1,3.276101589202881,None,,,,,0,0,0,0,0,71,71,81,249.1054925918579,,,,,,,,,,,,,,,,,,,,,,,,,,,,,,,,,,,,,,,,,,,,,,,,,,,,,,,,,,,,,,,,,,,,,,,,,,,,,,,,,125.0,200.0,141.0,141.0,200.0,125.0,3.0,3.1,-266,274,0,7,229,-251,249.09064435958862,249.09072136878967,249.09399104118347,249.1054925918579,249.25701642036438,249.25701642036438,249.25701642036438,249.25701642036438,249.25701642036438,249.25701642036438,249.25701642036438,252.38374042510986,1,3.276101589202881,None,,,,,,,,,,,,,,,,,,80,4,2025-02-21_13h30.02.136,comp,2024.2.4,55.80032541178693,2025-02-21 13h31.45.100656 -0500,
72,72,0,critical,hdw,35.0,4.0,upper,200.0,125.0,127.0,127.0,125.0,200.0,3,2.357611656188965,None,,,,,0,0,0,0,0,72,72,113,252.39973139762878,,,,,,,,,,,,,,,,,,,,,,,,,,,,,,,,,,,,,,,,,,,,,,,,,,,,,,,,,,,,,,,,,,,,,,,,,,,,,,,,,200.0,125.0,127.0,127.0,125.0,200.0,4.0,4.1,-222,-258,0,-5,260,-257,252.3852059841156,252.38528180122375,252.38811469078064,252.39973139762878,252.54004335403442,252.54004335403442,252.54004335403442,252.54004335403442,252.54004335403442,252.54004335403442,252.54004335403442,254.76053547859192,3,2.357611656188965,None,,,,,,,,,,,,,,,,,,80,4,2025-02-21_13h30.02.136,comp,2024.2.4,55.80032541178693,2025-02-21 13h31.45.100656 -0500,
73,73,0,critical,dwh,35.0,1.0,upper,127.0,127.0,125.0,200.0,200.0,125.0,3,1.4938554763793945,None,,,,,0,0,0,0,0,73,73,61,254.77594828605652,,,,,,,,,,,,,,,,,,,,,,,,,,,,,,,,,,,,,,,,,,,,,,,,,,,,,,,,,,,,,,,,,,,,,,,,,,,,,,,,,127.0,127.0,125.0,200.0,200.0,125.0,1.0,1.1,-740,284,-480,271,-222,279,254.76206064224243,254.76214051246643,254.76521730422974,254.77594828605652,254.92516112327576,254.92516112327576,254.92516112327576,254.92516112327576,254.92516112327576,254.92516112327576,254.92516112327576,256.27480959892273,3,1.4938554763793945,None,,,,,,,,,,,,,,,,,,80,4,2025-02-21_13h30.02.136,comp,2024.2.4,55.80032541178693,2025-02-21 13h31.45.100656 -0500,
74,74,0,filler_square,None,None,None,None,None,None,None,None,None,None,2,2.267242908477783,None,,,,,0,0,0,0,0,74,74,186,256.2901203632355,,,,,,,,,,,,,,,,,,,,,,,,,,,,,,,,,,,,,,,,,,,,,,,,,,,,,,,,,,,,,,,,,,,,,,,,,,,,,,,,,73.60278047839834,65.13503786572083,88.5719985386248,88.5719985386248,85.3349489544184,58.94259596187211,2.1,2.12,-173,-286,0,-256,170,266,256.2763397693634,256.2764093875885,256.2792749404907,256.2901203632355,256.44527649879456,256.44527649879456,256.44527649879456,256.44527649879456,256.44527649879456,256.44527649879456,256.44527649879456,258.55949878692627,2,2.267242908477783,None,,,,,,,,,,,,,,,,,,80,4,2025-02-21_13h30.02.136,comp,2024.2.4,55.80032541178693,2025-02-21 13h31.45.100656 -0500,
75,75,0,critical,dwh,35.0,2.1,upper,127.0,127.0,125.0,200.0,200.0,125.0,2,2.470005750656128,None,,,,,0,0,0,0,0,75,75,5,258.57544684410095,,,,,,,,,,,,,,,,,,,,,,,,,,,,,,,,,,,,,,,,,,,,,,,,,,,,,,,,,,,,,,,,,,,,,,,,,,,,,,,,,127.0,127.0,125.0,200.0,200.0,125.0,2.1,2.12,-260,-282,0,-274,258,259,258.56098914146423,258.5610659122467,258.56439208984375,258.57544684410095,258.72413182258606,258.72413182258606,258.72413182258606,258.72413182258606,258.72413182258606,258.72413182258606,258.72413182258606,261.05777740478516,2,2.470005750656128,None,,,,,,,,,,,,,,,,,,80,4,2025-02-21_13h30.02.136,comp,2024.2.4,55.80032541178693,2025-02-21 13h31.45.100656 -0500,
76,76,0,filler_square,None,None,None,None,None,None,None,None,None,None,2,0.9158704280853271,None,,,,,0,0,0,0,0,76,76,207,261.07373881340027,,,,,,,,,,,,,,,,,,,,,,,,,,,,,,,,,,,,,,,,,,,,,,,,,,,,,,,,,,,,,,,,,,,,,,,,,,,,,,,,,90.65691917803304,91.51778416336562,120.1247727458097,120.1247727458097,69.97475914416495,86.5346691151278,4.0,4.1,-202,-254,0,8,199,-261,261.05975246429443,261.05982875823975,261.0630624294281,261.07373881340027,261.22876381874084,261.22876381874084,261.22876381874084,261.22876381874084,261.22876381874084,261.22876381874084,261.22876381874084,261.9914610385895,2,0.9158704280853271,None,,,,,,,,,,,,,,,,,,80,4,2025-02-21_13h30.02.136,comp,2024.2.4,55.80032541178693,2025-02-21 13h31.45.100656 -0500,
77,77,0,filler_square,None,None,None,None,None,None,None,None,None,None,2,1.8216137886047363,None,,,,,0,0,0,0,0,77,77,209,262.0076880455017,,,,,,,,,,,,,,,,,,,,,,,,,,,,,,,,,,,,,,,,,,,,,,,,,,,,,,,,,,,,,,,,,,,,,,,,,,,,,,,,,63.82334443356273,70.24168567434143,72.33678497279895,72.33678497279895,71.8310358044774,66.33582333523725,4.0,4.2,-167,10,0,-288,165,7,261.9933362007141,261.9934160709381,261.99631357192993,262.0076880455017,262.1628758907318,262.1628758907318,262.1628758907318,262.1628758907318,262.1628758907318,262.1628758907318,262.1628758907318,263.84348821640015,2,1.8216137886047363,None,,,,,,,,,,,,,,,,,,80,4,2025-02-21_13h30.02.136,comp,2024.2.4,55.80032541178693,2025-02-21 13h31.45.100656 -0500,
78,78,0,critical,whd,20.0,4.0,upper,125.0,200.0,200.0,125.0,141.0,141.0,1,2.1223185062408447,None,,,,,0,0,0,0,0,78,78,95,263.859171628952,,,,,,,,,,,,,,,,,,,,,,,,,,,,,,,,,,,,,,,,,,,,,,,,,,,,,,,,,,,,,,,,,,,,,,,,,,,,,,,,,125.0,200.0,200.0,125.0,141.0,141.0,4.0,4.2,-258,-18,0,-259,229,-12,263.8449523448944,263.84502840042114,263.8478744029999,263.859171628952,264.0141727924347,264.0141727924347,264.0141727924347,264.0141727924347,264.0141727924347,264.0141727924347,264.0141727924347,265.99476408958435,1,2.1223185062408447,None,,,,,,,,,,,,,,,,,,80,4,2025-02-21_13h30.02.136,comp,2024.2.4,55.80032541178693,2025-02-21 13h31.45.100656 -0500,
79,79,0,critical,dhw,35.0,3.0,upper,127.0,127.0,200.0,125.0,125.0,200.0,3,1.330902338027954,None,,,,,0,0,0,0,0,79,79,51,266.01068925857544,,,,,,,,,,,,,,,,,,,,,,,,,,,,,,,,,,,,,,,,,,,,,,,,,,,,,,,,,,,,,,,,,,,,,,,,,,,,,,,,,127.0,127.0,200.0,125.0,125.0,200.0,3.0,3.2,-222,-278,0,-14,258,272,265.996218919754,265.9962933063507,265.9993381500244,266.01068925857544,266.15843749046326,266.15843749046326,266.15843749046326,266.15843749046326,266.15843749046326,266.15843749046326,266.15843749046326,267.34667778015137,3,1.330902338027954,None,,,,,,,,,,,,,,,,,,80,4,2025-02-21_13h30.02.136,comp,2024.2.4,55.80032541178693,2025-02-21 13h31.45.100656 -0500,
80,80,0,filler_random,None,None,None,None,None,None,None,None,None,None,3,1.2299737930297852,None,,,,,0,0,0,0,0,80,80,142,267.3673551082611,,,,,,,,,,,,,,,,,,,,,,,,,,,,,,,,,,,,,,,,,,,,,,,,,,,,,,,,,,,,,,,,,,,,,,,,,,,,,,,,,90.62312693144797,67.76099271569342,109.05709057982818,110.10406895344964,124.58510300603467,122.35544750979287,4.0,4.2,-185,18,0,-260,212,-15,267.3482949733734,267.34837102890015,267.3514459133148,267.3673551082611,267.5112295150757,267.5112295150757,267.5112295150757,267.5112295150757,267.5112295150757,267.5112295150757,267.5112295150757,268.6126184463501,3,1.2299737930297852,None,,,,,,,,,,,,,,,,,,80,4,2025-02-21_13h30.02.136,comp,2024.2.4,55.80032541178693,2025-02-21 13h31.45.100656 -0500,
81,81,0,critical,whd,20.0,1.0,lower,57.0,133.0,133.0,57.0,78.0,78.0,1,1.3686320781707764,None,,,,,0,0,0,0,0,81,81,90,268.6286280155182,,,,,,,,,,,,,,,,,,,,,,,,,,,,,,,,,,,,,,,,,,,,,,,,,,,,,,,,,,,,,,,,,,,,,,,,,,,,,,,,,57.0,133.0,133.0,57.0,78.0,78.0,1.0,1.2,-191,0,0,9,164,-3,268.6142694950104,268.61434745788574,268.617849111557,268.6286280155182,268.78476214408875,268.78476214408875,268.78476214408875,268.78476214408875,268.78476214408875,268.78476214408875,268.78476214408875,270.0122802257538,1,1.3686320781707764,None,,,,,,,,,,,,,,,,,,80,4,2025-02-21_13h30.02.136,comp,2024.2.4,55.80032541178693,2025-02-21 13h31.45.100656 -0500,
82,82,0,critical,hwd,20.0,2.1,upper,200.0,125.0,125.0,200.0,141.0,141.0,2,3.2811472415924072,None,,,,,0,0,0,0,0,82,82,19,270.0285542011261,,,,,,,,,,,,,,,,,,,,,,,,,,,,,,,,,,,,,,,,,,,,,,,,,,,,,,,,,,,,,,,,,,,,,,,,,,,,,,,,,200.0,125.0,125.0,200.0,141.0,141.0,2.1,2.11,-258,261,0,258,266,-265,270.0138928890228,270.0139670372009,270.01721000671387,270.0285542011261,270.18786001205444,270.18786001205444,270.18786001205444,270.18786001205444,270.18786001205444,270.18786001205444,270.18786001205444,273.3135766983032,2,3.2811472415924072,None,,,,,,,,,,,,,,,,,,80,4,2025-02-21_13h30.02.136,comp,2024.2.4,55.80032541178693,2025-02-21 13h31.45.100656 -0500,
83,83,0,critical,hdw,20.0,3.0,lower,133.0,57.0,78.0,78.0,57.0,133.0,3,1.279055118560791,None,,,,,0,0,0,0,0,83,83,116,273.3342356681824,,,,,,,,,,,,,,,,,,,,,,,,,,,,,,,,,,,,,,,,,,,,,,,,,,,,,,,,,,,,,,,,,,,,,,,,,,,,,,,,,133.0,57.0,78.0,78.0,57.0,133.0,3.0,3.2,-164,-260,0,-11,202,273,273.3152103424072,273.31528663635254,273.3185122013092,273.3342356681824,273.4813368320465,273.4813368320465,273.4813368320465,273.4813368320465,273.4813368320465,273.4813368320465,273.4813368320465,274.62965416908264,3,1.279055118560791,None,,,,,,,,,,,,,,,,,,80,4,2025-02-21_13h30.02.136,comp,2024.2.4,55.80032541178693,2025-02-21 13h31.45.100656 -0500,
84,84,0,critical,wdh,20.0,1.0,lower,57.0,133.0,78.0,78.0,133.0,57.0,3,2.839942693710327,None,,,,,0,0,0,0,0,84,84,78,274.64581823349,,,,,,,,,,,,,,,,,,,,,,,,,,,,,,,,,,,,,,,,,,,,,,,,,,,,,,,,,,,,,,,,,,,,,,,,,,,,,,,,,57.0,133.0,78.0,78.0,133.0,57.0,1.0,1.2,-202,-12,0,3,164,12,274.6311674118042,274.6312413215637,274.63455724716187,274.64581823349,274.7829782962799,274.7829782962799,274.7829782962799,274.7829782962799,274.7829782962799,274.7829782962799,274.7829782962799,277.49958300590515,3,2.839942693710327,None,,,,,,,,,,,,,,,,,,80,4,2025-02-21_13h30.02.136,comp,2024.2.4,55.80032541178693,2025-02-21 13h31.45.100656 -0500,
85,85,0,critical,hdw,35.0,2.1,lower,133.0,57.0,70.0,70.0,57.0,133.0,1,3.1955742835998535,None,,,,,0,0,0,0,0,85,85,44,277.51437997817993,,,,,,,,,,,,,,,,,,,,,,,,,,,,,,,,,,,,,,,,,,,,,,,,,,,,,,,,,,,,,,,,,,,,,,,,,,,,,,,,,133.0,57.0,70.0,70.0,57.0,133.0,2.1,2.12,-160,-251,0,-271,198,270,277.5010907649994,277.5011670589447,277.5041604042053,277.51437997817993,277.6680257320404,277.6680257320404,277.6680257320404,277.6680257320404,277.6680257320404,277.6680257320404,277.6680257320404,280.7191882133484,1,3.1955742835998535,None,,,,,,,,,,,,,,,,,,80,4,2025-02-21_13h30.02.136,comp,2024.2.4,55.80032541178693,2025-02-21 13h31.45.100656 -0500,
86,86,0,filler_square,None,None,None,None,None,None,None,None,None,None,1,1.5235373973846436,None,,,,,0,0,0,0,0,86,86,182,280.7385849952698,,,,,,,,,,,,,,,,,,,,,,,,,,,,,,,,,,,,,,,,,,,,,,,,,,,,,,,,,,,,,,,,,,,,,,,,,,,,,,,,,92.10397562008609,92.10397562008609,78.10571138660147,83.81999499444228,68.31146754595856,80.02994686297636,3.0,3.1,-184,260,0,6,178,-288,280.72093319892883,280.7210099697113,280.7242007255554,280.7385849952698,280.8852553367615,280.8852553367615,280.8852553367615,280.8852553367615,280.8852553367615,280.8852553367615,280.8852553367615,282.26821732521057,1,1.5235373973846436,None,,,,,,,,,,,,,,,,,,80,4,2025-02-21_13h30.02.136,comp,2024.2.4,55.80032541178693,2025-02-21 13h31.45.100656 -0500,
87,87,0,critical,dwh,20.0,3.0,lower,78.0,78.0,57.0,133.0,133.0,57.0,3,3.1130459308624268,None,,,,,0,0,0,0,0,87,87,68,282.2855689525604,,,,,,,,,,,,,,,,,,,,,,,,,,,,,,,,,,,,,,,,,,,,,,,,,,,,,,,,,,,,,,,,,,,,,,,,,,,,,,,,,78.0,78.0,57.0,133.0,133.0,57.0,3.0,3.1,-202,275,0,16,191,-267,282.2696886062622,282.269784450531,282.2729229927063,282.2855689525604,282.4301929473877,282.4301929473877,282.4301929473877,282.4301929473877,282.4301929473877,282.4301929473877,282.4301929473877,285.41840839385986,3,3.1130459308624268,None,,,,,,,,,,,,,,,,,,80,4,2025-02-21_13h30.02.136,comp,2024.2.4,55.80032541178693,2025-02-21 13h31.45.100656 -0500,
88,88,0,filler_square,None,None,None,None,None,None,None,None,None,None,3,1.0902955532073975,None,,,,,0,0,0,0,0,88,88,181,285.43499851226807,,,,,,,,,,,,,,,,,,,,,,,,,,,,,,,,,,,,,,,,,,,,,,,,,,,,,,,,,,,,,,,,,,,,,,,,,,,,,,,,,105.8672419212167,184.24507468703501,123.58693895464921,183.572706806395,197.83620695337177,197.83620695337177,3.0,3.2,-280,-277,0,19,287,277,285.4202330112457,285.4203100204468,285.42367935180664,285.43499851226807,285.58889269828796,285.58889269828796,285.58889269828796,285.58889269828796,285.58889269828796,285.58889269828796,285.58889269828796,286.53604674339294,3,1.0902955532073975,None,,,,,,,,,,,,,,,,,,80,4,2025-02-21_13h30.02.136,comp,2024.2.4,55.80032541178693,2025-02-21 13h31.45.100656 -0500,
89,89,0,critical,dwh,20.0,2.1,upper,141.0,141.0,125.0,200.0,200.0,125.0,2,2.022040605545044,None,,,,,0,0,0,0,0,89,89,7,286.5533547401428,,,,,,,,,,,,,,,,,,,,,,,,,,,,,,,,,,,,,,,,,,,,,,,,,,,,,,,,,,,,,,,,,,,,,,,,,,,,,,,,,141.0,141.0,125.0,200.0,200.0,125.0,2.1,2.11,-266,262,0,269,258,-265,286.53754568099976,286.5376648902893,286.5408618450165,286.5533547401428,286.70576524734497,286.70576524734497,286.70576524734497,286.70576524734497,286.70576524734497,286.70576524734497,286.70576524734497,288.5860974788666,2,2.022040605545044,None,,,,,,,,,,,,,,,,,,80,4,2025-02-21_13h30.02.136,comp,2024.2.4,55.80032541178693,2025-02-21 13h31.45.100656 -0500,
90,90,0,filler_square,None,None,None,None,None,None,None,None,None,None,2,1.1318395137786865,None,,,,,0,0,0,0,0,90,90,187,288.60207319259644,,,,,,,,,,,,,,,,,,,,,,,,,,,,,,,,,,,,,,,,,,,,,,,,,,,,,,,,,,,,,,,,,,,,,,,,,,,,,,,,,61.875298611950356,177.11044109956566,190.884454699806,190.884454699806,68.7806568246384,148.33347628834525,2.2,2.21,-280,-284,0,252,266,264,288.58787631988525,288.58795404434204,288.5913152694702,288.60207319259644,288.75256276130676,288.75256276130676,288.75256276130676,288.75256276130676,288.75256276130676,288.75256276130676,288.75256276130676,289.7426550388336,2,1.1318395137786865,None,,,,,,,,,,,,,,,,,,80,4,2025-02-21_13h30.02.136,comp,2024.2.4,55.80032541178693,2025-02-21 13h31.45.100656 -0500,
91,91,0,filler_random,None,None,None,None,None,None,None,None,None,None,2,2.230756998062134,None,,,,,0,0,0,0,0,91,91,135,289.7587025165558,,,,,,,,,,,,,,,,,,,,,,,,,,,,,,,,,,,,,,,,,,,,,,,,,,,,,,,,,,,,,,,,,,,,,,,,,,,,,,,,,74.2288704817517,98.08089814639776,128.54717655547168,191.64206818216002,198.9460202986698,122.81371020580075,2.1,2.12,-241,-289,0,-250,253,257,289.7443823814392,289.74448347091675,289.74775409698486,289.7587025165558,289.9032287597656,289.9032287597656,289.9032287597656,289.9032287597656,289.9032287597656,289.9032287597656,289.9032287597656,292.0056824684143,2,2.230756998062134,None,,,,,,,,,,,,,,,,,,80,4,2025-02-21_13h30.02.136,comp,2024.2.4,55.80032541178693,2025-02-21 13h31.45.100656 -0500,
92,92,0,filler_random,None,None,None,None,None,None,None,None,None,None,1,1.4269750118255615,None,,,,,0,0,0,0,0,92,92,152,292.0209057331085,,,,,,,,,,,,,,,,,,,,,,,,,,,,,,,,,,,,,,,,,,,,,,,,,,,,,,,,,,,,,,,,,,,,,,,,,,,,,,,,,171.45276197864695,118.62208373789312,68.50761266471893,88.96317456329191,120.77581520578777,79.9827725203182,3.0,3.2,-200,-275,0,-17,180,267,292.0074396133423,292.00751638412476,292.0106816291809,292.0209057331085,292.1753890514374,292.1753890514374,292.1753890514374,292.1753890514374,292.1753890514374,292.1753890514374,292.1753890514374,293.4520614147186,1,1.4269750118255615,None,,,,,,,,,,,,,,,,,,80,4,2025-02-21_13h30.02.136,comp,2024.2.4,55.80032541178693,2025-02-21 13h31.45.100656 -0500,
93,93,0,catch,None,None,None,None,None,None,None,None,None,None,2,1.2653613090515137,None,,,,,0,0,0,0,0,93,93,124,293.4687309265137,,,,,,,,,,,,,,,,,,,,,,,,,,,,,,,,,,,,,,,,,,,,,,,,,,,,,,,,,,,,,,,,,,,,,,,,,,,,,,,,,62,128,144,181,105,85,4.0,4.2,-250,-17,0,-282,229,16,293.4538993835449,293.45397996902466,293.4569044113159,293.4687309265137,293.62375664711,293.62375664711,293.62375664711,293.62375664711,293.62375664711,293.62375664711,293.62375664711,294.7373950481415,2,1.2653613090515137,None,,,,,,,,,,,,,,,,,,80,4,2025-02-21_13h30.02.136,comp,2024.2.4,55.80032541178693,2025-02-21 13h31.45.100656 -0500,
94,94,0,catch,None,None,None,None,None,None,None,None,None,None,1,0.938234806060791,None,,,,,0,0,0,0,0,94,94,122,294.75596833229065,,,,,,,,,,,,,,,,,,,,,,,,,,,,,,,,,,,,,,,,,,,,,,,,,,,,,,,,,,,,,,,,,,,,,,,,,,,,,,,,,185,140,69,121,69,121,2.2,2.22,-226,253,0,-264,217,-272,294.7393128871918,294.7393922805786,294.74248909950256,294.75596833229065,294.90508937835693,294.90508937835693,294.90508937835693,294.90508937835693,294.90508937835693,294.90508937835693,294.90508937835693,295.7028832435608,1,0.938234806060791,None,,,,,,,,,,,,,,,,,,80,4,2025-02-21_13h30.02.136,comp,2024.2.4,55.80032541178693,2025-02-21 13h31.45.100656 -0500,
95,95,0,filler_random,None,None,None,None,None,None,None,None,None,None,3,2.8224833011627197,None,,,,,0,0,0,0,0,95,95,150,295.7188723087311,,,,,,,,,,,,,,,,,,,,,,,,,,,,,,,,,,,,,,,,,,,,,,,,,,,,,,,,,,,,,,,,,,,,,,,,,,,,,,,,,148.0806200885434,69.69721166389219,150.88113793747598,140.70202322772198,151.2476010198115,146.53548839256644,2.2,2.22,-201,289,0,-274,240,-263,295.70448112487793,295.7045569419861,295.7073600292206,295.7188723087311,295.8561861515045,295.8561861515045,295.8561861515045,295.8561861515045,295.8561861515045,295.8561861515045,295.8561861515045,298.5549831390381,3,2.8224833011627197,None,,,,,,,,,,,,,,,,,,80,4,2025-02-21_13h30.02.136,comp,2024.2.4,55.80032541178693,2025-02-21 13h31.45.100656 -0500,
96,96,0,critical,dwh,20.0,3.0,upper,141.0,141.0,125.0,200.0,200.0,125.0,3,1.4347846508026123,None,,,,,0,0,0,0,0,96,96,69,298.5706675052643,,,,,,,,,,,,,,,,,,,,,,,,,,,,,,,,,,,,,,,,,,,,,,,,,,,,,,,,,,,,,,,,,,,,,,,,,,,,,,,,,141.0,141.0,125.0,200.0,200.0,125.0,3.0,3.1,-266,272,0,11,258,-252,298.5564069747925,298.5564811229706,298.55944776535034,298.5706675052643,298.72843313217163,298.72843313217163,298.72843313217163,298.72843313217163,298.72843313217163,298.72843313217163,298.72843313217163,300.0269148349762,3,1.4347846508026123,None,,,,,,,,,,,,,,,,,,80,4,2025-02-21_13h30.02.136,comp,2024.2.4,55.80032541178693,2025-02-21 13h31.45.100656 -0500,
97,97,0,critical,hwd,20.0,4.0,upper,200.0,125.0,125.0,200.0,141.0,141.0,2,1.813833475112915,None,,,,,0,0,0,0,0,97,97,107,300.0474534034729,,,,,,,,,,,,,,,,,,,,,,,,,,,,,,,,,,,,,,,,,,,,,,,,,,,,,,,,,,,,,,,,,,,,,,,,,,,,,,,,,200.0,125.0,125.0,200.0,141.0,141.0,4.0,4.2,-258,-15,0,-278,266,11,300.02853751182556,300.0287296772003,300.03216767311096,300.0474534034729,300.18991780281067,300.18991780281067,300.18991780281067,300.18991780281067,300.18991780281067,300.18991780281067,300.18991780281067,301.8770453929901,2,1.813833475112915,None,,,,,,,,,,,,,,,,,,80,4,2025-02-21_13h30.02.136,comp,2024.2.4,55.80032541178693,2025-02-21 13h31.45.100656 -0500,
98,98,0,critical,dhw,20.0,2.1,lower,78.0,78.0,133.0,57.0,57.0,133.0,3,5.1128106117248535,None,,,,,0,0,0,0,0,98,98,26,301.89253330230713,,,,,,,,,,,,,,,,,,,,,,,,,,,,,,,,,,,,,,,,,,,,,,,,,,,,,,,,,,,,,,,,,,,,,,,,,,,,,,,,,78.0,78.0,133.0,57.0,57.0,133.0,2.1,2.11,-164,266,0,275,191,-273,301.8785545825958,301.8786971569061,301.8823239803314,301.89253330230713,302.0403163433075,302.0403163433075,302.0403163433075,302.0403163433075,302.0403163433075,302.0403163433075,302.0403163433075,307.00919485092163,3,5.1128106117248535,None,,,,,,,,,,,,,,,,,,80,4,2025-02-21_13h30.02.136,comp,2024.2.4,55.80032541178693,2025-02-21 13h31.45.100656 -0500,
99,99,0,critical,wdh,35.0,1.0,upper,125.0,200.0,127.0,127.0,200.0,125.0,1,1.72542405128479,None,,,,,0,0,0,0,0,99,99,73,307.02474093437195,,,,,,,,,,,,,,,,,,,,,,,,,,,,,,,,,,,,,,,,,,,,,,,,,,,,,,,,,,,,,,,,,,,,,,,,,,,,,,,,,125.0,200.0,127.0,127.0,200.0,125.0,1.0,1.3,220,-279,480,-256,702,-281,307.01065731048584,307.0107350349426,307.01404786109924,307.02474093437195,307.17469120025635,307.17469120025635,307.17469120025635,307.17469120025635,307.17469120025635,307.17469120025635,307.17469120025635,308.7555241584778,1,1.72542405128479,None,,,,,,,,,,,,,,,,,,80,4,2025-02-21_13h30.02.136,comp,2024.2.4,55.80032541178693,2025-02-21 13h31.45.100656 -0500,
100,100,0,critical,hwd,35.0,2.1,lower,133.0,57.0,57.0,133.0,70.0,70.0,2,2.769443988800049,None,,,,,0,0,0,0,0,100,100,16,308.77213621139526,,,,,,,,,,,,,,,,,,,,,,,,,,,,,,,,,,,,,,,,,,,,,,,,,,,,,,,,,,,,,,,,,,,,,,,,,,,,,,,,,133.0,57.0,57.0,133.0,70.0,70.0,2.1,2.11,-191,276,0,284,198,-284,308.75700402259827,308.75707936286926,308.75989723205566,308.77213621139526,308.9133622646332,308.9133622646332,308.9133622646332,308.9133622646332,308.9133622646332,308.9133622646332,308.9133622646332,311.54424357414246,2,2.769443988800049,None,,,,,,,,,,,,,,,,,,80,4,2025-02-21_13h30.02.136,comp,2024.2.4,55.80032541178693,2025-02-21 13h31.45.100656 -0500,
101,101,0,critical,wdh,35.0,4.0,upper,125.0,200.0,127.0,127.0,200.0,125.0,3,1.1399238109588623,None,,,,,0,0,0,0,0,101,101,77,311.562216758728,,,,,,,,,,,,,,,,,,,,,,,,,,,,,,,,,,,,,,,,,,,,,,,,,,,,,,,,,,,,,,,,,,,,,,,,,,,,,,,,,125.0,200.0,127.0,127.0,200.0,125.0,4.0,4.1,-260,-284,0,-4,222,-286,311.5458528995514,311.5459282398224,311.5491967201233,311.562216758728,311.70945262908936,311.70945262908936,311.70945262908936,311.70945262908936,311.70945262908936,311.70945262908936,311.70945262908936,312.7100625038147,3,1.1399238109588623,None,,,,,,,,,,,,,,,,,,80,4,2025-02-21_13h30.02.136,comp,2024.2.4,55.80032541178693,2025-02-21 13h31.45.100656 -0500,
102,102,0,filler_random,None,None,None,None,None,None,None,None,None,None,1,1.8632235527038574,None,,,,,0,0,0,0,0,102,102,165,312.72676968574524,,,,,,,,,,,,,,,,,,,,,,,,,,,,,,,,,,,,,,,,,,,,,,,,,,,,,,,,,,,,,,,,,,,,,,,,,,,,,,,,,88.4599386158043,163.7348489845765,100.29000587526744,95.93393348667752,124.7907811078847,81.94799742398065,3.0,3.2,-226,-271,0,-12,185,285,312.71196937561035,312.7120997905731,312.71557879447937,312.72676968574524,312.87686252593994,312.87686252593994,312.87686252593994,312.87686252593994,312.87686252593994,312.87686252593994,312.87686252593994,314.59249091148376,1,1.8632235527038574,None,,,,,,,,,,,,,,,,,,80,4,2025-02-21_13h30.02.136,comp,2024.2.4,55.80032541178693,2025-02-21 13h31.45.100656 -0500,
103,103,0,critical,dhw,20.0,2.1,upper,141.0,141.0,200.0,125.0,125.0,200.0,3,2.2688043117523193,None,,,,,0,0,0,0,0,103,103,27,314.60889863967896,,,,,,,,,,,,,,,,,,,,,,,,,,,,,,,,,,,,,,,,,,,,,,,,,,,,,,,,,,,,,,,,,,,,,,,,,,,,,,,,,141.0,141.0,200.0,125.0,125.0,200.0,2.1,2.12,-229,-253,0,-282,258,288,314.59401082992554,314.5940864086151,314.59725880622864,314.60889863967896,314.7494008541107,314.7494008541107,314.7494008541107,314.7494008541107,314.7494008541107,314.7494008541107,314.7494008541107,316.89203333854675,3,2.2688043117523193,None,,,,,,,,,,,,,,,,,,80,4,2025-02-21_13h30.02.136,comp,2024.2.4,55.80032541178693,2025-02-21 13h31.45.100656 -0500,
104,104,0,catch,None,None,None,None,None,None,None,None,None,None,3,0.8492863178253174,None,,,,,0,0,0,0,0,104,104,129,316.9087278842926,,,,,,,,,,,,,,,,,,,,,,,,,,,,,,,,,,,,,,,,,,,,,,,,,,,,,,,,,,,,,,,,,,,,,,,,,,,,,,,,,113,77,127,63,168,157,3.0,3.2,-166,-288,0,-18,206,255,316.8938467502594,316.8939218521118,316.8967514038086,316.9087278842926,317.0474956035614,317.0474956035614,317.0474956035614,317.0474956035614,317.0474956035614,317.0474956035614,317.0474956035614,317.7630686759949,3,0.8492863178253174,None,,,,,,,,,,,,,,,,,,80,4,2025-02-21_13h30.02.136,comp,2024.2.4,55.80032541178693,2025-02-21 13h31.45.100656 -0500,
105,105,0,critical,hwd,20.0,2.1,upper,200.0,125.0,125.0,200.0,141.0,141.0,2,4.011176824569702,None,,,,,0,0,0,0,0,105,105,43,317.77887535095215,,,,,,,,,,,,,,,,,,,,,,,,,,,,,,,,,,,,,,,,,,,,,,,,,,,,,,,,,,,,,,,,,,,,,,,,,,,,,,,,,200.0,125.0,125.0,200.0,141.0,141.0,2.1,2.12,-258,-270,0,-270,266,283,317.76470851898193,317.76479268074036,317.7682385444641,317.77887535095215,317.92868757247925,317.92868757247925,317.92868757247925,317.92868757247925,317.92868757247925,317.92868757247925,317.92868757247925,321.7975811958313,2,4.011176824569702,None,,,,,,,,,,,,,,,,,,80,4,2025-02-21_13h30.02.136,comp,2024.2.4,55.80032541178693,2025-02-21 13h31.45.100656 -0500,
106,106,0,filler_random,None,None,None,None,None,None,None,None,None,None,3,0.9281497001647949,None,,,,,0,0,0,0,0,106,106,162,321.81329107284546,,,,,,,,,,,,,,,,,,,,,,,,,,,,,,,,,,,,,,,,,,,,,,,,,,,,,,,,,,,,,,,,,,,,,,,,,,,,,,,,,104.61922080592834,143.44899720809912,130.32438463802464,77.57346808782245,182.62005346668502,175.37100870175362,1.0,1.2,-207,14,0,6,222,8,321.7992603778839,321.7993607521057,321.8024787902832,321.81329107284546,321.9648950099945,321.9648950099945,321.9648950099945,321.9648950099945,321.9648950099945,321.9648950099945,321.9648950099945,322.75979256629944,3,0.9281497001647949,None,,,,,,,,,,,,,,,,,,80,4,2025-02-21_13h30.02.136,comp,2024.2.4,55.80032541178693,2025-02-21 13h31.45.100656 -0500,
107,107,0,filler_square,None,None,None,None,None,None,None,None,None,None,2,1.4158363342285156,None,,,,,0,0,0,0,0,107,107,194,322.77467799186707,,,,,,,,,,,,,,,,,,,,,,,,,,,,,,,,,,,,,,,,,,,,,,,,,,,,,,,,,,,,,,,,,,,,,,,,,,,,,,,,,167.61157894145356,139.9187180290584,168.2166717127458,168.2166717127458,164.7350194204571,76.68942610347472,2.1,2.11,-250,257,0,270,218,-263,322.76153540611267,322.7616341114044,322.76443362236023,322.77467799186707,322.91110491752625,322.91110491752625,322.91110491752625,322.91110491752625,322.91110491752625,322.91110491752625,322.91110491752625,324.19834566116333,2,1.4158363342285156,None,,,,,,,,,,,,,,,,,,80,4,2025-02-21_13h30.02.136,comp,2024.2.4,55.80032541178693,2025-02-21 13h31.45.100656 -0500,
108,108,0,filler_random,None,None,None,None,None,None,None,None,None,None,1,1.4614450931549072,None,,,,,0,0,0,0,0,108,108,143,324.2165539264679,,,,,,,,,,,,,,,,,,,,,,,,,,,,,,,,,,,,,,,,,,,,,,,,,,,,,,,,,,,,,,,,,,,,,,,,,,,,,,,,,114.35235222935573,174.43817322948152,59.15848901777117,99.64283760900034,93.31228240151152,184.64840191430153,1.0,1.2,-233,-16,0,-1,238,-20,324.2000913619995,324.20020031929016,324.2034614086151,324.2165539264679,324.3635697364807,324.3635697364807,324.3635697364807,324.3635697364807,324.3635697364807,324.3635697364807,324.3635697364807,325.68134331703186,1,1.4614450931549072,None,,,,,,,,,,,,,,,,,,80,4,2025-02-21_13h30.02.136,comp,2024.2.4,55.80032541178693,2025-02-21 13h31.45.100656 -0500,
109,109,0,filler_square,None,None,None,None,None,None,None,None,None,None,3,1.364351749420166,None,,,,,0,0,0,0,0,109,109,176,325.69704699516296,,,,,,,,,,,,,,,,,,,,,,,,,,,,,,,,,,,,,,,,,,,,,,,,,,,,,,,,,,,,,,,,,,,,,,,,,,,,,,,,,105.9433681270925,125.9335078541274,132.69903476351547,119.17904516467749,144.16554824230133,144.16554824230133,2.2,2.22,-219,282,0,-265,228,-264,325.68315410614014,325.68323254585266,325.68636298179626,325.69704699516296,325.84766936302185,325.84766936302185,325.84766936302185,325.84766936302185,325.84766936302185,325.84766936302185,325.84766936302185,327.07308888435364,3,1.364351749420166,None,,,,,,,,,,,,,,,,,,80,4,2025-02-21_13h30.02.136,comp,2024.2.4,55.80032541178693,2025-02-21 13h31.45.100656 -0500,
110,110,0,critical,hdw,20.0,4.0,lower,133.0,57.0,78.0,78.0,57.0,133.0,3,3.000626564025879,None,,,,,0,0,0,0,0,110,110,118,327.09373021125793,,,,,,,,,,,,,,,,,,,,,,,,,,,,,,,,,,,,,,,,,,,,,,,,,,,,,,,,,,,,,,,,,,,,,,,,,,,,,,,,,133.0,57.0,78.0,78.0,57.0,133.0,4.0,4.2,-164,8,0,-274,202,-9,327.0747036933899,327.07478070259094,327.07803535461426,327.09373021125793,327.23021817207336,327.23021817207336,327.23021817207336,327.23021817207336,327.23021817207336,327.23021817207336,327.23021817207336,330.100900888443,3,3.000626564025879,None,,,,,,,,,,,,,,,,,,80,4,2025-02-21_13h30.02.136,comp,2024.2.4,55.80032541178693,2025-02-21 13h31.45.100656 -0500,
111,111,0,filler_random,None,None,None,None,None,None,None,None,None,None,1,1.7447264194488525,None,,,,,0,0,0,0,0,111,111,166,330.1166479587555,,,,,,,,,,,,,,,,,,,,,,,,,,,,,,,,,,,,,,,,,,,,,,,,,,,,,,,,,,,,,,,,,,,,,,,,,,,,,,,,,156.80303280785415,115.85903483358084,117.14939894837397,121.88233588044655,125.55810103505317,88.58877038964968,4.0,4.2,-215,3,0,-276,201,-18,330.1027317047119,330.10280990600586,330.10597467422485,330.1166479587555,330.2744755744934,330.2744755744934,330.2744755744934,330.2744755744934,330.2744755744934,330.2744755744934,330.2744755744934,331.8729655742645,1,1.7447264194488525,None,,,,,,,,,,,,,,,,,,80,4,2025-02-21_13h30.02.136,comp,2024.2.4,55.80032541178693,2025-02-21 13h31.45.100656 -0500,
112,112,0,filler_random,None,None,None,None,None,None,None,None,None,None,2,3.3811886310577393,None,,,,,0,0,0,0,0,112,112,155,331.8882749080658,,,,,,,,,,,,,,,,,,,,,,,,,,,,,,,,,,,,,,,,,,,,,,,,,,,,,,,,,,,,,,,,,,,,,,,,,,,,,,,,,89.47121826721592,135.3073856501092,179.5017730838107,58.82730118163734,91.2695139189698,101.48330957752074,4.0,4.2,-193,-18,0,-269,176,7,331.87463879585266,331.87471532821655,331.87751030921936,331.8882749080658,332.0330286026001,332.0330286026001,332.0330286026001,332.0330286026001,332.0330286026001,332.0330286026001,332.0330286026001,335.28775358200073,2,3.3811886310577393,None,,,,,,,,,,,,,,,,,,80,4,2025-02-21_13h30.02.136,comp,2024.2.4,55.80032541178693,2025-02-21 13h31.45.100656 -0500,
113,113,0,filler_random,None,None,None,None,None,None,None,None,None,None,3,2.9230704307556152,None,,,,,0,0,0,0,0,113,113,153,335.30677700042725,,,,,,,,,,,,,,,,,,,,,,,,,,,,,,,,,,,,,,,,,,,,,,,,,,,,,,,,,,,,,,,,,,,,,,,,,,,,,,,,,165.02845295778232,127.58810405953895,179.1516747214862,121.37998247419416,136.0823895794397,175.26155382443446,3.0,3.2,-220,-254,0,9,244,287,335.28953528404236,335.2896797657013,335.29297399520874,335.30677700042725,335.45137119293213,335.45137119293213,335.45137119293213,335.45137119293213,335.45137119293213,335.45137119293213,335.45137119293213,338.2322118282318,3,2.9230704307556152,None,,,,,,,,,,,,,,,,,,80,4,2025-02-21_13h30.02.136,comp,2024.2.4,55.80032541178693,2025-02-21 13h31.45.100656 -0500,
114,114,0,filler_random,None,None,None,None,None,None,None,None,None,None,3,0.9579849243164062,None,,,,,0,0,0,0,0,114,114,136,338.24933338165283,,,,,,,,,,,,,,,,,,,,,,,,,,,,,,,,,,,,,,,,,,,,,,,,,,,,,,,,,,,,,,,,,,,,,,,,,,,,,,,,,117.46674614713032,95.64661420257525,169.91456543804563,95.39328246471044,169.34651841141252,171.192788292298,1.0,1.2,-192,-18,0,1,229,2,338.2337529659271,338.23382782936096,338.23664808273315,338.24933338165283,338.3848659992218,338.3848659992218,338.3848659992218,338.3848659992218,338.3848659992218,338.3848659992218,338.3848659992218,339.2183539867401,3,0.9579849243164062,None,,,,,,,,,,,,,,,,,,80,4,2025-02-21_13h30.02.136,comp,2024.2.4,55.80032541178693,2025-02-21 13h31.45.100656 -0500,
115,115,0,filler_random,None,None,None,None,None,None,None,None,None,None,3,2.7642879486083984,None,,,,,0,0,0,0,0,115,115,164,339.2340624332428,,,,,,,,,,,,,,,,,,,,,,,,,,,,,,,,,,,,,,,,,,,,,,,,,,,,,,,,,,,,,,,,,,,,,,,,,,,,,,,,,120.64316143947052,140.56929412678727,102.09775103154196,96.45400642886736,118.73118261744652,145.37674655921603,4.0,4.2,-215,-11,0,-281,217,15,339.2200515270233,339.2201292514801,339.2234959602356,339.2340624332428,339.38843989372253,339.38843989372253,339.38843989372253,339.38843989372253,339.38843989372253,339.38843989372253,339.38843989372253,342.0024161338806,3,2.7642879486083984,None,,,,,,,,,,,,,,,,,,80,4,2025-02-21_13h30.02.136,comp,2024.2.4,55.80032541178693,2025-02-21 13h31.45.100656 -0500,
116,116,0,filler_random,None,None,None,None,None,None,None,None,None,None,1,1.0984461307525635,None,,,,,0,0,0,0,0,116,116,141,342.0192403793335,,,,,,,,,,,,,,,,,,,,,,,,,,,,,,,,,,,,,,,,,,,,,,,,,,,,,,,,,,,,,,,,,,,,,,,,,,,,,,,,,187.36447807579557,194.94523925433913,89.96677136999885,158.90335786661728,141.89264375775377,158.89042814080614,2.2,2.22,-273,257,0,-251,255,-283,342.00410866737366,342.00418496131897,342.0082473754883,342.0192403793335,342.17237544059753,342.17237544059753,342.17237544059753,342.17237544059753,342.17237544059753,342.17237544059753,342.17237544059753,343.12221455574036,1,1.0984461307525635,None,,,,,,,,,,,,,,,,,,80,4,2025-02-21_13h30.02.136,comp,2024.2.4,55.80032541178693,2025-02-21 13h31.45.100656 -0500,
117,117,0,filler_random,None,None,None,None,None,None,None,None,None,None,3,1.9672596454620361,None,,,,,0,0,0,0,0,117,117,145,343.1423478126526,,,,,,,,,,,,,,,,,,,,,,,,,,,,,,,,,,,,,,,,,,,,,,,,,,,,,,,,,,,,,,,,,,,,,,,,,,,,,,,,,105.00951328252091,151.52556090992977,111.53964575782817,174.50024581468492,148.55195224143012,145.9884484174409,1.0,1.2,-259,-12,0,12,256,-3,343.1241183280945,343.12419986724854,343.1274027824402,343.1423478126526,343.28675365448,343.28675365448,343.28675365448,343.28675365448,343.28675365448,343.28675365448,343.28675365448,345.1191806793213,3,1.9672596454620361,None,,,,,,,,,,,,,,,,,,80,4,2025-02-21_13h30.02.136,comp,2024.2.4,55.80032541178693,2025-02-21 13h31.45.100656 -0500,
118,118,0,critical,dhw,20.0,1.0,lower,78.0,78.0,133.0,57.0,57.0,133.0,3,2.4303154945373535,None,,,,,0,0,0,0,0,118,118,54,345.1358199119568,,,,,,,,,,,,,,,,,,,,,,,,,,,,,,,,,,,,,,,,,,,,,,,,,,,,,,,,,,,,,,,,,,,,,,,,,,,,,,,,,78.0,78.0,133.0,57.0,57.0,133.0,1.0,1.1,-644,253,-480,276,-289,261,345.1208531856537,345.12092900276184,345.12437415122986,345.1358199119568,345.28553223609924,345.28553223609924,345.28553223609924,345.28553223609924,345.28553223609924,345.28553223609924,345.28553223609924,347.5741150379181,3,2.4303154945373535,None,,,,,,,,,,,,,,,,,,80,4,2025-02-21_13h30.02.136,comp,2024.2.4,55.80032541178693,2025-02-21 13h31.45.100656 -0500,
119,119,0,filler_square,None,None,None,None,None,None,None,None,None,None,1,2.155576467514038,None,,,,,0,0,0,0,0,119,119,201,347.59448051452637,,,,,,,,,,,,,,,,,,,,,,,,,,,,,,,,,,,,,,,,,,,,,,,,,,,,,,,,,,,,,,,,,,,,,,,,,,,,,,,,,86.42513875400411,86.42513875400411,78.80947593126449,69.352066833927,76.2564077646928,66.13104449636558,1.0,1.2,-174,17,0,-9,164,-16,347.5760486125946,347.5761282444,347.57898783683777,347.59448051452637,347.7386622428894,347.7386622428894,347.7386622428894,347.7386622428894,347.7386622428894,347.7386622428894,347.7386622428894,349.7582335472107,1,2.155576467514038,None,,,,,,,,,,,,,,,,,,80,4,2025-02-21_13h30.02.136,comp,2024.2.4,55.80032541178693,2025-02-21 13h31.45.100656 -0500,
120,120,0,catch,None,None,None,None,None,None,None,None,None,None,1,1.1145970821380615,None,,,,,0,0,0,0,0,120,120,123,349.778767824173,,,,,,,,,,,,,,,,,,,,,,,,,,,,,,,,,,,,,,,,,,,,,,,,,,,,,,,,,,,,,,,,,,,,,,,,,,,,,,,,,194,131,120,70,126,64,1.0,1.3,284,-264,480,-253,643,-278,349.7602159976959,349.76029443740845,349.7632372379303,349.778767824173,349.92320013046265,349.92320013046265,349.92320013046265,349.92320013046265,349.92320013046265,349.92320013046265,349.92320013046265,350.90428709983826,1,1.1145970821380615,None,,,,,,,,,,,,,,,,,,80,4,2025-02-21_13h30.02.136,comp,2024.2.4,55.80032541178693,2025-02-21 13h31.45.100656 -0500,
121,121,0,filler_random,None,None,None,None,None,None,None,None,None,None,3,1.0601718425750732,None,,,,,0,0,0,0,0,121,121,157,350.92127108573914,,,,,,,,,,,,,,,,,,,,,,,,,,,,,,,,,,,,,,,,,,,,,,,,,,,,,,,,,,,,,,,,,,,,,,,,,,,,,,,,,168.29427499696936,149.18874077591244,82.73330677324526,131.06312196512408,182.04084407639328,137.68390954041436,3.0,3.1,-236,279,0,-6,230,-261,350.90608167648315,350.90621733665466,350.909464597702,350.92127108573914,351.0715093612671,351.0715093612671,351.0715093612671,351.0715093612671,351.0715093612671,351.0715093612671,351.0715093612671,351.9956727027893,3,1.0601718425750732,None,,,,,,,,,,,,,,,,,,80,4,2025-02-21_13h30.02.136,comp,2024.2.4,55.80032541178693,2025-02-21 13h31.45.100656 -0500,
122,122,0,critical,dhw,35.0,2.1,lower,70.0,70.0,133.0,57.0,57.0,133.0,2,2.0193393230438232,None,,,,,0,0,0,0,0,122,122,24,352.01087260246277,,,,,,,,,,,,,,,,,,,,,,,,,,,,,,,,,,,,,,,,,,,,,,,,,,,,,,,,,,,,,,,,,,,,,,,,,,,,,,,,,70.0,70.0,133.0,57.0,57.0,133.0,2.1,2.11,-160,280,0,261,191,-274,351.99714756011963,351.9972231388092,352.0000534057617,352.01087260246277,352.15236258506775,352.15236258506775,352.15236258506775,352.15236258506775,352.15236258506775,352.15236258506775,352.15236258506775,354.03974962234497,2,2.0193393230438232,None,,,,,,,,,,,,,,,,,,80,4,2025-02-21_13h30.02.136,comp,2024.2.4,55.80032541178693,2025-02-21 13h31.45.100656 -0500,
123,123,0,filler_square,None,None,None,None,None,None,None,None,None,None,1,1.2943365573883057,None,,,,,0,0,0,0,0,123,123,175,354.05564522743225,,,,,,,,,,,,,,,,,,,,,,,,,,,,,,,,,,,,,,,,,,,,,,,,,,,,,,,,,,,,,,,,,,,,,,,,,,,,,,,,,159.9305679199992,159.9305679199992,119.98948510919428,123.7584237987253,75.95877245148495,138.51690507438386,2.2,2.22,-238,289,0,-261,227,-270,354.0415780544281,354.0416991710663,354.0450336933136,354.05564522743225,354.2063105106354,354.2063105106354,354.2063105106354,354.2063105106354,354.2063105106354,354.2063105106354,354.2063105106354,355.35809683799744,1,1.2943365573883057,None,,,,,,,,,,,,,,,,,,80,4,2025-02-21_13h30.02.136,comp,2024.2.4,55.80032541178693,2025-02-21 13h31.45.100656 -0500,
124,124,0,critical,hdw,35.0,1.0,upper,200.0,125.0,127.0,127.0,125.0,200.0,3,1.2238266468048096,None,,,,,0,0,0,0,0,124,124,109,355.373615026474,,,,,,,,,,,,,,,,,,,,,,,,,,,,,,,,,,,,,,,,,,,,,,,,,,,,,,,,,,,,,,,,,,,,,,,,,,,,,,,,,200.0,125.0,127.0,127.0,125.0,200.0,1.0,1.2,-222,-12,0,-4,260,13,355.35969853401184,355.3597767353058,355.36304235458374,355.373615026474,355.5316524505615,355.5316524505615,355.5316524505615,355.5316524505615,355.5316524505615,355.5316524505615,355.5316524505615,356.60739755630493,3,1.2238266468048096,None,,,,,,,,,,,,,,,,,,80,4,2025-02-21_13h30.02.136,comp,2024.2.4,55.80032541178693,2025-02-21 13h31.45.100656 -0500,
125,125,0,filler_square,None,None,None,None,None,None,None,None,None,None,3,1.0780794620513916,None,,,,,0,0,0,0,0,125,125,188,356.62407636642456,,,,,,,,,,,,,,,,,,,,,,,,,,,,,,,,,,,,,,,,,,,,,,,,,,,,,,,,,,,,,,,,,,,,,,,,,,,,,,,,,59.53166619671953,133.4869260328655,105.95406430712382,111.4915530971684,134.35138967835763,134.35138967835763,3.0,3.2,-218,-286,0,9,219,256,356.60918045043945,356.60925698280334,356.6133887767792,356.62407636642456,356.7730505466461,356.7730505466461,356.7730505466461,356.7730505466461,356.7730505466461,356.7730505466461,356.7730505466461,357.7093620300293,3,1.0780794620513916,None,,,,,,,,,,,,,,,,,,80,4,2025-02-21_13h30.02.136,comp,2024.2.4,55.80032541178693,2025-02-21 13h31.45.100656 -0500,
126,126,0,critical,wdh,20.0,4.0,lower,57.0,133.0,78.0,78.0,133.0,57.0,3,1.3277089595794678,None,,,,,0,0,0,0,0,126,126,82,357.7256877422333,,,,,,,,,,,,,,,,,,,,,,,,,,,,,,,,,,,,,,,,,,,,,,,,,,,,,,,,,,,,,,,,,,,,,,,,,,,,,,,,,57.0,133.0,78.0,78.0,133.0,57.0,4.0,4.1,-202,-274,0,15,164,-263,357.7111256122589,357.71125650405884,357.7146728038788,357.7256877422333,357.8749189376831,357.8749189376831,357.8749189376831,357.8749189376831,357.8749189376831,357.8749189376831,357.8749189376831,359.06513261795044,3,1.3277089595794678,None,,,,,,,,,,,,,,,,,,80,4,2025-02-21_13h30.02.136,comp,2024.2.4,55.80032541178693,2025-02-21 13h31.45.100656 -0500,
127,127,0,critical,whd,35.0,2.1,lower,57.0,133.0,133.0,57.0,70.0,70.0,2,1.996412992477417,None,,,,,0,0,0,0,0,127,127,12,359.0810866355896,,,,,,,,,,,,,,,,,,,,,,,,,,,,,,,,,,,,,,,,,,,,,,,,,,,,,,,,,,,,,,,,,,,,,,,,,,,,,,,,,57.0,133.0,133.0,57.0,70.0,70.0,2.1,2.11,-191,279,0,284,160,-261,359.06663632392883,359.0667133331299,359.0695478916168,359.0810866355896,359.22501373291016,359.22501373291016,359.22501373291016,359.22501373291016,359.22501373291016,359.22501373291016,359.22501373291016,361.0903000831604,2,1.996412992477417,None,,,,,,,,,,,,,,,,,,80,4,2025-02-21_13h30.02.136,comp,2024.2.4,55.80032541178693,2025-02-21 13h31.45.100656 -0500,
128,128,0,filler_random,None,None,None,None,None,None,None,None,None,None,1,3.5957436561584473,None,,,,,0,0,0,0,0,128,128,159,361.106388092041,,,,,,,,,,,,,,,,,,,,,,,,,,,,,,,,,,,,,,,,,,,,,,,,,,,,,,,,,,,,,,,,,,,,,,,,,,,,,,,,,89.67965197499066,191.25114959874648,100.47861246513091,110.72462493460057,75.6202385509874,116.36919460077806,4.0,4.1,-247,-279,0,-8,210,-290,361.0919785499573,361.0920536518097,361.09515714645386,361.106388092041,361.2602164745331,361.2602164745331,361.2602164745331,361.2602164745331,361.2602164745331,361.2602164745331,361.2602164745331,364.7094497680664,1,3.5957436561584473,None,,,,,,,,,,,,,,,,,,80,4,2025-02-21_13h30.02.136,comp,2024.2.4,55.80032541178693,2025-02-21 13h31.45.100656 -0500,
129,129,0,critical,whd,20.0,2.1,lower,57.0,133.0,133.0,57.0,78.0,78.0,2,1.3362400531768799,None,,,,,0,0,0,0,0,129,129,38,364.7254569530487,,,,,,,,,,,,,,,,,,,,,,,,,,,,,,,,,,,,,,,,,,,,,,,,,,,,,,,,,,,,,,,,,,,,,,,,,,,,,,,,,57.0,133.0,133.0,57.0,78.0,78.0,2.1,2.12,-191,-263,0,-279,164,288,364.7109923362732,364.7110695838928,364.7143888473511,364.7254569530487,364.8744912147522,364.8744912147522,364.8744912147522,364.8744912147522,364.8744912147522,364.8744912147522,364.8744912147522,366.0643789768219,2,1.3362400531768799,None,,,,,,,,,,,,,,,,,,80,4,2025-02-21_13h30.02.136,comp,2024.2.4,55.80032541178693,2025-02-21 13h31.45.100656 -0500,
130,130,0,filler_square,None,None,None,None,None,None,None,None,None,None,3,1.1206614971160889,None,,,,,0,0,0,0,0,130,130,170,366.0853831768036,,,,,,,,,,,,,,,,,,,,,,,,,,,,,,,,,,,,,,,,,,,,,,,,,,,,,,,,,,,,,,,,,,,,,,,,,,,,,,,,,159.51986996217192,147.31547417057465,129.81796673580462,105.930962038223,183.2209489393802,183.2209489393802,4.0,4.1,-223,-282,0,-19,241,-254,366.06632471084595,366.0664565563202,366.06965804100037,366.0853831768036,366.22731733322144,366.22731733322144,366.22731733322144,366.22731733322144,366.22731733322144,366.22731733322144,366.22731733322144,367.21150636672974,3,1.1206614971160889,None,,,,,,,,,,,,,,,,,,80,4,2025-02-21_13h30.02.136,comp,2024.2.4,55.80032541178693,2025-02-21 13h31.45.100656 -0500,
131,131,0,critical,dhw,35.0,2.1,lower,70.0,70.0,133.0,57.0,57.0,133.0,2,1.1465339660644531,None,,,,,0,0,0,0,0,131,131,0,367.22753381729126,,,,,,,,,,,,,,,,,,,,,,,,,,,,,,,,,,,,,,,,,,,,,,,,,,,,,,,,,,,,,,,,,,,,,,,,,,,,,,,,,70.0,70.0,133.0,57.0,57.0,133.0,2.1,2.12,-160,-267,0,-256,191,278,367.2131497859955,367.21323680877686,367.21666717529297,367.22753381729126,367.3827202320099,367.3827202320099,367.3827202320099,367.3827202320099,367.3827202320099,367.3827202320099,367.3827202320099,368.37755036354065,2,1.1465339660644531,None,,,,,,,,,,,,,,,,,,80,4,2025-02-21_13h30.02.136,comp,2024.2.4,55.80032541178693,2025-02-21 13h31.45.100656 -0500,
132,132,0,critical,hwd,20.0,2.1,lower,133.0,57.0,57.0,133.0,78.0,78.0,2,1.6752674579620361,None,,,,,0,0,0,0,0,132,132,18,368.3948905467987,,,,,,,,,,,,,,,,,,,,,,,,,,,,,,,,,,,,,,,,,,,,,,,,,,,,,,,,,,,,,,,,,,,,,,,,,,,,,,,,,133.0,57.0,57.0,133.0,78.0,78.0,2.1,2.11,-191,276,0,272,202,-272,368.37921714782715,368.3793113231659,368.3834583759308,368.3948905467987,368.5440661907196,368.5440661907196,368.5440661907196,368.5440661907196,368.5440661907196,368.5440661907196,368.5440661907196,370.0789933204651,2,1.6752674579620361,None,,,,,,,,,,,,,,,,,,80,4,2025-02-21_13h30.02.136,comp,2024.2.4,55.80032541178693,2025-02-21 13h31.45.100656 -0500,
133,133,0,critical,wdh,20.0,2.1,lower,57.0,133.0,78.0,78.0,133.0,57.0,3,1.4143028259277344,None,,,,,0,0,0,0,0,133,133,34,370.0957016944885,,,,,,,,,,,,,,,,,,,,,,,,,,,,,,,,,,,,,,,,,,,,,,,,,,,,,,,,,,,,,,,,,,,,,,,,,,,,,,,,,57.0,133.0,78.0,78.0,133.0,57.0,2.1,2.12,-202,-266,0,-275,164,269,370.0805096626282,370.08058524131775,370.0839340686798,370.0957016944885,370.24458861351013,370.24458861351013,370.24458861351013,370.24458861351013,370.24458861351013,370.24458861351013,370.24458861351013,371.5189514160156,3,1.4143028259277344,None,,,,,,,,,,,,,,,,,,80,4,2025-02-21_13h30.02.136,comp,2024.2.4,55.80032541178693,2025-02-21 13h31.45.100656 -0500,
134,134,0,critical,dwh,35.0,4.0,upper,127.0,127.0,125.0,200.0,200.0,125.0,3,1.0118703842163086,None,,,,,0,0,0,0,0,134,134,65,371.5375294685364,,,,,,,,,,,,,,,,,,,,,,,,,,,,,,,,,,,,,,,,,,,,,,,,,,,,,,,,,,,,,,,,,,,,,,,,,,,,,,,,,127.0,127.0,125.0,200.0,200.0,125.0,4.0,4.2,-260,7,0,-260,258,-12,371.52042603492737,371.5205030441284,371.523357629776,371.5375294685364,371.6743063926697,371.6743063926697,371.6743063926697,371.6743063926697,371.6743063926697,371.6743063926697,371.6743063926697,372.5640592575073,3,1.0118703842163086,None,,,,,,,,,,,,,,,,,,80,4,2025-02-21_13h30.02.136,comp,2024.2.4,55.80032541178693,2025-02-21 13h31.45.100656 -0500,
135,135,0,critical,whd,20.0,3.0,lower,57.0,133.0,133.0,57.0,78.0,78.0,2,1.3864152431488037,None,,,,,0,0,0,0,0,135,135,92,372.57924604415894,,,,,,,,,,,,,,,,,,,,,,,,,,,,,,,,,,,,,,,,,,,,,,,,,,,,,,,,,,,,,,,,,,,,,,,,,,,,,,,,,57.0,133.0,133.0,57.0,78.0,78.0,3.0,3.1,-191,275,0,18,164,-264,372.5655529499054,372.56564950942993,372.56866431236267,372.57924604415894,372.7277944087982,372.7277944087982,372.7277944087982,372.7277944087982,372.7277944087982,372.7277944087982,372.7277944087982,373.9797053337097,2,1.3864152431488037,None,,,,,,,,,,,,,,,,,,80,4,2025-02-21_13h30.02.136,comp,2024.2.4,55.80032541178693,2025-02-21 13h31.45.100656 -0500,
136,136,0,filler_square,None,None,None,None,None,None,None,None,None,None,3,0.8735172748565674,None,,,,,0,0,0,0,0,136,136,177,373.9959046840668,,,,,,,,,,,,,,,,,,,,,,,,,,,,,,,,,,,,,,,,,,,,,,,,,,,,,,,,,,,,,,,,,,,,,,,,,,,,,,,,,141.23102583770273,86.44162061573341,61.8661008392836,133.2598708005027,188.4245757083085,188.4245757083085,2.2,2.22,-206,253,0,-277,257,-282,373.98182821273804,373.981906414032,373.98564863204956,373.9959046840668,374.14884638786316,374.14884638786316,374.14884638786316,374.14884638786316,374.14884638786316,374.14884638786316,374.14884638786316,374.8828229904175,3,0.8735172748565674,None,,,,,,,,,,,,,,,,,,80,4,2025-02-21_13h30.02.136,comp,2024.2.4,55.80032541178693,2025-02-21 13h31.45.100656 -0500,
137,137,0,filler_random,None,None,None,None,None,None,None,None,None,None,3,0.70676589012146,None,,,,,0,0,0,0,0,137,137,146,374.899258852005,,,,,,,,,,,,,,,,,,,,,,,,,,,,,,,,,,,,,,,,,,,,,,,,,,,,,,,,,,,,,,,,,,,,,,,,,,,,,,,,,68.42498708462155,67.00314528631517,102.24794725013578,69.45094293443515,199.69500573792465,127.19511256974883,1.0,1.2,-164,-10,0,-8,194,-6,374.88470578193665,374.8848340511322,374.88808512687683,374.899258852005,375.0471143722534,375.0471143722534,375.0471143722534,375.0471143722534,375.0471143722534,375.0471143722534,375.0471143722534,375.61017990112305,3,0.70676589012146,None,,,,,,,,,,,,,,,,,,80,4,2025-02-21_13h30.02.136,comp,2024.2.4,55.80032541178693,2025-02-21 13h31.45.100656 -0500,
138,138,0,filler_random,None,None,None,None,None,None,None,None,None,None,3,0.7699971199035645,None,,,,,0,0,0,0,0,138,138,140,375.6275124549866,,,,,,,,,,,,,,,,,,,,,,,,,,,,,,,,,,,,,,,,,,,,,,,,,,,,,,,,,,,,,,,,,,,,,,,,,,,,,,,,,58.664430658897395,63.38358779938193,69.64261365868511,171.9804263783271,197.63410231278488,155.0476523392481,3.0,3.2,-214,-255,0,20,260,273,375.6119067668915,375.61199045181274,375.61520981788635,375.6275124549866,375.7639422416687,375.7639422416687,375.7639422416687,375.7639422416687,375.7639422416687,375.7639422416687,375.7639422416687,376.41173458099365,3,0.7699971199035645,None,,,,,,,,,,,,,,,,,,80,4,2025-02-21_13h30.02.136,comp,2024.2.4,55.80032541178693,2025-02-21 13h31.45.100656 -0500,
139,139,0,critical,dwh,20.0,1.0,lower,78.0,78.0,57.0,133.0,133.0,57.0,3,2.418456554412842,None,,,,,0,0,0,0,0,139,139,66,376.4274778366089,,,,,,,,,,,,,,,,,,,,,,,,,,,,,,,,,,,,,,,,,,,,,,,,,,,,,,,,,,,,,,,,,,,,,,,,,,,,,,,,,78.0,78.0,57.0,133.0,133.0,57.0,1.0,1.3,278,-264,480,-288,671,-288,376.41318583488464,376.4132590293884,376.41609263420105,376.4274778366089,376.57745361328125,376.57745361328125,376.57745361328125,376.57745361328125,376.57745361328125,376.57745361328125,376.57745361328125,378.8630964756012,3,2.418456554412842,None,,,,,,,,,,,,,,,,,,80,4,2025-02-21_13h30.02.136,comp,2024.2.4,55.80032541178693,2025-02-21 13h31.45.100656 -0500,
