thisN,thisTrialN,thisRepN,effect,order,distance,config,diag,h_1,w_1,h_2,w_2,h_3,w_3,rect_choice.keys,rect_choice.rt,rect_choice.duration,instructions_loop.thisRepN,instructions_loop.thisTrialN,instructions_loop.thisN,instructions_loop.thisIndex,blocks.thisRepN,blocks.thisTrialN,blocks.thisN,blocks.thisIndex,trials.thisRepN,trials.thisTrialN,trials.thisN,trials.thisIndex,thisRow.t,notes,consent.started,agree_button.started,decline_button.started,consent_img.started,mouse.started,consent.stopped,agree_button.numClicks,agree_button.timesOn,agree_button.timesOff,decline_button.numClicks,decline_button.timesOn,decline_button.timesOff,mouse.x,mouse.y,mouse.leftButton,mouse.midButton,mouse.rightButton,mouse.time,mouse.clicked_name,exp_params.started,exp_params.stopped,welcome.started,welcome_text.started,welcome.stopped,instructions_1.started,instructions_1_text_1.started,instructions_1_text_2.started,key_resp.started,instructions_1.stopped,instructions_loop.key_resp.keys,instructions_loop.key_resp.rt,instructions_loop.key_resp.duration,instructions_2.started,instructions_2_text_1.started,instructions_2_text_2.started,key_resp_2.started,instructions_2.stopped,instructions_loop.key_resp_2.keys,instructions_loop.key_resp_2.rt,instructions_loop.key_resp_2.duration,instructions_3.started,instructions_3_text_1.started,r1_instr3.started,r2_instr3.started,r3_instr3.started,r1_instr3_label.started,r2_instr3_label.started,r3_instr3_label.started,instructions_3_text_3.started,instructions_3_text_4.started,key_resp_3.started,instructions_3.stopped,instructions_loop.key_resp_3.keys,instructions_loop.key_resp_3.rt,instructions_loop.key_resp_3.duration,instructions_4.started,instructions_4_text_1.started,instructions_4_text_3.started,instructions_4_text_2.started,key_resp_4.started,instructions_4.stopped,instructions_loop.key_resp_4.keys,instructions_loop.key_resp_4.rt,instructions_loop.key_resp_4.duration,instructions_5.started,instructions_5_text_1.started,instructions_5_text_2.started,key_resp_5.started,instructions_5.stopped,instructions_loop.key_resp_5.keys,instructions_loop.key_resp_5.rt,instructions_loop.key_resp_5.duration,start_exp.started,start_exp_text.started,key_resp_6.started,start_exp.stopped,key_resp_6.keys,key_resp_6.rt,key_resp_6.duration,h_1_tmp,w_1_tmp,h_2_tmp,w_2_tmp,h_3_tmp,w_3_tmp,config_tmp,config_tmp_1,r_1_x,r_1_y,r_2_x,r_2_y,r_3_x,r_3_y,pre_trial.started,pre_trial.stopped,choice_trial.started,rect_choice.started,r_1.started,r_2.started,r_3.started,r_1_label.started,r_2_label.started,r_3_label.started,prompt.started,choice_trial.stopped,trials.rect_choice.keys,trials.rect_choice.rt,trials.rect_choice.duration,end_block.started,end_block_text.started,end_block.stopped,end.started,end_text.started,key_resp_7.started,end.stopped,key_resp_7.keys,key_resp_7.rt,key_resp_7.duration,debriefing.started,debrief_form.started,end_debrief.started,debriefing.stopped,end_debrief.keys,end_debrief.rt,end_debrief.duration,participant,computer,date,expName,psychopyVersion,frameRate,expStart,
,,,,,,,,,,,,,,,,,,,,,,,,,,,,,,,0.014737367630004883,0.03882265090942383,0.03882265090942383,0.03882265090942383,0.01452946662902832,61.777416467666626,0,,,0,,,[-64.0],[-497.0],[1],[0],[0],[61.76215410232544],['agree_button'],,,,,,,,,,,,,,,,,,,,,,,,,,,,,,,,,,,,,,,,,,,,,,,,,,,,,,,,,,,,,,,,,,,,,,,,,,,,,,,,,,,,,,,,,,,,,,,,,,,,,,,,,,,82,1,2025-02-21_14h55.37.920,comp,2024.2.4,57.22894969156733,2025-02-21 14h55.53.443660 -0500,
,,,,,,,,,,,,,,,,,,,,,,,,,,,,,,,,,,,,,,,,,,,,,,,,,,61.77769947052002,61.777743339538574,,,,,,,,,,,,,,,,,,,,,,,,,,,,,,,,,,,,,,,,,,,,,,,,,,,,,,,,,,,,,,,,,,,,,,,,,,,,,,,,,,,,,,,,,,,,,,,,,,,,,,,,,82,1,2025-02-21_14h55.37.920,comp,2024.2.4,57.22894969156733,2025-02-21 14h55.53.443660 -0500,
,,,,,,,,,,,,,,,,,,,,,,,,,,,,,,,,,,,,,,,,,,,,,,,,,,,,61.77777147293091,61.79025888442993,63.786266565322876,,,,,,,,,,,,,,,,,,,,,,,,,,,,,,,,,,,,,,,,,,,,,,,,,,,,,,,,,,,,,,,,,,,,,,,,,,,,,,,,,,,,,,,,,,,,,,,,,,,,,,82,1,2025-02-21_14h55.37.920,comp,2024.2.4,57.22894969156733,2025-02-21 14h55.53.443660 -0500,
0,0,0,,,,,,,,,,,,,,,0,0,0,0,,,,,,,,,63.80182361602783,,,,,,,,,,,,,,,,,,,,,,,,,,63.78728222846985,63.80182361602783,63.80182361602783,65.28146076202393,66.83360314369202,space,1.5335874557495117,None,66.83374977111816,66.84896683692932,66.84896683692932,68.33262228965759,70.55127716064453,space,2.202639579772949,None,70.551429271698,70.58075785636902,70.58075785636902,70.58075785636902,70.58075785636902,70.58075785636902,70.58075785636902,70.58075785636902,70.58075785636902,70.58075785636902,72.05149912834167,74.92874312400818,space,2.8677477836608887,None,74.92889618873596,74.94627618789673,74.94627618789673,74.94627618789673,76.43402147293091,79.90471625328064,space,3.461864948272705,None,79.90486645698547,79.91954922676086,79.91954922676086,81.41812324523926,81.58918833732605,space,0.15720129013061523,None,81.5894067287445,81.60354328155518,81.60354328155518,82.47168254852295,space,0.8601300716400146,None,,,,,,,,,,,,,,,,,,,,,,,,,,,,,,,,,,,,,,,,,,,,,,,82,1,2025-02-21_14h55.37.920,comp,2024.2.4,57.22894969156733,2025-02-21 14h55.53.443660 -0500,
0,0,0,critical,hwd,20.0,1.0,upper,200.0,125.0,125.0,200.0,141.0,141.0,3,15.306549310684204,None,,,,,0,0,0,0,0,0,0,103,82.54913640022278,,,,,,,,,,,,,,,,,,,,,,,,,,,,,,,,,,,,,,,,,,,,,,,,,,,,,,,,,,,,,,,,,,,,,,,,,,,,,,,,,200.0,125.0,125.0,200.0,141.0,141.0,1.0,1.3,222,-271,480,-287,746,-252,82.53330993652344,82.53334736824036,82.53489232063293,82.54913640022278,82.69646573066711,82.69646573066711,82.69646573066711,82.69646573066711,82.69646573066711,82.69646573066711,82.69646573066711,97.85817623138428,3,15.306549310684204,None,,,,,,,,,,,,,,,,,,82,1,2025-02-21_14h55.37.920,comp,2024.2.4,57.22894969156733,2025-02-21 14h55.53.443660 -0500,
1,1,0,filler_square,None,None,None,None,None,None,None,None,None,None,3,2.2113776206970215,None,,,,,0,0,0,0,0,1,1,177,97.87627911567688,,,,,,,,,,,,,,,,,,,,,,,,,,,,,,,,,,,,,,,,,,,,,,,,,,,,,,,,,,,,,,,,,,,,,,,,,,,,,,,,,60.55149152925201,177.71867557866054,174.175454349085,74.6228059496313,186.94637883873077,186.94637883873077,3.0,3.2,-222,-274,0,-5,227,264,97.86013531684875,97.86026406288147,97.86419320106506,97.87627911567688,98.02780938148499,98.02780938148499,98.02780938148499,98.02780938148499,98.02780938148499,98.02780938148499,98.02780938148499,100.09404826164246,3,2.2113776206970215,None,,,,,,,,,,,,,,,,,,82,1,2025-02-21_14h55.37.920,comp,2024.2.4,57.22894969156733,2025-02-21 14h55.53.443660 -0500,
2,2,0,critical,hwd,35.0,4.0,lower,133.0,57.0,57.0,133.0,70.0,70.0,1,7.584453821182251,None,,,,,0,0,0,0,0,2,2,100,100.11076045036316,,,,,,,,,,,,,,,,,,,,,,,,,,,,,,,,,,,,,,,,,,,,,,,,,,,,,,,,,,,,,,,,,,,,,,,,,,,,,,,,,133.0,57.0,57.0,133.0,70.0,70.0,4.0,4.1,-191,-282,0,11,198,-279,100.09555077552795,100.095627784729,100.09999322891235,100.11076045036316,100.25947451591492,100.25947451591492,100.25947451591492,100.25947451591492,100.25947451591492,100.25947451591492,100.25947451591492,107.71249341964722,1,7.584453821182251,None,,,,,,,,,,,,,,,,,,82,1,2025-02-21_14h55.37.920,comp,2024.2.4,57.22894969156733,2025-02-21 14h55.53.443660 -0500,
3,3,0,critical,dhw,35.0,3.0,lower,70.0,70.0,133.0,57.0,57.0,133.0,2,3.7172772884368896,None,,,,,0,0,0,0,0,3,3,50,107.73083066940308,,,,,,,,,,,,,,,,,,,,,,,,,,,,,,,,,,,,,,,,,,,,,,,,,,,,,,,,,,,,,,,,,,,,,,,,,,,,,,,,,70.0,70.0,133.0,57.0,57.0,133.0,3.0,3.2,-160,-259,0,-7,191,254,107.7140121459961,107.7140884399414,107.71768856048584,107.73083066940308,107.88012170791626,107.88012170791626,107.88012170791626,107.88012170791626,107.88012170791626,107.88012170791626,107.88012170791626,111.45166254043579,2,3.7172772884368896,None,,,,,,,,,,,,,,,,,,82,1,2025-02-21_14h55.37.920,comp,2024.2.4,57.22894969156733,2025-02-21 14h55.53.443660 -0500,
4,4,0,catch,None,None,None,None,None,None,None,None,None,None,1,1.794847011566162,None,,,,,0,0,0,0,0,4,4,124,111.46881413459778,,,,,,,,,,,,,,,,,,,,,,,,,,,,,,,,,,,,,,,,,,,,,,,,,,,,,,,,,,,,,,,,,,,,,,,,,,,,,,,,,200,125,73,117,109,81,3.0,3.1,-217,274,0,5,195,-289,111.45375967025757,111.45383739471436,111.45715570449829,111.46881413459778,111.61492228507996,111.61492228507996,111.61492228507996,111.61492228507996,111.61492228507996,111.61492228507996,111.61492228507996,113.27012085914612,1,1.794847011566162,None,,,,,,,,,,,,,,,,,,82,1,2025-02-21_14h55.37.920,comp,2024.2.4,57.22894969156733,2025-02-21 14h55.53.443660 -0500,
5,5,0,critical,dwh,20.0,2.1,upper,141.0,141.0,125.0,200.0,200.0,125.0,1,4.996787786483765,None,,,,,0,0,0,0,0,5,5,7,113.29027485847473,,,,,,,,,,,,,,,,,,,,,,,,,,,,,,,,,,,,,,,,,,,,,,,,,,,,,,,,,,,,,,,,,,,,,,,,,,,,,,,,,141.0,141.0,125.0,200.0,200.0,125.0,2.1,2.11,-266,263,0,267,258,-283,113.27183771133423,113.27191758155823,113.27530074119568,113.29027485847473,113.43817591667175,113.43817591667175,113.43817591667175,113.43817591667175,113.43817591667175,113.43817591667175,113.43817591667175,118.29812598228455,1,4.996787786483765,None,,,,,,,,,,,,,,,,,,82,1,2025-02-21_14h55.37.920,comp,2024.2.4,57.22894969156733,2025-02-21 14h55.53.443660 -0500,
6,6,0,filler_square,None,None,None,None,None,None,None,None,None,None,1,1.0837583541870117,None,,,,,0,0,0,0,0,6,6,189,118.31569933891296,,,,,,,,,,,,,,,,,,,,,,,,,,,,,,,,,,,,,,,,,,,,,,,,,,,,,,,,,,,,,,,,,,,,,,,,,,,,,,,,,171.75338801212027,171.75338801212027,92.54734287544315,97.57685006331798,82.69734518880428,149.20217565576306,3.0,3.1,-231,277,0,-8,219,-280,118.29994606971741,118.30002427101135,118.30367970466614,118.31569933891296,118.46697068214417,118.46697068214417,118.46697068214417,118.46697068214417,118.46697068214417,118.46697068214417,118.46697068214417,119.41652035713196,1,1.0837583541870117,None,,,,,,,,,,,,,,,,,,82,1,2025-02-21_14h55.37.920,comp,2024.2.4,57.22894969156733,2025-02-21 14h55.53.443660 -0500,
7,7,0,critical,dwh,20.0,4.0,lower,78.0,78.0,57.0,133.0,133.0,57.0,1,5.863739252090454,None,,,,,0,0,0,0,0,7,7,70,119.43231248855591,,,,,,,,,,,,,,,,,,,,,,,,,,,,,,,,,,,,,,,,,,,,,,,,,,,,,,,,,,,,,,,,,,,,,,,,,,,,,,,,,78.0,78.0,57.0,133.0,133.0,57.0,4.0,4.2,-202,1,0,-278,191,1,119.4180555343628,119.41813063621521,119.42204403877258,119.43231248855591,119.58369588851929,119.58369588851929,119.58369588851929,119.58369588851929,119.58369588851929,119.58369588851929,119.58369588851929,125.3016848564148,1,5.863739252090454,None,,,,,,,,,,,,,,,,,,82,1,2025-02-21_14h55.37.920,comp,2024.2.4,57.22894969156733,2025-02-21 14h55.53.443660 -0500,
8,8,0,filler_square,None,None,None,None,None,None,None,None,None,None,2,1.9614384174346924,None,,,,,0,0,0,0,0,8,8,196,125.31895136833191,,,,,,,,,,,,,,,,,,,,,,,,,,,,,,,,,,,,,,,,,,,,,,,,,,,,,,,,,,,,,,,,,,,,,,,,,,,,,,,,,69.42728784679909,65.18522320130641,74.02756763883217,74.02756763883217,57.3685521128119,58.25086168011549,1.0,1.1,-646,279,-480,266,-318,283,125.30355286598206,125.30363416671753,125.30729031562805,125.31895136833191,125.4725227355957,125.4725227355957,125.4725227355957,125.4725227355957,125.4725227355957,125.4725227355957,125.4725227355957,127.28415441513062,2,1.9614384174346924,None,,,,,,,,,,,,,,,,,,82,1,2025-02-21_14h55.37.920,comp,2024.2.4,57.22894969156733,2025-02-21 14h55.53.443660 -0500,
9,9,0,filler_random,None,None,None,None,None,None,None,None,None,None,1,2.0428707599639893,None,,,,,0,0,0,0,0,9,9,159,127.3002622127533,,,,,,,,,,,,,,,,,,,,,,,,,,,,,,,,,,,,,,,,,,,,,,,,,,,,,,,,,,,,,,,,,,,,,,,,,,,,,,,,,150.22273474630813,188.4673010598242,186.96654308226732,116.7113697139324,76.99021364597633,184.59893495388894,3.0,3.2,-249,-250,0,11,247,252,127.28586888313293,127.28594446182251,127.28929138183594,127.3002622127533,127.45225548744202,127.45225548744202,127.45225548744202,127.45225548744202,127.45225548744202,127.45225548744202,127.45225548744202,129.35583329200745,1,2.0428707599639893,None,,,,,,,,,,,,,,,,,,82,1,2025-02-21_14h55.37.920,comp,2024.2.4,57.22894969156733,2025-02-21 14h55.53.443660 -0500,
10,10,0,critical,hdw,35.0,1.0,lower,133.0,57.0,70.0,70.0,57.0,133.0,3,3.7925033569335938,None,,,,,0,0,0,0,0,10,10,108,129.37476682662964,,,,,,,,,,,,,,,,,,,,,,,,,,,,,,,,,,,,,,,,,,,,,,,,,,,,,,,,,,,,,,,,,,,,,,,,,,,,,,,,,133.0,57.0,70.0,70.0,57.0,133.0,1.0,1.3,320,-286,480,-266,678,-283,129.35745072364807,129.35752964019775,129.36094069480896,129.37476682662964,129.52101588249207,129.52101588249207,129.52101588249207,129.52101588249207,129.52101588249207,129.52101588249207,129.52101588249207,133.18710494041443,3,3.7925033569335938,None,,,,,,,,,,,,,,,,,,82,1,2025-02-21_14h55.37.920,comp,2024.2.4,57.22894969156733,2025-02-21 14h55.53.443660 -0500,
11,11,0,filler_random,None,None,None,None,None,None,None,None,None,None,2,2.9161789417266846,None,,,,,0,0,0,0,0,11,11,132,133.20367074012756,,,,,,,,,,,,,,,,,,,,,,,,,,,,,,,,,,,,,,,,,,,,,,,,,,,,,,,,,,,,,,,,,,,,,,,,,,,,,,,,,72.0486487317201,69.14785773316268,154.9531590934576,162.27767766656376,139.49010724474556,127.29164719492066,2.2,2.22,-212,280,0,-285,241,-261,133.18889689445496,133.18897247314453,133.19243907928467,133.20367074012756,133.3526268005371,133.3526268005371,133.3526268005371,133.3526268005371,133.3526268005371,133.3526268005371,133.3526268005371,136.12405729293823,2,2.9161789417266846,None,,,,,,,,,,,,,,,,,,82,1,2025-02-21_14h55.37.920,comp,2024.2.4,57.22894969156733,2025-02-21 14h55.53.443660 -0500,
12,12,0,filler_random,None,None,None,None,None,None,None,None,None,None,3,1.403231143951416,None,,,,,0,0,0,0,0,12,12,150,136.1407232284546,,,,,,,,,,,,,,,,,,,,,,,,,,,,,,,,,,,,,,,,,,,,,,,,,,,,,,,,,,,,,,,,,,,,,,,,,,,,,,,,,183.01336387638227,83.1348326365743,99.57426316038368,141.16447453467447,184.94921383841032,184.96167844251048,4.0,4.1,-208,-285,0,-2,259,-284,136.12636280059814,136.12649393081665,136.12995672225952,136.1407232284546,136.29372262954712,136.29372262954712,136.29372262954712,136.29372262954712,136.29372262954712,136.29372262954712,136.29372262954712,137.55559730529785,3,1.403231143951416,None,,,,,,,,,,,,,,,,,,82,1,2025-02-21_14h55.37.920,comp,2024.2.4,57.22894969156733,2025-02-21 14h55.53.443660 -0500,
13,13,0,filler_square,None,None,None,None,None,None,None,None,None,None,3,1.0904016494750977,None,,,,,0,0,0,0,0,13,13,170,137.57284259796143,,,,,,,,,,,,,,,,,,,,,,,,,,,,,,,,,,,,,,,,,,,,,,,,,,,,,,,,,,,,,,,,,,,,,,,,,,,,,,,,,125.73906930453627,62.00811760090363,92.170235843028,122.85274509064456,156.80644225224677,156.80644225224677,4.0,4.1,-188,-270,0,-11,236,-273,137.55747818946838,137.55755996704102,137.56134295463562,137.57284259796143,137.72063159942627,137.72063159942627,137.72063159942627,137.72063159942627,137.72063159942627,137.72063159942627,137.72063159942627,138.6785159111023,3,1.0904016494750977,None,,,,,,,,,,,,,,,,,,82,1,2025-02-21_14h55.37.920,comp,2024.2.4,57.22894969156733,2025-02-21 14h55.53.443660 -0500,
14,14,0,critical,hdw,35.0,1.0,upper,200.0,125.0,127.0,127.0,125.0,200.0,1,3.00955867767334,None,,,,,0,0,0,0,0,14,14,109,138.69431734085083,,,,,,,,,,,,,,,,,,,,,,,,,,,,,,,,,,,,,,,,,,,,,,,,,,,,,,,,,,,,,,,,,,,,,,,,,,,,,,,,,200.0,125.0,127.0,127.0,125.0,200.0,1.0,1.2,-222,-15,0,-13,260,20,138.67994809150696,138.6800239086151,138.68335700035095,138.69431734085083,138.84045243263245,138.84045243263245,138.84045243263245,138.84045243263245,138.84045243263245,138.84045243263245,138.84045243263245,141.70850014686584,1,3.00955867767334,None,,,,,,,,,,,,,,,,,,82,1,2025-02-21_14h55.37.920,comp,2024.2.4,57.22894969156733,2025-02-21 14h55.53.443660 -0500,
15,15,0,critical,hwd,35.0,3.0,lower,133.0,57.0,57.0,133.0,70.0,70.0,2,4.3862268924713135,None,,,,,0,0,0,0,0,15,15,98,141.72512912750244,,,,,,,,,,,,,,,,,,,,,,,,,,,,,,,,,,,,,,,,,,,,,,,,,,,,,,,,,,,,,,,,,,,,,,,,,,,,,,,,,133.0,57.0,57.0,133.0,70.0,70.0,3.0,3.2,-191,-280,0,-9,198,288,141.7100865840912,141.71016883850098,141.71428108215332,141.72512912750244,141.8714475631714,141.8714475631714,141.8714475631714,141.8714475631714,141.8714475631714,141.8714475631714,141.8714475631714,146.12488651275635,2,4.3862268924713135,None,,,,,,,,,,,,,,,,,,82,1,2025-02-21_14h55.37.920,comp,2024.2.4,57.22894969156733,2025-02-21 14h55.53.443660 -0500,
16,16,0,critical,hdw,20.0,1.0,lower,133.0,57.0,78.0,78.0,57.0,133.0,3,2.642956018447876,None,,,,,0,0,0,0,0,16,16,114,146.1407356262207,,,,,,,,,,,,,,,,,,,,,,,,,,,,,,,,,,,,,,,,,,,,,,,,,,,,,,,,,,,,,,,,,,,,,,,,,,,,,,,,,133.0,57.0,78.0,78.0,57.0,133.0,1.0,1.1,-644,274,-480,289,-278,284,146.12644410133362,146.12652039527893,146.1302454471588,146.1407356262207,146.29550504684448,146.29550504684448,146.29550504684448,146.29550504684448,146.29550504684448,146.29550504684448,146.29550504684448,148.7929766178131,3,2.642956018447876,None,,,,,,,,,,,,,,,,,,82,1,2025-02-21_14h55.37.920,comp,2024.2.4,57.22894969156733,2025-02-21 14h55.53.443660 -0500,
17,17,0,filler_random,None,None,None,None,None,None,None,None,None,None,2,1.4052398204803467,None,,,,,0,0,0,0,0,17,17,147,148.8101773262024,,,,,,,,,,,,,,,,,,,,,,,,,,,,,,,,,,,,,,,,,,,,,,,,,,,,,,,,,,,,,,,,,,,,,,,,,,,,,,,,,80.37973799410261,98.03774026705534,129.66137439830572,162.14258719057779,62.21825920465174,99.00882698213641,2.2,2.22,-226,281,0,-252,227,-261,148.79480814933777,148.7949137687683,148.79883289337158,148.8101773262024,148.96019220352173,148.96019220352173,148.96019220352173,148.96019220352173,148.96019220352173,148.96019220352173,148.96019220352173,150.23653984069824,2,1.4052398204803467,None,,,,,,,,,,,,,,,,,,82,1,2025-02-21_14h55.37.920,comp,2024.2.4,57.22894969156733,2025-02-21 14h55.53.443660 -0500,
18,18,0,critical,dwh,20.0,2.1,lower,78.0,78.0,57.0,133.0,133.0,57.0,2,4.310546398162842,None,,,,,0,0,0,0,0,18,18,6,150.25681257247925,,,,,,,,,,,,,,,,,,,,,,,,,,,,,,,,,,,,,,,,,,,,,,,,,,,,,,,,,,,,,,,,,,,,,,,,,,,,,,,,,78.0,78.0,57.0,133.0,133.0,57.0,2.1,2.12,-202,-281,0,-254,191,263,150.23805403709412,150.23812794685364,150.24154090881348,150.25681257247925,150.39282178878784,150.39282178878784,150.39282178878784,150.39282178878784,150.39282178878784,150.39282178878784,150.39282178878784,154.57676148414612,2,4.310546398162842,None,,,,,,,,,,,,,,,,,,82,1,2025-02-21_14h55.37.920,comp,2024.2.4,57.22894969156733,2025-02-21 14h55.53.443660 -0500,
19,19,0,filler_random,None,None,None,None,None,None,None,None,None,None,1,1.9568290710449219,None,,,,,0,0,0,0,0,19,19,163,154.59427881240845,,,,,,,,,,,,,,,,,,,,,,,,,,,,,,,,,,,,,,,,,,,,,,,,,,,,,,,,,,,,,,,,,,,,,,,,,,,,,,,,,198.4777506441883,169.9973538378494,160.31893187392797,141.87542921949318,186.63802913760045,162.52084146374816,4.0,4.2,-252,-5,0,-251,248,-3,154.5786576271057,154.5787456035614,154.5825867652893,154.59427881240845,154.750563621521,154.750563621521,154.750563621521,154.750563621521,154.750563621521,154.750563621521,154.750563621521,156.56341314315796,1,1.9568290710449219,None,,,,,,,,,,,,,,,,,,82,1,2025-02-21_14h55.37.920,comp,2024.2.4,57.22894969156733,2025-02-21 14h55.53.443660 -0500,
20,20,0,filler_square,None,None,None,None,None,None,None,None,None,None,3,1.5232563018798828,None,,,,,0,0,0,0,0,20,20,195,156.5806131362915,,,,,,,,,,,,,,,,,,,,,,,,,,,,,,,,,,,,,,,,,,,,,,,,,,,,,,,,,,,,,,,,,,,,,,,,,,,,,,,,,93.05402125304074,122.25223791028118,100.86378839692142,161.53574879935422,179.96916454211808,179.96916454211808,2.1,2.12,-238,-284,0,-277,267,284,156.56563186645508,156.56575393676758,156.56957817077637,156.5806131362915,156.72953367233276,156.72953367233276,156.72953367233276,156.72953367233276,156.72953367233276,156.72953367233276,156.72953367233276,158.1113407611847,3,1.5232563018798828,None,,,,,,,,,,,,,,,,,,82,1,2025-02-21_14h55.37.920,comp,2024.2.4,57.22894969156733,2025-02-21 14h55.53.443660 -0500,
21,21,0,filler_random,None,None,None,None,None,None,None,None,None,None,1,1.4350297451019287,None,,,,,0,0,0,0,0,21,21,161,158.1321291923523,,,,,,,,,,,,,,,,,,,,,,,,,,,,,,,,,,,,,,,,,,,,,,,,,,,,,,,,,,,,,,,,,,,,,,,,,,,,,,,,,154.71969758075397,177.32177007324685,83.03606367538183,76.20049988700244,65.86235764099894,113.74203571750212,4.0,4.2,-223,-9,0,-289,191,5,158.11306619644165,158.11314129829407,158.11676287651062,158.1321291923523,158.2846803665161,158.2846803665161,158.2846803665161,158.2846803665161,158.2846803665161,158.2846803665161,158.2846803665161,159.58032727241516,1,1.4350297451019287,None,,,,,,,,,,,,,,,,,,82,1,2025-02-21_14h55.37.920,comp,2024.2.4,57.22894969156733,2025-02-21 14h55.53.443660 -0500,
22,22,0,critical,hdw,20.0,2.1,lower,133.0,57.0,78.0,78.0,57.0,133.0,2,4.010339736938477,None,,,,,0,0,0,0,0,22,22,46,159.59686279296875,,,,,,,,,,,,,,,,,,,,,,,,,,,,,,,,,,,,,,,,,,,,,,,,,,,,,,,,,,,,,,,,,,,,,,,,,,,,,,,,,133.0,57.0,78.0,78.0,57.0,133.0,2.1,2.11,-164,258,0,284,202,-266,159.5819046497345,159.58198165893555,159.58644771575928,159.59686279296875,159.7463653087616,159.7463653087616,159.7463653087616,159.7463653087616,159.7463653087616,159.7463653087616,159.7463653087616,163.6242573261261,2,4.010339736938477,None,,,,,,,,,,,,,,,,,,82,1,2025-02-21_14h55.37.920,comp,2024.2.4,57.22894969156733,2025-02-21 14h55.53.443660 -0500,
23,23,0,critical,wdh,35.0,2.1,lower,57.0,133.0,70.0,70.0,133.0,57.0,3,2.1255695819854736,None,,,,,0,0,0,0,0,23,23,32,163.64165115356445,,,,,,,,,,,,,,,,,,,,,,,,,,,,,,,,,,,,,,,,,,,,,,,,,,,,,,,,,,,,,,,,,,,,,,,,,,,,,,,,,57.0,133.0,70.0,70.0,133.0,57.0,2.1,2.12,-198,-282,0,-285,160,263,163.62575507164001,163.62582993507385,163.62911748886108,163.64165115356445,163.78535318374634,163.78535318374634,163.78535318374634,163.78535318374634,163.78535318374634,163.78535318374634,163.78535318374634,165.78106904029846,3,2.1255695819854736,None,,,,,,,,,,,,,,,,,,82,1,2025-02-21_14h55.37.920,comp,2024.2.4,57.22894969156733,2025-02-21 14h55.53.443660 -0500,
24,24,0,catch,None,None,None,None,None,None,None,None,None,None,2,1.1694252490997314,None,,,,,0,0,0,0,0,24,24,120,165.79776620864868,,,,,,,,,,,,,,,,,,,,,,,,,,,,,,,,,,,,,,,,,,,,,,,,,,,,,,,,,,,,,,,,,,,,,,,,,,,,,,,,,90,100,167,158,82,108,2.2,2.22,-225,269,0,-255,229,-271,165.78336119651794,165.7834393978119,165.7872588634491,165.79776620864868,165.94981217384338,165.94981217384338,165.94981217384338,165.94981217384338,165.94981217384338,165.94981217384338,165.94981217384338,166.9854118824005,2,1.1694252490997314,None,,,,,,,,,,,,,,,,,,82,1,2025-02-21_14h55.37.920,comp,2024.2.4,57.22894969156733,2025-02-21 14h55.53.443660 -0500,
25,25,0,filler_random,None,None,None,None,None,None,None,None,None,None,3,1.365572452545166,None,,,,,0,0,0,0,0,25,25,139,167.00165033340454,,,,,,,,,,,,,,,,,,,,,,,,,,,,,,,,,,,,,,,,,,,,,,,,,,,,,,,,,,,,,,,,,,,,,,,,,,,,,,,,,170.7520845533901,128.13940244689067,76.22682278284518,101.95969401950327,142.09078012779412,171.94331199196557,2.2,2.22,-211,280,0,-281,233,-276,166.98737454414368,166.98748660087585,166.99134731292725,167.00165033340454,167.1522798538208,167.1522798538208,167.1522798538208,167.1522798538208,167.1522798538208,167.1522798538208,167.1522798538208,168.38178849220276,3,1.365572452545166,None,,,,,,,,,,,,,,,,,,82,1,2025-02-21_14h55.37.920,comp,2024.2.4,57.22894969156733,2025-02-21 14h55.53.443660 -0500,
26,26,0,critical,dhw,20.0,4.0,upper,141.0,141.0,200.0,125.0,125.0,200.0,3,2.3056724071502686,None,,,,,0,0,0,0,0,26,26,59,168.39813113212585,,,,,,,,,,,,,,,,,,,,,,,,,,,,,,,,,,,,,,,,,,,,,,,,,,,,,,,,,,,,,,,,,,,,,,,,,,,,,,,,,141.0,141.0,200.0,125.0,125.0,200.0,4.0,4.2,-229,1,0,-273,258,1,168.3834273815155,168.3835220336914,168.38767170906067,168.39813113212585,168.55626940727234,168.55626940727234,168.55626940727234,168.55626940727234,168.55626940727234,168.55626940727234,168.55626940727234,170.72296619415283,3,2.3056724071502686,None,,,,,,,,,,,,,,,,,,82,1,2025-02-21_14h55.37.920,comp,2024.2.4,57.22894969156733,2025-02-21 14h55.53.443660 -0500,
27,27,0,filler_random,None,None,None,None,None,None,None,None,None,None,1,1.407881498336792,None,,,,,0,0,0,0,0,27,27,152,170.74324941635132,,,,,,,,,,,,,,,,,,,,,,,,,,,,,,,,,,,,,,,,,,,,,,,,,,,,,,,,,,,,,,,,,,,,,,,,,,,,,,,,,158.16927929660176,160.8452782207298,110.23401521864957,76.53533147537594,83.6386704420904,119.00499940638701,2.1,2.12,-215,-268,0,-260,194,261,170.72463965415955,170.72471690177917,170.7280011177063,170.74324941635132,170.8832561969757,170.8832561969757,170.8832561969757,170.8832561969757,170.8832561969757,170.8832561969757,170.8832561969757,172.16642332077026,1,1.407881498336792,None,,,,,,,,,,,,,,,,,,82,1,2025-02-21_14h55.37.920,comp,2024.2.4,57.22894969156733,2025-02-21 14h55.53.443660 -0500,
28,28,0,critical,dhw,35.0,1.0,upper,127.0,127.0,200.0,125.0,125.0,200.0,3,2.777898073196411,None,,,,,0,0,0,0,0,28,28,49,172.18208122253418,,,,,,,,,,,,,,,,,,,,,,,,,,,,,,,,,,,,,,,,,,,,,,,,,,,,,,,,,,,,,,,,,,,,,,,,,,,,,,,,,127.0,127.0,200.0,125.0,125.0,200.0,1.0,1.1,-702,281,-480,278,-222,278,172.16795015335083,172.1680269241333,172.17185282707214,172.18208122253418,172.33093285560608,172.33093285560608,172.33093285560608,172.33093285560608,172.33093285560608,172.33093285560608,172.33093285560608,174.96776843070984,3,2.777898073196411,None,,,,,,,,,,,,,,,,,,82,1,2025-02-21_14h55.37.920,comp,2024.2.4,57.22894969156733,2025-02-21 14h55.53.443660 -0500,
29,29,0,critical,whd,20.0,1.0,upper,125.0,200.0,200.0,125.0,141.0,141.0,1,2.4383513927459717,None,,,,,0,0,0,0,0,29,29,91,174.9849750995636,,,,,,,,,,,,,,,,,,,,,,,,,,,,,,,,,,,,,,,,,,,,,,,,,,,,,,,,,,,,,,,,,,,,,,,,,,,,,,,,,125.0,200.0,200.0,125.0,141.0,141.0,1.0,1.1,-738,287,-480,277,-251,261,174.96954607963562,174.96964263916016,174.97375798225403,174.9849750995636,175.1348307132721,175.1348307132721,175.1348307132721,175.1348307132721,175.1348307132721,175.1348307132721,175.1348307132721,177.43744373321533,1,2.4383513927459717,None,,,,,,,,,,,,,,,,,,82,1,2025-02-21_14h55.37.920,comp,2024.2.4,57.22894969156733,2025-02-21 14h55.53.443660 -0500,
30,30,0,filler_random,None,None,None,None,None,None,None,None,None,None,1,1.4487261772155762,None,,,,,0,0,0,0,0,30,30,155,177.45452284812927,,,,,,,,,,,,,,,,,,,,,,,,,,,,,,,,,,,,,,,,,,,,,,,,,,,,,,,,,,,,,,,,,,,,,,,,,,,,,,,,,181.4823648957132,171.1150377886741,104.12124717492026,81.64260619400422,199.09935668208598,79.14054172390071,2.1,2.12,-222,-282,0,-271,176,269,177.43940353393555,177.4394814968109,177.4436593055725,177.45452284812927,177.60333514213562,177.60333514213562,177.60333514213562,177.60333514213562,177.60333514213562,177.60333514213562,177.60333514213562,178.918203830719,1,1.4487261772155762,None,,,,,,,,,,,,,,,,,,82,1,2025-02-21_14h55.37.920,comp,2024.2.4,57.22894969156733,2025-02-21 14h55.53.443660 -0500,
31,31,0,critical,dwh,20.0,2.1,lower,78.0,78.0,57.0,133.0,133.0,57.0,1,4.225278377532959,None,,,,,0,0,0,0,0,31,31,30,178.9339485168457,,,,,,,,,,,,,,,,,,,,,,,,,,,,,,,,,,,,,,,,,,,,,,,,,,,,,,,,,,,,,,,,,,,,,,,,,,,,,,,,,78.0,78.0,57.0,133.0,133.0,57.0,2.1,2.12,-202,-268,0,-267,191,263,178.91978096961975,178.91985607147217,178.92347478866577,178.9339485168457,179.08790683746338,179.08790683746338,179.08790683746338,179.08790683746338,179.08790683746338,179.08790683746338,179.08790683746338,183.17783451080322,1,4.225278377532959,None,,,,,,,,,,,,,,,,,,82,1,2025-02-21_14h55.37.920,comp,2024.2.4,57.22894969156733,2025-02-21 14h55.53.443660 -0500,
32,32,0,critical,dwh,35.0,4.0,upper,127.0,127.0,125.0,200.0,200.0,125.0,2,3.2364695072174072,None,,,,,0,0,0,0,0,32,32,65,183.19533729553223,,,,,,,,,,,,,,,,,,,,,,,,,,,,,,,,,,,,,,,,,,,,,,,,,,,,,,,,,,,,,,,,,,,,,,,,,,,,,,,,,127.0,127.0,125.0,200.0,200.0,125.0,4.0,4.1,-260,-270,0,-9,258,-251,183.17937898635864,183.17945384979248,183.1828076839447,183.19533729553223,183.33882880210876,183.33882880210876,183.33882880210876,183.33882880210876,183.33882880210876,183.33882880210876,183.33882880210876,186.43699860572815,2,3.2364695072174072,None,,,,,,,,,,,,,,,,,,82,1,2025-02-21_14h55.37.920,comp,2024.2.4,57.22894969156733,2025-02-21 14h55.53.443660 -0500,
33,33,0,catch,None,None,None,None,None,None,None,None,None,None,2,1.1528666019439697,None,,,,,0,0,0,0,0,33,33,125,186.45431900024414,,,,,,,,,,,,,,,,,,,,,,,,,,,,,,,,,,,,,,,,,,,,,,,,,,,,,,,,,,,,,,,,,,,,,,,,,,,,,,,,,85,105,126,199,82,108,1.0,1.1,-728,289,-480,258,-230,261,186.43895077705383,186.43902850151062,186.4425368309021,186.45431900024414,186.60904908180237,186.60904908180237,186.60904908180237,186.60904908180237,186.60904908180237,186.60904908180237,186.60904908180237,187.6253695487976,2,1.1528666019439697,None,,,,,,,,,,,,,,,,,,82,1,2025-02-21_14h55.37.920,comp,2024.2.4,57.22894969156733,2025-02-21 14h55.53.443660 -0500,
34,34,0,critical,hdw,35.0,2.1,upper,200.0,125.0,127.0,127.0,125.0,200.0,3,1.6981201171875,None,,,,,0,0,0,0,0,34,34,45,187.64568042755127,,,,,,,,,,,,,,,,,,,,,,,,,,,,,,,,,,,,,,,,,,,,,,,,,,,,,,,,,,,,,,,,,,,,,,,,,,,,,,,,,200.0,125.0,127.0,127.0,125.0,200.0,2.1,2.12,-222,-272,0,-268,260,282,187.62704205513,187.62716674804688,187.63093447685242,187.64568042755127,187.78909134864807,187.78909134864807,187.78909134864807,187.78909134864807,187.78909134864807,187.78909134864807,187.78909134864807,189.36460852622986,3,1.6981201171875,None,,,,,,,,,,,,,,,,,,82,1,2025-02-21_14h55.37.920,comp,2024.2.4,57.22894969156733,2025-02-21 14h55.53.443660 -0500,
35,35,0,critical,hdw,35.0,2.1,lower,133.0,57.0,70.0,70.0,57.0,133.0,3,3.6937804222106934,None,,,,,0,0,0,0,0,35,35,44,189.38541102409363,,,,,,,,,,,,,,,,,,,,,,,,,,,,,,,,,,,,,,,,,,,,,,,,,,,,,,,,,,,,,,,,,,,,,,,,,,,,,,,,,133.0,57.0,70.0,70.0,57.0,133.0,2.1,2.11,-160,268,0,258,198,-268,189.36625361442566,189.36632990837097,189.37005305290222,189.38541102409363,189.52305221557617,189.52305221557617,189.52305221557617,189.52305221557617,189.52305221557617,189.52305221557617,189.52305221557617,193.08964490890503,3,3.6937804222106934,None,,,,,,,,,,,,,,,,,,82,1,2025-02-21_14h55.37.920,comp,2024.2.4,57.22894969156733,2025-02-21 14h55.53.443660 -0500,
36,36,0,catch,None,None,None,None,None,None,None,None,None,None,2,1.1145827770233154,None,,,,,0,0,0,0,0,36,36,121,193.10891342163086,,,,,,,,,,,,,,,,,,,,,,,,,,,,,,,,,,,,,,,,,,,,,,,,,,,,,,,,,,,,,,,,,,,,,,,,,,,,,,,,,120,70,196,129,72,118,2.2,2.21,-196,-267,0,268,220,272,193.09185552597046,193.09193229675293,193.09596252441406,193.10891342163086,193.25571131706238,193.25571131706238,193.25571131706238,193.25571131706238,193.25571131706238,193.25571131706238,193.25571131706238,194.24099588394165,2,1.1145827770233154,None,,,,,,,,,,,,,,,,,,82,1,2025-02-21_14h55.37.920,comp,2024.2.4,57.22894969156733,2025-02-21 14h55.53.443660 -0500,
37,37,0,critical,whd,35.0,2.1,upper,125.0,200.0,200.0,125.0,127.0,127.0,1,1.9072961807250977,None,,,,,0,0,0,0,0,37,37,13,194.2605583667755,,,,,,,,,,,,,,,,,,,,,,,,,,,,,,,,,,,,,,,,,,,,,,,,,,,,,,,,,,,,,,,,,,,,,,,,,,,,,,,,,125.0,200.0,200.0,125.0,127.0,127.0,2.1,2.12,-258,-284,0,-251,222,288,194.2425515651703,194.24262499809265,194.24615049362183,194.2605583667755,194.40817022323608,194.40817022323608,194.40817022323608,194.40817022323608,194.40817022323608,194.40817022323608,194.40817022323608,196.17541551589966,1,1.9072961807250977,None,,,,,,,,,,,,,,,,,,82,1,2025-02-21_14h55.37.920,comp,2024.2.4,57.22894969156733,2025-02-21 14h55.53.443660 -0500,
38,38,0,critical,hdw,35.0,3.0,upper,200.0,125.0,127.0,127.0,125.0,200.0,3,2.295689105987549,None,,,,,0,0,0,0,0,38,38,111,196.19160389900208,,,,,,,,,,,,,,,,,,,,,,,,,,,,,,,,,,,,,,,,,,,,,,,,,,,,,,,,,,,,,,,,,,,,,,,,,,,,,,,,,200.0,125.0,127.0,127.0,125.0,200.0,3.0,3.2,-222,-269,0,-10,260,290,196.17702221870422,196.1771261692047,196.18085980415344,196.19160389900208,196.34756779670715,196.34756779670715,196.34756779670715,196.34756779670715,196.34756779670715,196.34756779670715,196.34756779670715,198.49166560173035,3,2.295689105987549,None,,,,,,,,,,,,,,,,,,82,1,2025-02-21_14h55.37.920,comp,2024.2.4,57.22894969156733,2025-02-21 14h55.53.443660 -0500,
39,39,0,critical,wdh,20.0,3.0,lower,57.0,133.0,78.0,78.0,133.0,57.0,2,2.1161842346191406,None,,,,,0,0,0,0,0,39,39,80,198.50766468048096,,,,,,,,,,,,,,,,,,,,,,,,,,,,,,,,,,,,,,,,,,,,,,,,,,,,,,,,,,,,,,,,,,,,,,,,,,,,,,,,,57.0,133.0,78.0,78.0,133.0,57.0,3.0,3.2,-202,-261,0,-18,164,268,198.49323320388794,198.49331521987915,198.4969220161438,198.50766468048096,198.66298723220825,198.66298723220825,198.66298723220825,198.66298723220825,198.66298723220825,198.66298723220825,198.66298723220825,200.63966298103333,2,2.1161842346191406,None,,,,,,,,,,,,,,,,,,82,1,2025-02-21_14h55.37.920,comp,2024.2.4,57.22894969156733,2025-02-21 14h55.53.443660 -0500,
40,40,0,critical,whd,20.0,4.0,lower,57.0,133.0,133.0,57.0,78.0,78.0,2,1.880934476852417,None,,,,,0,0,0,0,0,40,40,94,200.6543092727661,,,,,,,,,,,,,,,,,,,,,,,,,,,,,,,,,,,,,,,,,,,,,,,,,,,,,,,,,,,,,,,,,,,,,,,,,,,,,,,,,57.0,133.0,133.0,57.0,78.0,78.0,4.0,4.2,-191,18,0,-264,164,9,200.6411805152893,200.6412868499756,200.64464855194092,200.6543092727661,200.7930235862732,200.7930235862732,200.7930235862732,200.7930235862732,200.7930235862732,200.7930235862732,200.7930235862732,202.5519561767578,2,1.880934476852417,None,,,,,,,,,,,,,,,,,,82,1,2025-02-21_14h55.37.920,comp,2024.2.4,57.22894969156733,2025-02-21 14h55.53.443660 -0500,
41,41,0,critical,wdh,35.0,3.0,upper,125.0,200.0,127.0,127.0,200.0,125.0,1,1.509162187576294,None,,,,,0,0,0,0,0,41,41,75,202.57037806510925,,,,,,,,,,,,,,,,,,,,,,,,,,,,,,,,,,,,,,,,,,,,,,,,,,,,,,,,,,,,,,,,,,,,,,,,,,,,,,,,,125.0,200.0,127.0,127.0,200.0,125.0,3.0,3.1,-260,269,0,17,222,-282,202.5535764694214,202.55365324020386,202.5573480129242,202.57037806510925,202.7098684310913,202.7098684310913,202.7098684310913,202.7098684310913,202.7098684310913,202.7098684310913,202.7098684310913,204.09273052215576,1,1.509162187576294,None,,,,,,,,,,,,,,,,,,82,1,2025-02-21_14h55.37.920,comp,2024.2.4,57.22894969156733,2025-02-21 14h55.53.443660 -0500,
42,42,0,filler_square,None,None,None,None,None,None,None,None,None,None,1,1.257739782333374,None,,,,,0,0,0,0,0,42,42,193,204.1095585823059,,,,,,,,,,,,,,,,,,,,,,,,,,,,,,,,,,,,,,,,,,,,,,,,,,,,,,,,,,,,,,,,,,,,,,,,,,,,,,,,,167.28304937523967,167.28304937523967,106.48946560507432,93.38393777406338,158.55838341975522,132.65408323383448,2.1,2.12,-226,-270,0,-263,209,257,204.0947813987732,204.0948588848114,204.09893608093262,204.1095585823059,204.2461540699005,204.2461540699005,204.2461540699005,204.2461540699005,204.2461540699005,204.2461540699005,204.2461540699005,205.37133407592773,1,1.257739782333374,None,,,,,,,,,,,,,,,,,,82,1,2025-02-21_14h55.37.920,comp,2024.2.4,57.22894969156733,2025-02-21 14h55.53.443660 -0500,
43,43,0,catch,None,None,None,None,None,None,None,None,None,None,2,1.0575838088989258,None,,,,,0,0,0,0,0,43,43,123,205.39030480384827,,,,,,,,,,,,,,,,,,,,,,,,,,,,,,,,,,,,,,,,,,,,,,,,,,,,,,,,,,,,,,,,,,,,,,,,,,,,,,,,,81,109,148,177,74,116,1.0,1.1,-719,280,-480,289,-238,284,205.37335419654846,205.3734312057495,205.37709045410156,205.39030480384827,205.52465629577637,205.52465629577637,205.52465629577637,205.52465629577637,205.52465629577637,205.52465629577637,205.52465629577637,206.46775484085083,2,1.0575838088989258,None,,,,,,,,,,,,,,,,,,82,1,2025-02-21_14h55.37.920,comp,2024.2.4,57.22894969156733,2025-02-21 14h55.53.443660 -0500,
44,44,0,filler_square,None,None,None,None,None,None,None,None,None,None,3,2.2225711345672607,None,,,,,0,0,0,0,0,44,44,205,206.48896741867065,,,,,,,,,,,,,,,,,,,,,,,,,,,,,,,,,,,,,,,,,,,,,,,,,,,,,,,,,,,,,,,,,,,,,,,,,,,,,,,,,124.92014173138372,125.94830200481488,137.37312475167613,146.9292086359219,150.46392648272183,150.46392648272183,2.1,2.12,-232,-282,0,-252,245,259,206.46974444389343,206.46982264518738,206.47361063957214,206.48896741867065,206.6282994747162,206.6282994747162,206.6282994747162,206.6282994747162,206.6282994747162,206.6282994747162,206.6282994747162,208.72947478294373,3,2.2225711345672607,None,,,,,,,,,,,,,,,,,,82,1,2025-02-21_14h55.37.920,comp,2024.2.4,57.22894969156733,2025-02-21 14h55.53.443660 -0500,
45,45,0,critical,dwh,20.0,4.0,upper,141.0,141.0,125.0,200.0,200.0,125.0,2,2.0225703716278076,None,,,,,0,0,0,0,0,45,45,71,208.74576377868652,,,,,,,,,,,,,,,,,,,,,,,,,,,,,,,,,,,,,,,,,,,,,,,,,,,,,,,,,,,,,,,,,,,,,,,,,,,,,,,,,141.0,141.0,125.0,200.0,200.0,125.0,4.0,4.2,-266,7,0,-279,258,1,208.73096370697021,208.73106813430786,208.7346706390381,208.74576377868652,208.89506268501282,208.89506268501282,208.89506268501282,208.89506268501282,208.89506268501282,208.89506268501282,208.89506268501282,210.7790551185608,2,2.0225703716278076,None,,,,,,,,,,,,,,,,,,82,1,2025-02-21_14h55.37.920,comp,2024.2.4,57.22894969156733,2025-02-21 14h55.53.443660 -0500,
46,46,0,critical,wdh,20.0,2.1,lower,57.0,133.0,78.0,78.0,133.0,57.0,1,2.4757609367370605,None,,,,,0,0,0,0,0,46,46,10,210.7960603237152,,,,,,,,,,,,,,,,,,,,,,,,,,,,,,,,,,,,,,,,,,,,,,,,,,,,,,,,,,,,,,,,,,,,,,,,,,,,,,,,,57.0,133.0,78.0,78.0,133.0,57.0,2.1,2.11,-202,261,0,269,164,-264,210.78060793876648,210.7806842327118,210.78504419326782,210.7960603237152,210.95195245742798,210.95195245742798,210.95195245742798,210.95195245742798,210.95195245742798,210.95195245742798,210.95195245742798,213.27943873405457,1,2.4757609367370605,None,,,,,,,,,,,,,,,,,,82,1,2025-02-21_14h55.37.920,comp,2024.2.4,57.22894969156733,2025-02-21 14h55.53.443660 -0500,
47,47,0,filler_random,None,None,None,None,None,None,None,None,None,None,1,1.3436224460601807,None,,,,,0,0,0,0,0,47,47,133,213.29584169387817,,,,,,,,,,,,,,,,,,,,,,,,,,,,,,,,,,,,,,,,,,,,,,,,,,,,,,,,,,,,,,,,,,,,,,,,,,,,,,,,,158.02657079070445,174.97314227106148,168.79341251151425,86.02189376287271,193.9677303910667,120.71803709617235,3.0,3.2,-226,-251,0,-17,199,268,213.28113675117493,213.28125166893005,213.28506231307983,213.29584169387817,213.44437837600708,213.44437837600708,213.44437837600708,213.44437837600708,213.44437837600708,213.44437837600708,213.44437837600708,214.65931630134583,1,1.3436224460601807,None,,,,,,,,,,,,,,,,,,82,1,2025-02-21_14h55.37.920,comp,2024.2.4,57.22894969156733,2025-02-21 14h55.53.443660 -0500,
48,48,0,critical,dwh,20.0,1.0,upper,141.0,141.0,125.0,200.0,200.0,125.0,2,2.144169807434082,None,,,,,0,0,0,0,0,48,48,67,214.67962956428528,,,,,,,,,,,,,,,,,,,,,,,,,,,,,,,,,,,,,,,,,,,,,,,,,,,,,,,,,,,,,,,,,,,,,,,,,,,,,,,,,141.0,141.0,125.0,200.0,200.0,125.0,1.0,1.2,-266,16,0,19,258,12,214.6608531475067,214.66093063354492,214.66438126564026,214.67962956428528,214.81362295150757,214.81362295150757,214.81362295150757,214.81362295150757,214.81362295150757,214.81362295150757,214.81362295150757,216.831152677536,2,2.144169807434082,None,,,,,,,,,,,,,,,,,,82,1,2025-02-21_14h55.37.920,comp,2024.2.4,57.22894969156733,2025-02-21 14h55.53.443660 -0500,
49,49,0,critical,whd,35.0,4.0,lower,57.0,133.0,133.0,57.0,70.0,70.0,1,1.607492446899414,None,,,,,0,0,0,0,0,49,49,88,216.84794902801514,,,,,,,,,,,,,,,,,,,,,,,,,,,,,,,,,,,,,,,,,,,,,,,,,,,,,,,,,,,,,,,,,,,,,,,,,,,,,,,,,57.0,133.0,133.0,57.0,70.0,70.0,4.0,4.2,-191,3,0,-255,160,-13,216.83276438713074,216.83284187316895,216.8371832370758,216.84794902801514,216.99433755874634,216.99433755874634,216.99433755874634,216.99433755874634,216.99433755874634,216.99433755874634,216.99433755874634,218.4720540046692,1,1.607492446899414,None,,,,,,,,,,,,,,,,,,82,1,2025-02-21_14h55.37.920,comp,2024.2.4,57.22894969156733,2025-02-21 14h55.53.443660 -0500,
50,50,0,filler_random,None,None,None,None,None,None,None,None,None,None,1,0.9995508193969727,None,,,,,0,0,0,0,0,50,50,145,218.48778796195984,,,,,,,,,,,,,,,,,,,,,,,,,,,,,,,,,,,,,,,,,,,,,,,,,,,,,,,,,,,,,,,,,,,,,,,,,,,,,,,,,152.42392885144767,146.32986027592665,79.78193670012202,124.97541649404772,148.40084951334262,102.00719092825221,1.0,1.3,248,-262,480,-275,689,-284,218.47391176223755,218.47400951385498,218.47751379013062,218.48778796195984,218.63947010040283,218.63947010040283,218.63947010040283,218.63947010040283,218.63947010040283,218.63947010040283,218.63947010040283,219.5005795955658,1,0.9995508193969727,None,,,,,,,,,,,,,,,,,,82,1,2025-02-21_14h55.37.920,comp,2024.2.4,57.22894969156733,2025-02-21 14h55.53.443660 -0500,
51,51,0,critical,dwh,20.0,3.0,upper,141.0,141.0,125.0,200.0,200.0,125.0,2,1.5476751327514648,None,,,,,0,0,0,0,0,51,51,69,219.51619410514832,,,,,,,,,,,,,,,,,,,,,,,,,,,,,,,,,,,,,,,,,,,,,,,,,,,,,,,,,,,,,,,,,,,,,,,,,,,,,,,,,141.0,141.0,125.0,200.0,200.0,125.0,3.0,3.1,-266,271,0,3,258,-254,219.50214648246765,219.50225138664246,219.50591397285461,219.51619410514832,219.66516542434692,219.66516542434692,219.66516542434692,219.66516542434692,219.66516542434692,219.66516542434692,219.66516542434692,221.06795287132263,2,1.5476751327514648,None,,,,,,,,,,,,,,,,,,82,1,2025-02-21_14h55.37.920,comp,2024.2.4,57.22894969156733,2025-02-21 14h55.53.443660 -0500,
52,52,0,critical,hdw,35.0,2.1,lower,133.0,57.0,70.0,70.0,57.0,133.0,1,2.77044415473938,None,,,,,0,0,0,0,0,52,52,20,221.084796667099,,,,,,,,,,,,,,,,,,,,,,,,,,,,,,,,,,,,,,,,,,,,,,,,,,,,,,,,,,,,,,,,,,,,,,,,,,,,,,,,,133.0,57.0,70.0,70.0,57.0,133.0,2.1,2.12,-160,-256,0,-255,198,270,221.06966876983643,221.06980109214783,221.07323265075684,221.084796667099,221.23187375068665,221.23187375068665,221.23187375068665,221.23187375068665,221.23187375068665,221.23187375068665,221.23187375068665,223.86622786521912,1,2.77044415473938,None,,,,,,,,,,,,,,,,,,82,1,2025-02-21_14h55.37.920,comp,2024.2.4,57.22894969156733,2025-02-21 14h55.53.443660 -0500,
53,53,0,critical,hdw,20.0,4.0,upper,200.0,125.0,141.0,141.0,125.0,200.0,3,1.7569949626922607,None,,,,,0,0,0,0,0,53,53,119,223.8829264640808,,,,,,,,,,,,,,,,,,,,,,,,,,,,,,,,,,,,,,,,,,,,,,,,,,,,,,,,,,,,,,,,,,,,,,,,,,,,,,,,,200.0,125.0,141.0,141.0,125.0,200.0,4.0,4.1,-229,-260,0,-19,266,-253,223.86778020858765,223.86785864830017,223.87219190597534,223.8829264640808,224.03084230422974,224.03084230422974,224.03084230422974,224.03084230422974,224.03084230422974,224.03084230422974,224.03084230422974,225.65019249916077,3,1.7569949626922607,None,,,,,,,,,,,,,,,,,,82,1,2025-02-21_14h55.37.920,comp,2024.2.4,57.22894969156733,2025-02-21 14h55.53.443660 -0500,
54,54,0,filler_square,None,None,None,None,None,None,None,None,None,None,3,1.4929990768432617,None,,,,,0,0,0,0,0,54,54,199,225.66707611083984,,,,,,,,,,,,,,,,,,,,,,,,,,,,,,,,,,,,,,,,,,,,,,,,,,,,,,,,,,,,,,,,,,,,,,,,,,,,,,,,,73.84123580349862,74.08852925641938,100.8518181250718,99.67832739246151,121.6487489592805,121.6487489592805,4.0,4.2,-183,9,0,-283,207,-10,225.65207147598267,225.6521611213684,225.6560516357422,225.66707611083984,225.82263207435608,225.82263207435608,225.82263207435608,225.82263207435608,225.82263207435608,225.82263207435608,225.82263207435608,227.1676104068756,3,1.4929990768432617,None,,,,,,,,,,,,,,,,,,82,1,2025-02-21_14h55.37.920,comp,2024.2.4,57.22894969156733,2025-02-21 14h55.53.443660 -0500,
55,55,0,filler_random,None,None,None,None,None,None,None,None,None,None,1,1.1989593505859375,None,,,,,0,0,0,0,0,55,55,151,227.18429565429688,,,,,,,,,,,,,,,,,,,,,,,,,,,,,,,,,,,,,,,,,,,,,,,,,,,,,,,,,,,,,,,,,,,,,,,,,,,,,,,,,160.45943016522594,160.82186021767126,157.3324455467453,72.42163589781806,80.94532953059536,140.7912539593795,1.0,1.1,-693,282,-480,253,-277,252,227.16946935653687,227.16956520080566,227.17327284812927,227.18429565429688,227.33553099632263,227.33553099632263,227.33553099632263,227.33553099632263,227.33553099632263,227.33553099632263,227.33553099632263,228.39985299110413,1,1.1989593505859375,None,,,,,,,,,,,,,,,,,,82,1,2025-02-21_14h55.37.920,comp,2024.2.4,57.22894969156733,2025-02-21 14h55.53.443660 -0500,
56,56,0,critical,hdw,35.0,4.0,lower,133.0,57.0,70.0,70.0,57.0,133.0,3,2.5436270236968994,None,,,,,0,0,0,0,0,56,56,112,228.41624784469604,,,,,,,,,,,,,,,,,,,,,,,,,,,,,,,,,,,,,,,,,,,,,,,,,,,,,,,,,,,,,,,,,,,,,,,,,,,,,,,,,133.0,57.0,70.0,70.0,57.0,133.0,4.0,4.2,-160,4,0,-253,198,-9,228.40140056610107,228.40147733688354,228.40502190589905,228.41624784469604,228.55299472808838,228.55299472808838,228.55299472808838,228.55299472808838,228.55299472808838,228.55299472808838,228.55299472808838,230.9669303894043,3,2.5436270236968994,None,,,,,,,,,,,,,,,,,,82,1,2025-02-21_14h55.37.920,comp,2024.2.4,57.22894969156733,2025-02-21 14h55.53.443660 -0500,
57,57,0,critical,hwd,20.0,2.1,lower,133.0,57.0,57.0,133.0,78.0,78.0,1,1.9995734691619873,None,,,,,0,0,0,0,0,57,57,42,230.98389983177185,,,,,,,,,,,,,,,,,,,,,,,,,,,,,,,,,,,,,,,,,,,,,,,,,,,,,,,,,,,,,,,,,,,,,,,,,,,,,,,,,133.0,57.0,57.0,133.0,78.0,78.0,2.1,2.11,-191,258,0,281,202,-252,230.96846294403076,230.9685378074646,230.9721291065216,230.98389983177185,231.13829565048218,231.13829565048218,231.13829565048218,231.13829565048218,231.13829565048218,231.13829565048218,231.13829565048218,233.00526404380798,1,1.9995734691619873,None,,,,,,,,,,,,,,,,,,82,1,2025-02-21_14h55.37.920,comp,2024.2.4,57.22894969156733,2025-02-21 14h55.53.443660 -0500,
58,58,0,critical,hwd,20.0,3.0,lower,133.0,57.0,57.0,133.0,78.0,78.0,1,1.742701530456543,None,,,,,0,0,0,0,0,58,58,104,233.02488827705383,,,,,,,,,,,,,,,,,,,,,,,,,,,,,,,,,,,,,,,,,,,,,,,,,,,,,,,,,,,,,,,,,,,,,,,,,,,,,,,,,133.0,57.0,57.0,133.0,78.0,78.0,3.0,3.2,-191,-279,0,-15,202,290,233.0068507194519,233.00692772865295,233.0108072757721,233.02488827705383,233.16988801956177,233.16988801956177,233.16988801956177,233.16988801956177,233.16988801956177,233.16988801956177,233.16988801956177,234.76988768577576,1,1.742701530456543,None,,,,,,,,,,,,,,,,,,82,1,2025-02-21_14h55.37.920,comp,2024.2.4,57.22894969156733,2025-02-21 14h55.53.443660 -0500,
59,59,0,critical,dhw,35.0,3.0,upper,127.0,127.0,200.0,125.0,125.0,200.0,3,1.540865182876587,None,,,,,0,0,0,0,0,59,59,51,234.78745198249817,,,,,,,,,,,,,,,,,,,,,,,,,,,,,,,,,,,,,,,,,,,,,,,,,,,,,,,,,,,,,,,,,,,,,,,,,,,,,,,,,127.0,127.0,200.0,125.0,125.0,200.0,3.0,3.1,-222,254,0,-18,258,-262,234.77156376838684,234.77164125442505,234.77536010742188,234.78745198249817,234.9403007030487,234.9403007030487,234.9403007030487,234.9403007030487,234.9403007030487,234.9403007030487,234.9403007030487,236.33562994003296,3,1.540865182876587,None,,,,,,,,,,,,,,,,,,82,1,2025-02-21_14h55.37.920,comp,2024.2.4,57.22894969156733,2025-02-21 14h55.53.443660 -0500,
60,60,0,filler_square,None,None,None,None,None,None,None,None,None,None,2,1.8549582958221436,None,,,,,0,0,0,0,0,60,60,204,236.3524980545044,,,,,,,,,,,,,,,,,,,,,,,,,,,,,,,,,,,,,,,,,,,,,,,,,,,,,,,,,,,,,,,,,,,,,,,,,,,,,,,,,96.68477002167538,94.36744123751791,148.68429069883558,148.68429069883558,112.91428362928846,99.17518788018316,2.2,2.21,-218,-286,0,258,220,263,236.33738780021667,236.33746576309204,236.3410222530365,236.3524980545044,236.50356340408325,236.50356340408325,236.50356340408325,236.50356340408325,236.50356340408325,236.50356340408325,236.50356340408325,238.22088980674744,2,1.8549582958221436,None,,,,,,,,,,,,,,,,,,82,1,2025-02-21_14h55.37.920,comp,2024.2.4,57.22894969156733,2025-02-21 14h55.53.443660 -0500,
61,61,0,filler_square,None,None,None,None,None,None,None,None,None,None,3,1.6019601821899414,None,,,,,0,0,0,0,0,61,61,180,238.2374050617218,,,,,,,,,,,,,,,,,,,,,,,,,,,,,,,,,,,,,,,,,,,,,,,,,,,,,,,,,,,,,,,,,,,,,,,,,,,,,,,,,83.15826802664493,113.5316291811591,63.240805894812695,72.0930966245593,115.80539599025404,115.80539599025404,1.0,1.2,-189,19,0,-12,190,16,238.22266387939453,238.22274112701416,238.22713446617126,238.2374050617218,238.38500952720642,238.38500952720642,238.38500952720642,238.38500952720642,238.38500952720642,238.38500952720642,238.38500952720642,239.85781145095825,3,1.6019601821899414,None,,,,,,,,,,,,,,,,,,82,1,2025-02-21_14h55.37.920,comp,2024.2.4,57.22894969156733,2025-02-21 14h55.53.443660 -0500,
62,62,0,filler_random,None,None,None,None,None,None,None,None,None,None,2,1.9331178665161133,None,,,,,0,0,0,0,0,62,62,142,239.87419986724854,,,,,,,,,,,,,,,,,,,,,,,,,,,,,,,,,,,,,,,,,,,,,,,,,,,,,,,,,,,,,,,,,,,,,,,,,,,,,,,,,60.73010800162567,97.24621361891931,65.59315007056328,180.0269748621107,58.891812606133456,162.7200428375595,2.1,2.11,-235,267,0,262,267,-289,239.85961747169495,239.85969281196594,239.86388111114502,239.87419986724854,240.0216019153595,240.0216019153595,240.0216019153595,240.0216019153595,240.0216019153595,240.0216019153595,240.0216019153595,241.81908440589905,2,1.9331178665161133,None,,,,,,,,,,,,,,,,,,82,1,2025-02-21_14h55.37.920,comp,2024.2.4,57.22894969156733,2025-02-21 14h55.53.443660 -0500,
63,63,0,critical,hdw,20.0,2.1,upper,200.0,125.0,141.0,141.0,125.0,200.0,1,1.6120564937591553,None,,,,,0,0,0,0,0,63,63,47,241.8360092639923,,,,,,,,,,,,,,,,,,,,,,,,,,,,,,,,,,,,,,,,,,,,,,,,,,,,,,,,,,,,,,,,,,,,,,,,,,,,,,,,,200.0,125.0,141.0,141.0,125.0,200.0,2.1,2.11,-229,289,0,279,266,-276,241.82073211669922,241.82083678245544,241.82457876205444,241.8360092639923,241.975439786911,241.975439786911,241.975439786911,241.975439786911,241.975439786911,241.975439786911,241.975439786911,243.45604419708252,1,1.6120564937591553,None,,,,,,,,,,,,,,,,,,82,1,2025-02-21_14h55.37.920,comp,2024.2.4,57.22894969156733,2025-02-21 14h55.53.443660 -0500,
64,64,0,filler_square,None,None,None,None,None,None,None,None,None,None,1,1.1662259101867676,None,,,,,0,0,0,0,0,64,64,175,243.47310400009155,,,,,,,,,,,,,,,,,,,,,,,,,,,,,,,,,,,,,,,,,,,,,,,,,,,,,,,,,,,,,,,,,,,,,,,,,,,,,,,,,132.05739975929686,132.05739975929686,92.92440061681064,116.1188886841919,94.86693038663866,104.76268405839458,2.2,2.21,-220,-264,0,261,206,255,243.4578959941864,243.45797300338745,243.46235728263855,243.47310400009155,243.62296772003174,243.62296772003174,243.62296772003174,243.62296772003174,243.62296772003174,243.62296772003174,243.62296772003174,244.65864038467407,1,1.1662259101867676,None,,,,,,,,,,,,,,,,,,82,1,2025-02-21_14h55.37.920,comp,2024.2.4,57.22894969156733,2025-02-21 14h55.53.443660 -0500,
65,65,0,filler_random,None,None,None,None,None,None,None,None,None,None,2,1.4514892101287842,None,,,,,0,0,0,0,0,65,65,131,244.67753958702087,,,,,,,,,,,,,,,,,,,,,,,,,,,,,,,,,,,,,,,,,,,,,,,,,,,,,,,,,,,,,,,,,,,,,,,,,,,,,,,,,136.138968693959,122.82015753498011,169.77078277790812,99.73783519534305,108.22352587246911,81.83442102775398,1.0,1.3,273,-260,480,-268,667,-262,244.66057133674622,244.6606478691101,244.66468453407288,244.67753958702087,244.82189297676086,244.82189297676086,244.82189297676086,244.82189297676086,244.82189297676086,244.82189297676086,244.82189297676086,246.14001512527466,2,1.4514892101287842,None,,,,,,,,,,,,,,,,,,82,1,2025-02-21_14h55.37.920,comp,2024.2.4,57.22894969156733,2025-02-21 14h55.53.443660 -0500,
66,66,0,filler_random,None,None,None,None,None,None,None,None,None,None,2,1.09163498878479,None,,,,,0,0,0,0,0,66,66,166,246.1566731929779,,,,,,,,,,,,,,,,,,,,,,,,,,,,,,,,,,,,,,,,,,,,,,,,,,,,,,,,,,,,,,,,,,,,,,,,,,,,,,,,,100.65970983927726,198.02626466112855,195.23663992341557,153.09956460837597,92.9036532112084,100.08658305035829,1.0,1.1,-752,264,-480,289,-257,276,246.14171504974365,246.14179372787476,246.14571475982666,246.1566731929779,246.30562257766724,246.30562257766724,246.30562257766724,246.30562257766724,246.30562257766724,246.30562257766724,246.30562257766724,247.25550293922424,2,1.09163498878479,None,,,,,,,,,,,,,,,,,,82,1,2025-02-21_14h55.37.920,comp,2024.2.4,57.22894969156733,2025-02-21 14h55.53.443660 -0500,
67,67,0,critical,hdw,20.0,2.1,lower,133.0,57.0,78.0,78.0,57.0,133.0,3,1.7357194423675537,None,,,,,0,0,0,0,0,67,67,22,247.27153825759888,,,,,,,,,,,,,,,,,,,,,,,,,,,,,,,,,,,,,,,,,,,,,,,,,,,,,,,,,,,,,,,,,,,,,,,,,,,,,,,,,133.0,57.0,78.0,78.0,57.0,133.0,2.1,2.11,-164,254,0,269,202,-250,247.25707340240479,247.25714826583862,247.2607774734497,247.27153825759888,247.41976284980774,247.41976284980774,247.41976284980774,247.41976284980774,247.41976284980774,247.41976284980774,247.41976284980774,249.02488160133362,3,1.7357194423675537,None,,,,,,,,,,,,,,,,,,82,1,2025-02-21_14h55.37.920,comp,2024.2.4,57.22894969156733,2025-02-21 14h55.53.443660 -0500,
68,68,0,catch,None,None,None,None,None,None,None,None,None,None,1,1.511113166809082,None,,,,,0,0,0,0,0,68,68,128,249.04077315330505,,,,,,,,,,,,,,,,,,,,,,,,,,,,,,,,,,,,,,,,,,,,,,,,,,,,,,,,,,,,,,,,,,,,,,,,,,,,,,,,,174,151,132,58,72,118,2.1,2.12,-200,-273,0,-278,184,275,249.02682399749756,249.026917219162,249.03056359291077,249.04077315330505,249.18962359428406,249.18962359428406,249.18962359428406,249.18962359428406,249.18962359428406,249.18962359428406,249.18962359428406,250.55989146232605,1,1.511113166809082,None,,,,,,,,,,,,,,,,,,82,1,2025-02-21_14h55.37.920,comp,2024.2.4,57.22894969156733,2025-02-21 14h55.53.443660 -0500,
69,69,0,critical,dhw,35.0,4.0,lower,70.0,70.0,133.0,57.0,57.0,133.0,3,2.3123621940612793,None,,,,,0,0,0,0,0,69,69,52,250.57572317123413,,,,,,,,,,,,,,,,,,,,,,,,,,,,,,,,,,,,,,,,,,,,,,,,,,,,,,,,,,,,,,,,,,,,,,,,,,,,,,,,,70.0,70.0,133.0,57.0,57.0,133.0,4.0,4.2,-160,18,0,-261,191,4,250.56149625778198,250.5615770816803,250.56511688232422,250.57572317123413,250.73199152946472,250.73199152946472,250.73199152946472,250.73199152946472,250.73199152946472,250.73199152946472,250.73199152946472,252.89384198188782,3,2.3123621940612793,None,,,,,,,,,,,,,,,,,,82,1,2025-02-21_14h55.37.920,comp,2024.2.4,57.22894969156733,2025-02-21 14h55.53.443660 -0500,
70,70,0,critical,whd,35.0,1.0,upper,125.0,200.0,200.0,125.0,127.0,127.0,1,1.5044691562652588,None,,,,,0,0,0,0,0,70,70,85,252.91115021705627,,,,,,,,,,,,,,,,,,,,,,,,,,,,,,,,,,,,,,,,,,,,,,,,,,,,,,,,,,,,,,,,,,,,,,,,,,,,,,,,,125.0,200.0,200.0,125.0,127.0,127.0,1.0,1.3,222,-264,480,-261,702,-284,252.89557790756226,252.89571046829224,252.89956498146057,252.91115021705627,253.05917191505432,253.05917191505432,253.05917191505432,253.05917191505432,253.05917191505432,253.05917191505432,253.05917191505432,254.43173146247864,1,1.5044691562652588,None,,,,,,,,,,,,,,,,,,82,1,2025-02-21_14h55.37.920,comp,2024.2.4,57.22894969156733,2025-02-21 14h55.53.443660 -0500,
71,71,0,critical,dwh,35.0,1.0,upper,127.0,127.0,125.0,200.0,200.0,125.0,2,1.7922940254211426,None,,,,,0,0,0,0,0,71,71,61,254.44738602638245,,,,,,,,,,,,,,,,,,,,,,,,,,,,,,,,,,,,,,,,,,,,,,,,,,,,,,,,,,,,,,,,,,,,,,,,,,,,,,,,,127.0,127.0,125.0,200.0,200.0,125.0,1.0,1.3,220,-282,480,-275,738,-250,254.4332242012024,254.43330335617065,254.4365930557251,254.44738602638245,254.5913918018341,254.5913918018341,254.5913918018341,254.5913918018341,254.5913918018341,254.5913918018341,254.5913918018341,256.2456388473511,2,1.7922940254211426,None,,,,,,,,,,,,,,,,,,82,1,2025-02-21_14h55.37.920,comp,2024.2.4,57.22894969156733,2025-02-21 14h55.53.443660 -0500,
72,72,0,critical,hwd,20.0,2.1,upper,200.0,125.0,125.0,200.0,141.0,141.0,1,1.7369248867034912,None,,,,,0,0,0,0,0,72,72,43,256.26244616508484,,,,,,,,,,,,,,,,,,,,,,,,,,,,,,,,,,,,,,,,,,,,,,,,,,,,,,,,,,,,,,,,,,,,,,,,,,,,,,,,,200.0,125.0,125.0,200.0,141.0,141.0,2.1,2.11,-258,278,0,276,266,-250,256.2474126815796,256.2474911212921,256.2517273426056,256.26244616508484,256.4133427143097,256.4133427143097,256.4133427143097,256.4133427143097,256.4133427143097,256.4133427143097,256.4133427143097,258.0176992416382,1,1.7369248867034912,None,,,,,,,,,,,,,,,,,,82,1,2025-02-21_14h55.37.920,comp,2024.2.4,57.22894969156733,2025-02-21 14h55.53.443660 -0500,
73,73,0,filler_square,None,None,None,None,None,None,None,None,None,None,2,2.715939521789551,None,,,,,0,0,0,0,0,73,73,185,258.03552532196045,,,,,,,,,,,,,,,,,,,,,,,,,,,,,,,,,,,,,,,,,,,,,,,,,,,,,,,,,,,,,,,,,,,,,,,,,,,,,,,,,80.68955462845925,96.16150057489585,99.84699487680038,78.8863547021497,101.90709991339074,101.90709991339074,2.1,2.12,-184,-280,0,-261,186,281,258.0194730758667,258.0195496082306,258.0228524208069,258.03552532196045,258.18152713775635,258.18152713775635,258.18152713775635,258.18152713775635,258.18152713775635,258.18152713775635,258.18152713775635,260.76268005371094,2,2.715939521789551,None,,,,,,,,,,,,,,,,,,82,1,2025-02-21_14h55.37.920,comp,2024.2.4,57.22894969156733,2025-02-21 14h55.53.443660 -0500,
74,74,0,critical,dwh,35.0,1.0,lower,70.0,70.0,57.0,133.0,133.0,57.0,3,3.1390738487243652,None,,,,,0,0,0,0,0,74,74,60,260.7802543640137,,,,,,,,,,,,,,,,,,,,,,,,,,,,,,,,,,,,,,,,,,,,,,,,,,,,,,,,,,,,,,,,,,,,,,,,,,,,,,,,,70.0,70.0,57.0,133.0,133.0,57.0,1.0,1.1,-678,285,-480,261,-289,289,260.76445960998535,260.76459097862244,260.7685661315918,260.7802543640137,260.9280664920807,260.9280664920807,260.9280664920807,260.9280664920807,260.9280664920807,260.9280664920807,260.9280664920807,263.93059396743774,3,3.1390738487243652,None,,,,,,,,,,,,,,,,,,82,1,2025-02-21_14h55.37.920,comp,2024.2.4,57.22894969156733,2025-02-21 14h55.53.443660 -0500,
75,75,0,critical,dhw,20.0,2.1,upper,141.0,141.0,200.0,125.0,125.0,200.0,2,1.4839439392089844,None,,,,,0,0,0,0,0,75,75,27,263.9474022388458,,,,,,,,,,,,,,,,,,,,,,,,,,,,,,,,,,,,,,,,,,,,,,,,,,,,,,,,,,,,,,,,,,,,,,,,,,,,,,,,,141.0,141.0,200.0,125.0,125.0,200.0,2.1,2.12,-229,-281,0,-259,258,274,263.9323077201843,263.9323923587799,263.93659806251526,263.9474022388458,264.0958752632141,264.0958752632141,264.0958752632141,264.0958752632141,264.0958752632141,264.0958752632141,264.0958752632141,265.44692277908325,2,1.4839439392089844,None,,,,,,,,,,,,,,,,,,82,1,2025-02-21_14h55.37.920,comp,2024.2.4,57.22894969156733,2025-02-21 14h55.53.443660 -0500,
76,76,0,critical,hwd,35.0,3.0,upper,200.0,125.0,125.0,200.0,127.0,127.0,2,1.528841495513916,None,,,,,0,0,0,0,0,76,76,99,265.4630870819092,,,,,,,,,,,,,,,,,,,,,,,,,,,,,,,,,,,,,,,,,,,,,,,,,,,,,,,,,,,,,,,,,,,,,,,,,,,,,,,,,200.0,125.0,125.0,200.0,127.0,127.0,3.0,3.2,-258,-284,0,-9,260,264,265.4484553337097,265.4485332965851,265.4522805213928,265.4630870819092,265.59974122047424,265.59974122047424,265.59974122047424,265.59974122047424,265.59974122047424,265.59974122047424,265.59974122047424,267.00077414512634,2,1.528841495513916,None,,,,,,,,,,,,,,,,,,82,1,2025-02-21_14h55.37.920,comp,2024.2.4,57.22894969156733,2025-02-21 14h55.53.443660 -0500,
77,77,0,filler_random,None,None,None,None,None,None,None,None,None,None,1,1.2542767524719238,None,,,,,0,0,0,0,0,77,77,162,267.01751828193665,,,,,,,,,,,,,,,,,,,,,,,,,,,,,,,,,,,,,,,,,,,,,,,,,,,,,,,,,,,,,,,,,,,,,,,,,,,,,,,,,128.2843966642426,141.47599575245647,121.78798772409452,69.94368553333392,59.827817108160524,58.99297137055999,2.2,2.21,-202,-277,0,262,160,288,267.0026025772095,267.0026824474335,267.0066885948181,267.01751828193665,267.1625006198883,267.1625006198883,267.1625006198883,267.1625006198883,267.1625006198883,267.1625006198883,267.1625006198883,268.2800278663635,1,1.2542767524719238,None,,,,,,,,,,,,,,,,,,82,1,2025-02-21_14h55.37.920,comp,2024.2.4,57.22894969156733,2025-02-21 14h55.53.443660 -0500,
78,78,0,critical,whd,35.0,2.1,lower,57.0,133.0,133.0,57.0,70.0,70.0,1,3.118826389312744,None,,,,,0,0,0,0,0,78,78,36,268.296510219574,,,,,,,,,,,,,,,,,,,,,,,,,,,,,,,,,,,,,,,,,,,,,,,,,,,,,,,,,,,,,,,,,,,,,,,,,,,,,,,,,57.0,133.0,133.0,57.0,70.0,70.0,2.1,2.12,-191,-251,0,-265,160,287,268.28162813186646,268.28170704841614,268.2856237888336,268.296510219574,268.44321846961975,268.44321846961975,268.44321846961975,268.44321846961975,268.44321846961975,268.44321846961975,268.44321846961975,271.43076729774475,1,3.118826389312744,None,,,,,,,,,,,,,,,,,,82,1,2025-02-21_14h55.37.920,comp,2024.2.4,57.22894969156733,2025-02-21 14h55.53.443660 -0500,
79,79,0,filler_random,None,None,None,None,None,None,None,None,None,None,1,0.9297909736633301,None,,,,,0,0,0,0,0,79,79,167,271.4464461803436,,,,,,,,,,,,,,,,,,,,,,,,,,,,,,,,,,,,,,,,,,,,,,,,,,,,,,,,,,,,,,,,,,,,,,,,,,,,,,,,,105.864336895826,193.63909538433012,105.93751304133636,128.68642281452742,111.14806838928627,89.2896990013173,3.0,3.1,-257,268,0,18,205,-263,271.4324862957001,271.4325623512268,271.43623971939087,271.4464461803436,271.5963385105133,271.5963385105133,271.5963385105133,271.5963385105133,271.5963385105133,271.5963385105133,271.5963385105133,272.3814356327057,1,0.9297909736633301,None,,,,,,,,,,,,,,,,,,82,1,2025-02-21_14h55.37.920,comp,2024.2.4,57.22894969156733,2025-02-21 14h55.53.443660 -0500,
80,80,0,critical,dwh,20.0,1.0,lower,78.0,78.0,57.0,133.0,133.0,57.0,1,2.65766978263855,None,,,,,0,0,0,0,0,80,80,66,272.39830803871155,,,,,,,,,,,,,,,,,,,,,,,,,,,,,,,,,,,,,,,,,,,,,,,,,,,,,,,,,,,,,,,,,,,,,,,,,,,,,,,,,78.0,78.0,57.0,133.0,133.0,57.0,1.0,1.3,278,-275,480,-251,671,-281,272.38308930397034,272.3831670284271,272.3871111869812,272.39830803871155,272.5549440383911,272.5549440383911,272.5549440383911,272.5549440383911,272.5549440383911,272.5549440383911,272.5549440383911,275.06630516052246,1,2.65766978263855,None,,,,,,,,,,,,,,,,,,82,1,2025-02-21_14h55.37.920,comp,2024.2.4,57.22894969156733,2025-02-21 14h55.53.443660 -0500,
81,81,0,critical,hwd,35.0,4.0,upper,200.0,125.0,125.0,200.0,127.0,127.0,1,0.9589741230010986,None,,,,,0,0,0,0,0,81,81,101,275.082870721817,,,,,,,,,,,,,,,,,,,,,,,,,,,,,,,,,,,,,,,,,,,,,,,,,,,,,,,,,,,,,,,,,,,,,,,,,,,,,,,,,200.0,125.0,125.0,200.0,127.0,127.0,4.0,4.1,-258,-273,0,16,260,-266,275.0678551197052,275.0679326057434,275.0719516277313,275.082870721817,275.23494815826416,275.23494815826416,275.23494815826416,275.23494815826416,275.23494815826416,275.23494815826416,275.23494815826416,276.04716181755066,1,0.9589741230010986,None,,,,,,,,,,,,,,,,,,82,1,2025-02-21_14h55.37.920,comp,2024.2.4,57.22894969156733,2025-02-21 14h55.53.443660 -0500,
82,82,0,critical,whd,20.0,3.0,upper,125.0,200.0,200.0,125.0,141.0,141.0,1,1.4134831428527832,None,,,,,0,0,0,0,0,82,82,93,276.06669449806213,,,,,,,,,,,,,,,,,,,,,,,,,,,,,,,,,,,,,,,,,,,,,,,,,,,,,,,,,,,,,,,,,,,,,,,,,,,,,,,,,125.0,200.0,200.0,125.0,141.0,141.0,3.0,3.2,-258,-288,0,-19,229,281,276.0486822128296,276.04875898361206,276.0521442890167,276.06669449806213,276.2000608444214,276.2000608444214,276.2000608444214,276.2000608444214,276.2000608444214,276.2000608444214,276.2000608444214,277.48455595970154,1,1.4134831428527832,None,,,,,,,,,,,,,,,,,,82,1,2025-02-21_14h55.37.920,comp,2024.2.4,57.22894969156733,2025-02-21 14h55.53.443660 -0500,
83,83,0,critical,hwd,35.0,1.0,lower,133.0,57.0,57.0,133.0,70.0,70.0,2,1.5460503101348877,None,,,,,0,0,0,0,0,83,83,96,277.50138092041016,,,,,,,,,,,,,,,,,,,,,,,,,,,,,,,,,,,,,,,,,,,,,,,,,,,,,,,,,,,,,,,,,,,,,,,,,,,,,,,,,133.0,57.0,57.0,133.0,70.0,70.0,1.0,1.2,-191,-16,0,-9,198,12,277.48613452911377,277.4862892627716,277.49058723449707,277.50138092041016,277.6484751701355,277.6484751701355,277.6484751701355,277.6484751701355,277.6484751701355,277.6484751701355,277.6484751701355,279.0662536621094,2,1.5460503101348877,None,,,,,,,,,,,,,,,,,,82,1,2025-02-21_14h55.37.920,comp,2024.2.4,57.22894969156733,2025-02-21 14h55.53.443660 -0500,
84,84,0,filler_square,None,None,None,None,None,None,None,None,None,None,2,1.4098420143127441,None,,,,,0,0,0,0,0,84,84,181,279.08552169799805,,,,,,,,,,,,,,,,,,,,,,,,,,,,,,,,,,,,,,,,,,,,,,,,,,,,,,,,,,,,,,,,,,,,,,,,,,,,,,,,,62.34791872631316,58.42520148261364,77.07143928649697,77.07143928649697,60.19231031946102,66.87709175835508,4.0,4.1,-164,-252,0,-19,168,-285,279.0679636001587,279.06804037094116,279.07162261009216,279.08552169799805,279.23288917541504,279.23288917541504,279.23288917541504,279.23288917541504,279.23288917541504,279.23288917541504,279.23288917541504,280.50963973999023,2,1.4098420143127441,None,,,,,,,,,,,,,,,,,,82,1,2025-02-21_14h55.37.920,comp,2024.2.4,57.22894969156733,2025-02-21 14h55.53.443660 -0500,
85,85,0,critical,whd,35.0,4.0,upper,125.0,200.0,200.0,125.0,127.0,127.0,2,1.5940346717834473,None,,,,,0,0,0,0,0,85,85,89,280.5253219604492,,,,,,,,,,,,,,,,,,,,,,,,,,,,,,,,,,,,,,,,,,,,,,,,,,,,,,,,,,,,,,,,,,,,,,,,,,,,,,,,,125.0,200.0,200.0,125.0,127.0,127.0,4.0,4.2,-258,5,0,-283,222,-4,280.5111038684845,280.51117873191833,280.51459765434265,280.5253219604492,280.6681065559387,280.6681065559387,280.6681065559387,280.6681065559387,280.6681065559387,280.6681065559387,280.6681065559387,282.13336968421936,2,1.5940346717834473,None,,,,,,,,,,,,,,,,,,82,1,2025-02-21_14h55.37.920,comp,2024.2.4,57.22894969156733,2025-02-21 14h55.53.443660 -0500,
86,86,0,critical,hdw,20.0,2.1,upper,200.0,125.0,141.0,141.0,125.0,200.0,1,2.234231472015381,None,,,,,0,0,0,0,0,86,86,23,282.14913845062256,,,,,,,,,,,,,,,,,,,,,,,,,,,,,,,,,,,,,,,,,,,,,,,,,,,,,,,,,,,,,,,,,,,,,,,,,,,,,,,,,200.0,125.0,141.0,141.0,125.0,200.0,2.1,2.12,-229,-258,0,-286,266,258,282.13489747047424,282.13497591018677,282.1385998725891,282.14913845062256,282.3060691356659,282.3060691356659,282.3060691356659,282.3060691356659,282.3060691356659,282.3060691356659,282.3060691356659,284.3862624168396,1,2.234231472015381,None,,,,,,,,,,,,,,,,,,82,1,2025-02-21_14h55.37.920,comp,2024.2.4,57.22894969156733,2025-02-21 14h55.53.443660 -0500,
87,87,0,critical,whd,20.0,2.1,lower,57.0,133.0,133.0,57.0,78.0,78.0,2,2.677781820297241,None,,,,,0,0,0,0,0,87,87,38,284.4024338722229,,,,,,,,,,,,,,,,,,,,,,,,,,,,,,,,,,,,,,,,,,,,,,,,,,,,,,,,,,,,,,,,,,,,,,,,,,,,,,,,,57.0,133.0,133.0,57.0,78.0,78.0,2.1,2.12,-191,-266,0,-287,164,264,284.3877990245819,284.3878779411316,284.39167523384094,284.4024338722229,284.55028533935547,284.55028533935547,284.55028533935547,284.55028533935547,284.55028533935547,284.55028533935547,284.55028533935547,287.0860447883606,2,2.677781820297241,None,,,,,,,,,,,,,,,,,,82,1,2025-02-21_14h55.37.920,comp,2024.2.4,57.22894969156733,2025-02-21 14h55.53.443660 -0500,
88,88,0,critical,dhw,35.0,1.0,lower,70.0,70.0,133.0,57.0,57.0,133.0,2,3.9846532344818115,None,,,,,0,0,0,0,0,88,88,48,287.10269141197205,,,,,,,,,,,,,,,,,,,,,,,,,,,,,,,,,,,,,,,,,,,,,,,,,,,,,,,,,,,,,,,,,,,,,,,,,,,,,,,,,70.0,70.0,133.0,57.0,57.0,133.0,1.0,1.3,320,-263,480,-267,671,-285,287.08775877952576,287.08785676956177,287.0918548107147,287.10269141197205,287.25830817222595,287.25830817222595,287.25830817222595,287.25830817222595,287.25830817222595,287.25830817222595,287.25830817222595,291.1036887168884,2,3.9846532344818115,None,,,,,,,,,,,,,,,,,,82,1,2025-02-21_14h55.37.920,comp,2024.2.4,57.22894969156733,2025-02-21 14h55.53.443660 -0500,
89,89,0,critical,dhw,20.0,3.0,lower,78.0,78.0,133.0,57.0,57.0,133.0,3,1.5775747299194336,None,,,,,0,0,0,0,0,89,89,56,291.1178958415985,,,,,,,,,,,,,,,,,,,,,,,,,,,,,,,,,,,,,,,,,,,,,,,,,,,,,,,,,,,,,,,,,,,,,,,,,,,,,,,,,78.0,78.0,133.0,57.0,57.0,133.0,3.0,3.1,-164,255,0,13,191,-260,291.10516834259033,291.10527777671814,291.108922958374,291.1178958415985,291.26304745674133,291.26304745674133,291.26304745674133,291.26304745674133,291.26304745674133,291.26304745674133,291.26304745674133,292.7068419456482,3,1.5775747299194336,None,,,,,,,,,,,,,,,,,,82,1,2025-02-21_14h55.37.920,comp,2024.2.4,57.22894969156733,2025-02-21 14h55.53.443660 -0500,
90,90,0,filler_square,None,None,None,None,None,None,None,None,None,None,1,3.8093888759613037,None,,,,,0,0,0,0,0,90,90,191,292.7261917591095,,,,,,,,,,,,,,,,,,,,,,,,,,,,,,,,,,,,,,,,,,,,,,,,,,,,,,,,,,,,,,,,,,,,,,,,,,,,,,,,,62.75855469551082,62.75855469551082,58.64286153604427,60.776325353595915,59.336782670144984,61.760127159495276,1.0,1.1,-638,283,-480,277,-323,261,292.70920419692993,292.7093679904938,292.71277594566345,292.7261917591095,292.87208437919617,292.87208437919617,292.87208437919617,292.87208437919617,292.87208437919617,292.87208437919617,292.87208437919617,296.5448384284973,1,3.8093888759613037,None,,,,,,,,,,,,,,,,,,82,1,2025-02-21_14h55.37.920,comp,2024.2.4,57.22894969156733,2025-02-21 14h55.53.443660 -0500,
91,91,0,filler_random,None,None,None,None,None,None,None,None,None,None,2,1.8737366199493408,None,,,,,0,0,0,0,0,91,91,160,296.56564927101135,,,,,,,,,,,,,,,,,,,,,,,,,,,,,,,,,,,,,,,,,,,,,,,,,,,,,,,,,,,,,,,,,,,,,,,,,,,,,,,,,136.6576282972391,154.26143817524184,139.38758706567535,199.2089756002511,181.8359119834491,98.04619410451573,3.0,3.1,-273,278,0,-11,245,-258,296.5464928150177,296.5465693473816,296.549870967865,296.56564927101135,296.71196699142456,296.71196699142456,296.71196699142456,296.71196699142456,296.71196699142456,296.71196699142456,296.71196699142456,298.4569993019104,2,1.8737366199493408,None,,,,,,,,,,,,,,,,,,82,1,2025-02-21_14h55.37.920,comp,2024.2.4,57.22894969156733,2025-02-21 14h55.53.443660 -0500,
92,92,0,filler_square,None,None,None,None,None,None,None,None,None,None,2,1.1497671604156494,None,,,,,0,0,0,0,0,92,92,179,298.47365832328796,,,,,,,,,,,,,,,,,,,,,,,,,,,,,,,,,,,,,,,,,,,,,,,,,,,,,,,,,,,,,,,,,,,,,,,,,,,,,,,,,115.91455965820703,84.22971458041506,129.92036785148787,129.92036785148787,86.53364046726479,115.40269277383803,4.0,4.2,-203,-5,0,-253,219,9,298.45882391929626,298.45889687538147,298.4624717235565,298.47365832328796,298.6255714893341,298.6255714893341,298.6255714893341,298.6255714893341,298.6255714893341,298.6255714893341,298.6255714893341,299.64232897758484,2,1.1497671604156494,None,,,,,,,,,,,,,,,,,,82,1,2025-02-21_14h55.37.920,comp,2024.2.4,57.22894969156733,2025-02-21 14h55.53.443660 -0500,
93,93,0,critical,wdh,20.0,3.0,upper,125.0,200.0,141.0,141.0,200.0,125.0,1,0.9630541801452637,None,,,,,0,0,0,0,0,93,93,81,299.6603407859802,,,,,,,,,,,,,,,,,,,,,,,,,,,,,,,,,,,,,,,,,,,,,,,,,,,,,,,,,,,,,,,,,,,,,,,,,,,,,,,,,125.0,200.0,141.0,141.0,200.0,125.0,3.0,3.2,-266,-282,0,10,229,260,299.6440441608429,299.6441493034363,299.6479332447052,299.6603407859802,299.8068935871124,299.8068935871124,299.8068935871124,299.8068935871124,299.8068935871124,299.8068935871124,299.8068935871124,300.6397969722748,1,0.9630541801452637,None,,,,,,,,,,,,,,,,,,82,1,2025-02-21_14h55.37.920,comp,2024.2.4,57.22894969156733,2025-02-21 14h55.53.443660 -0500,
94,94,0,critical,wdh,20.0,4.0,lower,57.0,133.0,78.0,78.0,133.0,57.0,1,2.103386163711548,None,,,,,0,0,0,0,0,94,94,82,300.65604877471924,,,,,,,,,,,,,,,,,,,,,,,,,,,,,,,,,,,,,,,,,,,,,,,,,,,,,,,,,,,,,,,,,,,,,,,,,,,,,,,,,57.0,133.0,78.0,78.0,133.0,57.0,4.0,4.2,-202,-18,0,-278,164,8,300.6412920951843,300.64139318466187,300.64573073387146,300.65604877471924,300.80772972106934,300.80772972106934,300.80772972106934,300.80772972106934,300.80772972106934,300.80772972106934,300.80772972106934,302.7754349708557,1,2.103386163711548,None,,,,,,,,,,,,,,,,,,82,1,2025-02-21_14h55.37.920,comp,2024.2.4,57.22894969156733,2025-02-21 14h55.53.443660 -0500,
95,95,0,critical,whd,20.0,1.0,lower,57.0,133.0,133.0,57.0,78.0,78.0,1,1.46415376663208,None,,,,,0,0,0,0,0,95,95,90,302.79174613952637,,,,,,,,,,,,,,,,,,,,,,,,,,,,,,,,,,,,,,,,,,,,,,,,,,,,,,,,,,,,,,,,,,,,,,,,,,,,,,,,,57.0,133.0,133.0,57.0,78.0,78.0,1.0,1.2,-191,-11,0,12,164,2,302.77699995040894,302.7770767211914,302.7814657688141,302.79174613952637,302.9418365955353,302.9418365955353,302.9418365955353,302.9418365955353,302.9418365955353,302.9418365955353,302.9418365955353,304.2648627758026,1,1.46415376663208,None,,,,,,,,,,,,,,,,,,82,1,2025-02-21_14h55.37.920,comp,2024.2.4,57.22894969156733,2025-02-21 14h55.53.443660 -0500,
96,96,0,critical,dhw,20.0,1.0,upper,141.0,141.0,200.0,125.0,125.0,200.0,3,2.1090171337127686,None,,,,,0,0,0,0,0,96,96,55,304.2829256057739,,,,,,,,,,,,,,,,,,,,,,,,,,,,,,,,,,,,,,,,,,,,,,,,,,,,,,,,,,,,,,,,,,,,,,,,,,,,,,,,,141.0,141.0,200.0,125.0,125.0,200.0,1.0,1.3,251,-270,480,-278,738,-267,304.2664339542389,304.2665102481842,304.269807100296,304.2829256057739,304.4258327484131,304.4258327484131,304.4258327484131,304.4258327484131,304.4258327484131,304.4258327484131,304.4258327484131,306.4085292816162,3,2.1090171337127686,None,,,,,,,,,,,,,,,,,,82,1,2025-02-21_14h55.37.920,comp,2024.2.4,57.22894969156733,2025-02-21 14h55.53.443660 -0500,
97,97,0,filler_random,None,None,None,None,None,None,None,None,None,None,3,1.7025067806243896,None,,,,,0,0,0,0,0,97,97,134,306.424925327301,,,,,,,,,,,,,,,,,,,,,,,,,,,,,,,,,,,,,,,,,,,,,,,,,,,,,,,,,,,,,,,,,,,,,,,,,,,,,,,,,167.63356123526688,73.35625954087234,98.59456010256724,187.29010464505419,197.60110095301386,156.31945136124455,2.1,2.12,-226,-277,0,-273,268,265,306.4103145599365,306.410391330719,306.41467809677124,306.424925327301,306.57723903656006,306.57723903656006,306.57723903656006,306.57723903656006,306.57723903656006,306.57723903656006,306.57723903656006,308.142391204834,3,1.7025067806243896,None,,,,,,,,,,,,,,,,,,82,1,2025-02-21_14h55.37.920,comp,2024.2.4,57.22894969156733,2025-02-21 14h55.53.443660 -0500,
98,98,0,critical,hwd,35.0,2.1,lower,133.0,57.0,57.0,133.0,70.0,70.0,2,2.352961301803589,None,,,,,0,0,0,0,0,98,98,40,308.1583843231201,,,,,,,,,,,,,,,,,,,,,,,,,,,,,,,,,,,,,,,,,,,,,,,,,,,,,,,,,,,,,,,,,,,,,,,,,,,,,,,,,133.0,57.0,57.0,133.0,70.0,70.0,2.1,2.12,-191,-258,0,-259,198,280,308.14401173591614,308.1441185474396,308.14799976348877,308.1583843231201,308.3080503940582,308.3080503940582,308.3080503940582,308.3080503940582,308.3080503940582,308.3080503940582,308.3080503940582,310.52853083610535,2,2.352961301803589,None,,,,,,,,,,,,,,,,,,82,1,2025-02-21_14h55.37.920,comp,2024.2.4,57.22894969156733,2025-02-21 14h55.53.443660 -0500,
99,99,0,catch,None,None,None,None,None,None,None,None,None,None,3,0.9982168674468994,None,,,,,0,0,0,0,0,99,99,122,310.545152425766,,,,,,,,,,,,,,,,,,,,,,,,,,,,,,,,,,,,,,,,,,,,,,,,,,,,,,,,,,,,,,,,,,,,,,,,,,,,,,,,,61,129,122,68,196,129,1.0,1.2,-194,-15,0,-4,194,-7,310.5306911468506,310.53076815605164,310.5348162651062,310.545152425766,310.6929793357849,310.6929793357849,310.6929793357849,310.6929793357849,310.6929793357849,310.6929793357849,310.6929793357849,311.56018447875977,3,0.9982168674468994,None,,,,,,,,,,,,,,,,,,82,1,2025-02-21_14h55.37.920,comp,2024.2.4,57.22894969156733,2025-02-21 14h55.53.443660 -0500,
100,100,0,filler_square,None,None,None,None,None,None,None,None,None,None,2,1.222855806350708,None,,,,,0,0,0,0,0,100,100,206,311.5765118598938,,,,,,,,,,,,,,,,,,,,,,,,,,,,,,,,,,,,,,,,,,,,,,,,,,,,,,,,,,,,,,,,,,,,,,,,,,,,,,,,,65.84731937551477,69.33410034664865,81.22391322715876,81.22391322715876,62.39300668703105,73.23865990509063,2.1,2.12,-171,-262,0,-277,173,250,311.5621609687805,311.5623104572296,311.5661940574646,311.5765118598938,311.7246346473694,311.7246346473694,311.7246346473694,311.7246346473694,311.7246346473694,311.7246346473694,311.7246346473694,312.8129606246948,2,1.222855806350708,None,,,,,,,,,,,,,,,,,,82,1,2025-02-21_14h55.37.920,comp,2024.2.4,57.22894969156733,2025-02-21 14h55.53.443660 -0500,
101,101,0,filler_random,None,None,None,None,None,None,None,None,None,None,1,1.1040866374969482,None,,,,,0,0,0,0,0,101,101,148,312.8314678668976,,,,,,,,,,,,,,,,,,,,,,,,,,,,,,,,,,,,,,,,,,,,,,,,,,,,,,,,,,,,,,,,,,,,,,,,,,,,,,,,,196.72623470981938,195.03486792017446,98.52677894173554,151.60162345346353,173.70960040831164,168.77917560172168,3.0,3.2,-269,-261,0,-7,256,264,312.8147201538086,312.8147976398468,312.8181986808777,312.8314678668976,312.9782040119171,312.9782040119171,312.9782040119171,312.9782040119171,312.9782040119171,312.9782040119171,312.9782040119171,313.9446108341217,1,1.1040866374969482,None,,,,,,,,,,,,,,,,,,82,1,2025-02-21_14h55.37.920,comp,2024.2.4,57.22894969156733,2025-02-21 14h55.53.443660 -0500,
102,102,0,filler_square,None,None,None,None,None,None,None,None,None,None,2,1.6614983081817627,None,,,,,0,0,0,0,0,102,102,173,313.96216893196106,,,,,,,,,,,,,,,,,,,,,,,,,,,,,,,,,,,,,,,,,,,,,,,,,,,,,,,,,,,,,,,,,,,,,,,,,,,,,,,,,59.130888680069674,64.3477170166516,67.31875927125505,67.31875927125505,67.14973261826442,59.77948076397889,4.0,4.2,-162,16,0,-280,160,-11,313.9464182853699,313.946496963501,313.95089840888977,313.96216893196106,314.11625695228577,314.11625695228577,314.11625695228577,314.11625695228577,314.11625695228577,314.11625695228577,314.11625695228577,315.628701210022,2,1.6614983081817627,None,,,,,,,,,,,,,,,,,,82,1,2025-02-21_14h55.37.920,comp,2024.2.4,57.22894969156733,2025-02-21 14h55.53.443660 -0500,
103,103,0,filler_random,None,None,None,None,None,None,None,None,None,None,1,1.0519688129425049,None,,,,,0,0,0,0,0,103,103,165,315.64357018470764,,,,,,,,,,,,,,,,,,,,,,,,,,,,,,,,,,,,,,,,,,,,,,,,,,,,,,,,,,,,,,,,,,,,,,,,,,,,,,,,,187.0600934519522,187.31101227319905,91.48130885524618,76.9371572298713,168.44253490065935,132.40884584983638,2.2,2.21,-228,-278,0,273,201,284,315.63037395477295,315.6304750442505,315.6341972351074,315.64357018470764,315.7954421043396,315.7954421043396,315.7954421043396,315.7954421043396,315.7954421043396,315.7954421043396,315.7954421043396,316.6976215839386,1,1.0519688129425049,None,,,,,,,,,,,,,,,,,,82,1,2025-02-21_14h55.37.920,comp,2024.2.4,57.22894969156733,2025-02-21 14h55.53.443660 -0500,
104,104,0,critical,dwh,35.0,4.0,lower,70.0,70.0,57.0,133.0,133.0,57.0,2,2.2988529205322266,None,,,,,0,0,0,0,0,104,104,64,316.7165503501892,,,,,,,,,,,,,,,,,,,,,,,,,,,,,,,,,,,,,,,,,,,,,,,,,,,,,,,,,,,,,,,,,,,,,,,,,,,,,,,,,70.0,70.0,57.0,133.0,133.0,57.0,4.0,4.2,-198,1,0,-288,191,-1,316.69927310943604,316.69935369491577,316.70340156555176,316.7165503501892,316.8591206073761,316.8591206073761,316.8591206073761,316.8591206073761,316.8591206073761,316.8591206073761,316.8591206073761,319.0274419784546,2,2.2988529205322266,None,,,,,,,,,,,,,,,,,,82,1,2025-02-21_14h55.37.920,comp,2024.2.4,57.22894969156733,2025-02-21 14h55.53.443660 -0500,
105,105,0,critical,dhw,35.0,2.1,lower,70.0,70.0,133.0,57.0,57.0,133.0,1,1.7801387310028076,None,,,,,0,0,0,0,0,105,105,0,319.04373931884766,,,,,,,,,,,,,,,,,,,,,,,,,,,,,,,,,,,,,,,,,,,,,,,,,,,,,,,,,,,,,,,,,,,,,,,,,,,,,,,,,70.0,70.0,133.0,57.0,57.0,133.0,2.1,2.11,-160,269,0,259,191,-254,319.0290756225586,319.0291793346405,319.03342175483704,319.04373931884766,319.1815686225891,319.1815686225891,319.1815686225891,319.1815686225891,319.1815686225891,319.1815686225891,319.1815686225891,320.8297748565674,1,1.7801387310028076,None,,,,,,,,,,,,,,,,,,82,1,2025-02-21_14h55.37.920,comp,2024.2.4,57.22894969156733,2025-02-21 14h55.53.443660 -0500,
106,106,0,filler_random,None,None,None,None,None,None,None,None,None,None,2,1.1848599910736084,None,,,,,0,0,0,0,0,106,106,140,320.8465766906738,,,,,,,,,,,,,,,,,,,,,,,,,,,,,,,,,,,,,,,,,,,,,,,,,,,,,,,,,,,,,,,,,,,,,,,,,,,,,,,,,190.7668801485487,84.32321352277697,137.45572659083322,198.49746003970253,110.54306541678514,104.37191221719229,2.2,2.22,-237,251,0,-288,247,-276,320.83105754852295,320.8311097621918,320.8336625099182,320.8465766906738,321.0045337677002,321.0045337677002,321.0045337677002,321.0045337677002,321.0045337677002,321.0045337677002,321.0045337677002,322.0473654270172,2,1.1848599910736084,None,,,,,,,,,,,,,,,,,,82,1,2025-02-21_14h55.37.920,comp,2024.2.4,57.22894969156733,2025-02-21 14h55.53.443660 -0500,
107,107,0,filler_square,None,None,None,None,None,None,None,None,None,None,1,4.760408163070679,None,,,,,0,0,0,0,0,107,107,187,322.0638258457184,,,,,,,,,,,,,,,,,,,,,,,,,,,,,,,,,,,,,,,,,,,,,,,,,,,,,,,,,,,,,,,,,,,,,,,,,,,,,,,,,169.6730578408414,169.6730578408414,161.23263966790597,162.75672072145653,145.10375075626789,107.90959418298627,2.2,2.22,-262,263,0,-255,231,-251,322.0493423938751,322.049418926239,322.0534574985504,322.0638258457184,322.2216970920563,322.2216970920563,322.2216970920563,322.2216970920563,322.2216970920563,322.2216970920563,322.2216970920563,326.8327383995056,1,4.760408163070679,None,,,,,,,,,,,,,,,,,,82,1,2025-02-21_14h55.37.920,comp,2024.2.4,57.22894969156733,2025-02-21 14h55.53.443660 -0500,
108,108,0,critical,dhw,20.0,2.1,lower,78.0,78.0,133.0,57.0,57.0,133.0,3,2.1505091190338135,None,,,,,0,0,0,0,0,108,108,2,326.8492810726166,,,,,,,,,,,,,,,,,,,,,,,,,,,,,,,,,,,,,,,,,,,,,,,,,,,,,,,,,,,,,,,,,,,,,,,,,,,,,,,,,78.0,78.0,133.0,57.0,57.0,133.0,2.1,2.11,-164,276,0,253,191,-260,326.834410905838,326.8345229625702,326.8384482860565,326.8492810726166,327.00652170181274,327.00652170181274,327.00652170181274,327.00652170181274,327.00652170181274,327.00652170181274,327.00652170181274,329.0018723011017,3,2.1505091190338135,None,,,,,,,,,,,,,,,,,,82,1,2025-02-21_14h55.37.920,comp,2024.2.4,57.22894969156733,2025-02-21 14h55.53.443660 -0500,
109,109,0,critical,hwd,35.0,2.1,lower,133.0,57.0,57.0,133.0,70.0,70.0,1,1.3098642826080322,None,,,,,0,0,0,0,0,109,109,16,329.0181794166565,,,,,,,,,,,,,,,,,,,,,,,,,,,,,,,,,,,,,,,,,,,,,,,,,,,,,,,,,,,,,,,,,,,,,,,,,,,,,,,,,133.0,57.0,57.0,133.0,70.0,70.0,2.1,2.11,-191,260,0,253,198,-265,329.0035662651062,329.0036473274231,329.0072600841522,329.0181794166565,329.16686058044434,329.16686058044434,329.16686058044434,329.16686058044434,329.16686058044434,329.16686058044434,329.16686058044434,330.3356740474701,1,1.3098642826080322,None,,,,,,,,,,,,,,,,,,82,1,2025-02-21_14h55.37.920,comp,2024.2.4,57.22894969156733,2025-02-21 14h55.53.443660 -0500,
110,110,0,critical,wdh,35.0,4.0,upper,125.0,200.0,127.0,127.0,200.0,125.0,3,1.792302131652832,None,,,,,0,0,0,0,0,110,110,77,330.3516001701355,,,,,,,,,,,,,,,,,,,,,,,,,,,,,,,,,,,,,,,,,,,,,,,,,,,,,,,,,,,,,,,,,,,,,,,,,,,,,,,,,125.0,200.0,127.0,127.0,200.0,125.0,4.0,4.2,-260,-8,0,-277,222,5,330.33753633499146,330.3376169204712,330.3409945964813,330.3516001701355,330.5002624988556,330.5002624988556,330.5002624988556,330.5002624988556,330.5002624988556,330.5002624988556,330.5002624988556,332.1490650177002,3,1.792302131652832,None,,,,,,,,,,,,,,,,,,82,1,2025-02-21_14h55.37.920,comp,2024.2.4,57.22894969156733,2025-02-21 14h55.53.443660 -0500,
111,111,0,critical,hdw,35.0,2.1,upper,200.0,125.0,127.0,127.0,125.0,200.0,3,2.201674699783325,None,,,,,0,0,0,0,0,111,111,21,332.1662940979004,,,,,,,,,,,,,,,,,,,,,,,,,,,,,,,,,,,,,,,,,,,,,,,,,,,,,,,,,,,,,,,,,,,,,,,,,,,,,,,,,200.0,125.0,127.0,127.0,125.0,200.0,2.1,2.12,-222,-253,0,-274,260,275,332.1506292819977,332.1507058143616,332.15445947647095,332.1662940979004,332.31782698631287,332.31782698631287,332.31782698631287,332.31782698631287,332.31782698631287,332.31782698631287,332.31782698631287,334.3700759410858,3,2.201674699783325,None,,,,,,,,,,,,,,,,,,82,1,2025-02-21_14h55.37.920,comp,2024.2.4,57.22894969156733,2025-02-21 14h55.53.443660 -0500,
112,112,0,catch,None,None,None,None,None,None,None,None,None,None,3,0.8518474102020264,None,,,,,0,0,0,0,0,112,112,129,334.3875370025635,,,,,,,,,,,,,,,,,,,,,,,,,,,,,,,,,,,,,,,,,,,,,,,,,,,,,,,,,,,,,,,,,,,,,,,,,,,,,,,,,122,68,71,119,127,198,4.0,4.1,-190,-257,0,18,254,-283,334.372341632843,334.3724226951599,334.3763988018036,334.3875370025635,334.52687406539917,334.52687406539917,334.52687406539917,334.52687406539917,334.52687406539917,334.52687406539917,334.52687406539917,335.24984645843506,3,0.8518474102020264,None,,,,,,,,,,,,,,,,,,82,1,2025-02-21_14h55.37.920,comp,2024.2.4,57.22894969156733,2025-02-21 14h55.53.443660 -0500,
113,113,0,critical,dwh,35.0,3.0,lower,70.0,70.0,57.0,133.0,133.0,57.0,2,1.531816005706787,None,,,,,0,0,0,0,0,113,113,62,335.2679994106293,,,,,,,,,,,,,,,,,,,,,,,,,,,,,,,,,,,,,,,,,,,,,,,,,,,,,,,,,,,,,,,,,,,,,,,,,,,,,,,,,70.0,70.0,57.0,133.0,133.0,57.0,3.0,3.1,-198,266,0,1,191,-277,335.2514138221741,335.25149178504944,335.25493025779724,335.2679994106293,335.4195339679718,335.4195339679718,335.4195339679718,335.4195339679718,335.4195339679718,335.4195339679718,335.4195339679718,336.8023946285248,2,1.531816005706787,None,,,,,,,,,,,,,,,,,,82,1,2025-02-21_14h55.37.920,comp,2024.2.4,57.22894969156733,2025-02-21 14h55.53.443660 -0500,
114,114,0,critical,hdw,20.0,3.0,upper,200.0,125.0,141.0,141.0,125.0,200.0,1,1.6210741996765137,None,,,,,0,0,0,0,0,114,114,117,336.81931233406067,,,,,,,,,,,,,,,,,,,,,,,,,,,,,,,,,,,,,,,,,,,,,,,,,,,,,,,,,,,,,,,,,,,,,,,,,,,,,,,,,200.0,125.0,141.0,141.0,125.0,200.0,3.0,3.1,-229,269,0,-12,266,-260,336.80403876304626,336.804114818573,336.8086037635803,336.81931233406067,336.96892786026,336.96892786026,336.96892786026,336.96892786026,336.96892786026,336.96892786026,336.96892786026,338.45213294029236,1,1.6210741996765137,None,,,,,,,,,,,,,,,,,,82,1,2025-02-21_14h55.37.920,comp,2024.2.4,57.22894969156733,2025-02-21 14h55.53.443660 -0500,
115,115,0,critical,dwh,20.0,2.1,upper,141.0,141.0,125.0,200.0,200.0,125.0,3,2.596592903137207,None,,,,,0,0,0,0,0,115,115,31,338.4671051502228,,,,,,,,,,,,,,,,,,,,,,,,,,,,,,,,,,,,,,,,,,,,,,,,,,,,,,,,,,,,,,,,,,,,,,,,,,,,,,,,,141.0,141.0,125.0,200.0,200.0,125.0,2.1,2.11,-266,287,0,275,258,-282,338.4537019729614,338.45378065109253,338.4574489593506,338.4671051502228,338.6184437274933,338.6184437274933,338.6184437274933,338.6184437274933,338.6184437274933,338.6184437274933,338.6184437274933,341.06880402565,3,2.596592903137207,None,,,,,,,,,,,,,,,,,,82,1,2025-02-21_14h55.37.920,comp,2024.2.4,57.22894969156733,2025-02-21 14h55.53.443660 -0500,
116,116,0,filler_square,None,None,None,None,None,None,None,None,None,None,3,1.0018031597137451,None,,,,,0,0,0,0,0,116,116,188,341.08576798439026,,,,,,,,,,,,,,,,,,,,,,,,,,,,,,,,,,,,,,,,,,,,,,,,,,,,,,,,,,,,,,,,,,,,,,,,,,,,,,,,,78.415977777284,76.51498533984685,84.18341775787087,112.25819369871184,117.4846107018216,117.4846107018216,1.0,1.1,-670,266,-480,290,-269,290,341.07047843933105,341.0705542564392,341.07409501075745,341.08576798439026,341.2405159473419,341.2405159473419,341.2405159473419,341.2405159473419,341.2405159473419,341.2405159473419,341.2405159473419,342.09275817871094,3,1.0018031597137451,None,,,,,,,,,,,,,,,,,,82,1,2025-02-21_14h55.37.920,comp,2024.2.4,57.22894969156733,2025-02-21 14h55.53.443660 -0500,
117,117,0,critical,whd,35.0,1.0,lower,57.0,133.0,133.0,57.0,70.0,70.0,2,2.667098045349121,None,,,,,0,0,0,0,0,117,117,84,342.1083266735077,,,,,,,,,,,,,,,,,,,,,,,,,,,,,,,,,,,,,,,,,,,,,,,,,,,,,,,,,,,,,,,,,,,,,,,,,,,,,,,,,57.0,133.0,133.0,57.0,70.0,70.0,1.0,1.3,289,-265,480,-274,640,-258,342.09427785873413,342.09435510635376,342.0976502895355,342.1083266735077,342.2542390823364,342.2542390823364,342.2542390823364,342.2542390823364,342.2542390823364,342.2542390823364,342.2542390823364,344.7886791229248,2,2.667098045349121,None,,,,,,,,,,,,,,,,,,82,1,2025-02-21_14h55.37.920,comp,2024.2.4,57.22894969156733,2025-02-21 14h55.53.443660 -0500,
118,118,0,filler_random,None,None,None,None,None,None,None,None,None,None,2,1.0106077194213867,None,,,,,0,0,0,0,0,118,118,130,344.8051481246948,,,,,,,,,,,,,,,,,,,,,,,,,,,,,,,,,,,,,,,,,,,,,,,,,,,,,,,,,,,,,,,,,,,,,,,,,,,,,,,,,128.30110731467525,96.20423628241969,195.20743288096116,82.49136150625102,60.43223478418034,82.54761629719793,3.0,3.2,-185,-259,0,13,179,288,344.7904284000397,344.79055881500244,344.79486417770386,344.8051481246948,344.95530366897583,344.95530366897583,344.95530366897583,344.95530366897583,344.95530366897583,344.95530366897583,344.95530366897583,345.8203456401825,2,1.0106077194213867,None,,,,,,,,,,,,,,,,,,82,1,2025-02-21_14h55.37.920,comp,2024.2.4,57.22894969156733,2025-02-21 14h55.53.443660 -0500,
119,119,0,critical,hwd,20.0,4.0,upper,200.0,125.0,125.0,200.0,141.0,141.0,1,1.3289122581481934,None,,,,,0,0,0,0,0,119,119,107,345.838666677475,,,,,,,,,,,,,,,,,,,,,,,,,,,,,,,,,,,,,,,,,,,,,,,,,,,,,,,,,,,,,,,,,,,,,,,,,,,,,,,,,200.0,125.0,125.0,200.0,141.0,141.0,4.0,4.1,-258,-283,0,-8,266,-290,345.82182097435,345.8218972682953,345.82539415359497,345.838666677475,345.98901557922363,345.98901557922363,345.98901557922363,345.98901557922363,345.98901557922363,345.98901557922363,345.98901557922363,347.1740388870239,1,1.3289122581481934,None,,,,,,,,,,,,,,,,,,82,1,2025-02-21_14h55.37.920,comp,2024.2.4,57.22894969156733,2025-02-21 14h55.53.443660 -0500,
120,120,0,filler_square,None,None,None,None,None,None,None,None,None,None,3,1.803525686264038,None,,,,,0,0,0,0,0,120,120,183,347.19595885276794,,,,,,,,,,,,,,,,,,,,,,,,,,,,,,,,,,,,,,,,,,,,,,,,,,,,,,,,,,,,,,,,,,,,,,,,,,,,,,,,,66.46581131222888,111.10015536016914,99.68456563339517,89.91424393715516,111.78275043039993,111.78275043039993,2.1,2.11,-197,266,0,274,197,-279,347.1760003566742,347.17611622810364,347.180091381073,347.19595885276794,347.3393793106079,347.3393793106079,347.3393793106079,347.3393793106079,347.3393793106079,347.3393793106079,347.3393793106079,349.0094311237335,3,1.803525686264038,None,,,,,,,,,,,,,,,,,,82,1,2025-02-21_14h55.37.920,comp,2024.2.4,57.22894969156733,2025-02-21 14h55.53.443660 -0500,
121,121,0,critical,wdh,35.0,4.0,lower,57.0,133.0,70.0,70.0,133.0,57.0,1,2.3664238452911377,None,,,,,0,0,0,0,0,121,121,76,349.02508449554443,,,,,,,,,,,,,,,,,,,,,,,,,,,,,,,,,,,,,,,,,,,,,,,,,,,,,,,,,,,,,,,,,,,,,,,,,,,,,,,,,57.0,133.0,70.0,70.0,133.0,57.0,4.0,4.1,-198,-270,0,4,160,-285,349.01106667518616,349.0111451148987,349.0145161151886,349.02508449554443,349.1730329990387,349.1730329990387,349.1730329990387,349.1730329990387,349.1730329990387,349.1730329990387,349.1730329990387,351.40598034858704,1,2.3664238452911377,None,,,,,,,,,,,,,,,,,,82,1,2025-02-21_14h55.37.920,comp,2024.2.4,57.22894969156733,2025-02-21 14h55.53.443660 -0500,
122,122,0,critical,dwh,20.0,3.0,lower,78.0,78.0,57.0,133.0,133.0,57.0,2,1.4020419120788574,None,,,,,0,0,0,0,0,122,122,68,351.4217481613159,,,,,,,,,,,,,,,,,,,,,,,,,,,,,,,,,,,,,,,,,,,,,,,,,,,,,,,,,,,,,,,,,,,,,,,,,,,,,,,,,78.0,78.0,57.0,133.0,133.0,57.0,3.0,3.1,-202,289,0,-20,191,-288,351.40755701065063,351.40763092041016,351.4115149974823,351.4217481613159,351.5714545249939,351.5714545249939,351.5714545249939,351.5714545249939,351.5714545249939,351.5714545249939,351.5714545249939,352.8352942466736,2,1.4020419120788574,None,,,,,,,,,,,,,,,,,,82,1,2025-02-21_14h55.37.920,comp,2024.2.4,57.22894969156733,2025-02-21 14h55.53.443660 -0500,
123,123,0,critical,wdh,35.0,2.1,upper,125.0,200.0,127.0,127.0,200.0,125.0,1,1.7831528186798096,None,,,,,0,0,0,0,0,123,123,33,352.85636806488037,,,,,,,,,,,,,,,,,,,,,,,,,,,,,,,,,,,,,,,,,,,,,,,,,,,,,,,,,,,,,,,,,,,,,,,,,,,,,,,,,125.0,200.0,127.0,127.0,200.0,125.0,2.1,2.12,-260,-253,0,-273,222,265,352.83688402175903,352.83697032928467,352.840633392334,352.85636806488037,352.9911456108093,352.9911456108093,352.9911456108093,352.9911456108093,352.9911456108093,352.9911456108093,352.9911456108093,354.65885186195374,1,1.7831528186798096,None,,,,,,,,,,,,,,,,,,82,1,2025-02-21_14h55.37.920,comp,2024.2.4,57.22894969156733,2025-02-21 14h55.53.443660 -0500,
124,124,0,filler_square,None,None,None,None,None,None,None,None,None,None,1,1.1142854690551758,None,,,,,0,0,0,0,0,124,124,190,354.67732858657837,,,,,,,,,,,,,,,,,,,,,,,,,,,,,,,,,,,,,,,,,,,,,,,,,,,,,,,,,,,,,,,,,,,,,,,,,,,,,,,,,152.8850266053047,152.8850266053047,66.98932348466356,111.02721510426487,114.47825801280777,128.9347465163834,1.0,1.3,252,-285,480,-286,696,-287,354.6608188152313,354.66089630126953,354.6648585796356,354.67732858657837,354.8257908821106,354.8257908821106,354.8257908821106,354.8257908821106,354.8257908821106,354.8257908821106,354.8257908821106,355.793790102005,1,1.1142854690551758,None,,,,,,,,,,,,,,,,,,82,1,2025-02-21_14h55.37.920,comp,2024.2.4,57.22894969156733,2025-02-21 14h55.53.443660 -0500,
125,125,0,critical,dhw,35.0,2.1,lower,70.0,70.0,133.0,57.0,57.0,133.0,2,3.0210301876068115,None,,,,,0,0,0,0,0,125,125,24,355.81115913391113,,,,,,,,,,,,,,,,,,,,,,,,,,,,,,,,,,,,,,,,,,,,,,,,,,,,,,,,,,,,,,,,,,,,,,,,,,,,,,,,,70.0,70.0,133.0,57.0,57.0,133.0,2.1,2.11,-160,280,0,262,191,-260,355.7955548763275,355.7957043647766,355.79985880851746,355.81115913391113,355.95851016044617,355.95851016044617,355.95851016044617,355.95851016044617,355.95851016044617,355.95851016044617,355.95851016044617,358.8421461582184,2,3.0210301876068115,None,,,,,,,,,,,,,,,,,,82,1,2025-02-21_14h55.37.920,comp,2024.2.4,57.22894969156733,2025-02-21 14h55.53.443660 -0500,
126,126,0,critical,hwd,20.0,1.0,lower,133.0,57.0,57.0,133.0,78.0,78.0,1,3.573107957839966,None,,,,,0,0,0,0,0,126,126,102,358.8589699268341,,,,,,,,,,,,,,,,,,,,,,,,,,,,,,,,,,,,,,,,,,,,,,,,,,,,,,,,,,,,,,,,,,,,,,,,,,,,,,,,,133.0,57.0,57.0,133.0,78.0,78.0,1.0,1.1,-671,277,-480,269,-278,289,358.84381318092346,358.8439190387726,358.84792304039,358.8589699268341,359.0148732662201,359.0148732662201,359.0148732662201,359.0148732662201,359.0148732662201,359.0148732662201,359.0148732662201,362.44026160240173,1,3.573107957839966,None,,,,,,,,,,,,,,,,,,82,1,2025-02-21_14h55.37.920,comp,2024.2.4,57.22894969156733,2025-02-21 14h55.53.443660 -0500,
127,127,0,filler_square,None,None,None,None,None,None,None,None,None,None,2,1.5099918842315674,None,,,,,0,0,0,0,0,127,127,176,362.4574296474457,,,,,,,,,,,,,,,,,,,,,,,,,,,,,,,,,,,,,,,,,,,,,,,,,,,,,,,,,,,,,,,,,,,,,,,,,,,,,,,,,69.85612173391026,64.15609329573472,74.77095057475401,74.77095057475401,65.98026179166223,69.54443759555346,1.0,1.2,-165,11,0,5,168,11,362.4422438144684,362.4423270225525,362.4460599422455,362.4574296474457,362.59797501564026,362.59797501564026,362.59797501564026,362.59797501564026,362.59797501564026,362.59797501564026,362.59797501564026,363.98015213012695,2,1.5099918842315674,None,,,,,,,,,,,,,,,,,,82,1,2025-02-21_14h55.37.920,comp,2024.2.4,57.22894969156733,2025-02-21 14h55.53.443660 -0500,
128,128,0,critical,dwh,35.0,2.1,upper,127.0,127.0,125.0,200.0,200.0,125.0,2,1.9619140625,None,,,,,0,0,0,0,0,128,128,29,363.99751830101013,,,,,,,,,,,,,,,,,,,,,,,,,,,,,,,,,,,,,,,,,,,,,,,,,,,,,,,,,,,,,,,,,,,,,,,,,,,,,,,,,127.0,127.0,125.0,200.0,200.0,125.0,2.1,2.11,-260,276,0,288,258,-284,363.981787443161,363.98186802864075,363.98560214042664,363.99751830101013,364.14776611328125,364.14776611328125,364.14776611328125,364.14776611328125,364.14776611328125,364.14776611328125,364.14776611328125,365.9776225090027,2,1.9619140625,None,,,,,,,,,,,,,,,,,,82,1,2025-02-21_14h55.37.920,comp,2024.2.4,57.22894969156733,2025-02-21 14h55.53.443660 -0500,
129,129,0,critical,wdh,20.0,1.0,upper,125.0,200.0,141.0,141.0,200.0,125.0,1,1.1650276184082031,None,,,,,0,0,0,0,0,129,129,79,365.9944398403168,,,,,,,,,,,,,,,,,,,,,,,,,,,,,,,,,,,,,,,,,,,,,,,,,,,,,,,,,,,,,,,,,,,,,,,,,,,,,,,,,125.0,200.0,141.0,141.0,200.0,125.0,1.0,1.2,-266,-7,0,-11,229,-7,365.97912549972534,365.97920179367065,365.98357820510864,365.9944398403168,366.14316272735596,366.14316272735596,366.14316272735596,366.14316272735596,366.14316272735596,366.14316272735596,366.14316272735596,367.1626241207123,1,1.1650276184082031,None,,,,,,,,,,,,,,,,,,82,1,2025-02-21_14h55.37.920,comp,2024.2.4,57.22894969156733,2025-02-21 14h55.53.443660 -0500,
130,130,0,filler_square,None,None,None,None,None,None,None,None,None,None,1,0.8116068840026855,None,,,,,0,0,0,0,0,130,130,203,367.17984342575073,,,,,,,,,,,,,,,,,,,,,,,,,,,,,,,,,,,,,,,,,,,,,,,,,,,,,,,,,,,,,,,,,,,,,,,,,,,,,,,,,145.25512848193483,145.25512848193483,108.46467521054564,104.9942899494396,141.4784620102198,81.64232785830515,3.0,3.2,-221,-256,0,-9,189,277,367.16473150253296,367.1648118495941,367.1688013076782,367.17984342575073,367.3188154697418,367.3188154697418,367.3188154697418,367.3188154697418,367.3188154697418,367.3188154697418,367.3188154697418,367.99461603164673,1,0.8116068840026855,None,,,,,,,,,,,,,,,,,,82,1,2025-02-21_14h55.37.920,comp,2024.2.4,57.22894969156733,2025-02-21 14h55.53.443660 -0500,
131,131,0,critical,hwd,35.0,1.0,upper,200.0,125.0,125.0,200.0,127.0,127.0,1,1.4446332454681396,None,,,,,0,0,0,0,0,131,131,97,368.01130747795105,,,,,,,,,,,,,,,,,,,,,,,,,,,,,,,,,,,,,,,,,,,,,,,,,,,,,,,,,,,,,,,,,,,,,,,,,,,,,,,,,200.0,125.0,125.0,200.0,127.0,127.0,1.0,1.1,-738,255,-480,273,-220,254,367.99630880355835,367.9963855743408,368.0003545284271,368.01130747795105,368.16292667388916,368.16292667388916,368.16292667388916,368.16292667388916,368.16292667388916,368.16292667388916,368.16292667388916,369.46287178993225,1,1.4446332454681396,None,,,,,,,,,,,,,,,,,,82,1,2025-02-21_14h55.37.920,comp,2024.2.4,57.22894969156733,2025-02-21 14h55.53.443660 -0500,
132,132,0,filler_square,None,None,None,None,None,None,None,None,None,None,3,1.624180555343628,None,,,,,0,0,0,0,0,132,132,202,369.4794738292694,,,,,,,,,,,,,,,,,,,,,,,,,,,,,,,,,,,,,,,,,,,,,,,,,,,,,,,,,,,,,,,,,,,,,,,,,,,,,,,,,74.92599321691583,63.58448554978951,72.50221986545893,80.40839994218418,96.18770475747108,96.18770475747108,1.0,1.2,-168,1,0,-14,184,6,369.46475481987,369.46487617492676,369.46878242492676,369.4794738292694,369.62838101387024,369.62838101387024,369.62838101387024,369.62838101387024,369.62838101387024,369.62838101387024,369.62838101387024,371.1122772693634,3,1.624180555343628,None,,,,,,,,,,,,,,,,,,82,1,2025-02-21_14h55.37.920,comp,2024.2.4,57.22894969156733,2025-02-21 14h55.53.443660 -0500,
133,133,0,filler_random,None,None,None,None,None,None,None,None,None,None,2,1.350855827331543,None,,,,,0,0,0,0,0,133,133,169,371.128755569458,,,,,,,,,,,,,,,,,,,,,,,,,,,,,,,,,,,,,,,,,,,,,,,,,,,,,,,,,,,,,,,,,,,,,,,,,,,,,,,,,198.13325557086532,69.69799939851961,129.64485734851155,163.01503968339415,136.24365008507726,103.02636114641244,4.0,4.2,-212,17,0,-269,229,13,371.11404395103455,371.1141219139099,371.1178469657898,371.128755569458,371.2797565460205,371.2797565460205,371.2797565460205,371.2797565460205,371.2797565460205,371.2797565460205,371.2797565460205,372.495641708374,2,1.350855827331543,None,,,,,,,,,,,,,,,,,,82,1,2025-02-21_14h55.37.920,comp,2024.2.4,57.22894969156733,2025-02-21 14h55.53.443660 -0500,
134,134,0,critical,hdw,20.0,4.0,lower,133.0,57.0,78.0,78.0,57.0,133.0,3,1.6785094738006592,None,,,,,0,0,0,0,0,134,134,118,372.5136761665344,,,,,,,,,,,,,,,,,,,,,,,,,,,,,,,,,,,,,,,,,,,,,,,,,,,,,,,,,,,,,,,,,,,,,,,,,,,,,,,,,133.0,57.0,78.0,78.0,57.0,133.0,4.0,4.2,-164,-9,0,-281,202,-19,372.49716544151306,372.4972839355469,372.5008668899536,372.5136761665344,372.666627407074,372.666627407074,372.666627407074,372.666627407074,372.666627407074,372.666627407074,372.666627407074,374.1969630718231,3,1.6785094738006592,None,,,,,,,,,,,,,,,,,,82,1,2025-02-21_14h55.37.920,comp,2024.2.4,57.22894969156733,2025-02-21 14h55.53.443660 -0500,
135,135,0,filler_random,None,None,None,None,None,None,None,None,None,None,3,1.0831522941589355,None,,,,,0,0,0,0,0,135,135,168,374.21261262893677,,,,,,,,,,,,,,,,,,,,,,,,,,,,,,,,,,,,,,,,,,,,,,,,,,,,,,,,,,,,,,,,,,,,,,,,,,,,,,,,,60.4620845293905,68.00401979684781,87.10854777893348,79.40077722220553,119.18273375105147,121.93044874994044,4.0,4.2,-170,0,0,-250,197,-20,374.19866704940796,374.198744058609,374.20287585258484,374.21261262893677,374.35136246681213,374.35136246681213,374.35136246681213,374.35136246681213,374.35136246681213,374.35136246681213,374.35136246681213,375.3135344982147,3,1.0831522941589355,None,,,,,,,,,,,,,,,,,,82,1,2025-02-21_14h55.37.920,comp,2024.2.4,57.22894969156733,2025-02-21 14h55.53.443660 -0500,
136,136,0,filler_square,None,None,None,None,None,None,None,None,None,None,3,0.9269182682037354,None,,,,,0,0,0,0,0,136,136,194,375.32940006256104,,,,,,,,,,,,,,,,,,,,,,,,,,,,,,,,,,,,,,,,,,,,,,,,,,,,,,,,,,,,,,,,,,,,,,,,,,,,,,,,,111.7929487622835,89.45047817014157,65.64961820463647,118.2638592252661,127.71971564440551,127.71971564440551,4.0,4.2,-200,-10,0,-285,219,-1,375.31536626815796,375.315443277359,375.3191587924957,375.32940006256104,375.4789595603943,375.4789595603943,375.4789595603943,375.4789595603943,375.4789595603943,375.4789595603943,375.4789595603943,376.26461386680603,3,0.9269182682037354,None,,,,,,,,,,,,,,,,,,82,1,2025-02-21_14h55.37.920,comp,2024.2.4,57.22894969156733,2025-02-21 14h55.53.443660 -0500,
137,137,0,critical,dhw,20.0,2.1,upper,141.0,141.0,200.0,125.0,125.0,200.0,2,1.3916103839874268,None,,,,,0,0,0,0,0,137,137,3,376.2807068824768,,,,,,,,,,,,,,,,,,,,,,,,,,,,,,,,,,,,,,,,,,,,,,,,,,,,,,,,,,,,,,,,,,,,,,,,,,,,,,,,,141.0,141.0,200.0,125.0,125.0,200.0,2.1,2.12,-229,-262,0,-261,258,278,376.2660388946533,376.26611733436584,376.2700138092041,376.2807068824768,376.4304630756378,376.4304630756378,376.4304630756378,376.4304630756378,376.4304630756378,376.4304630756378,376.4304630756378,377.6817617416382,2,1.3916103839874268,None,,,,,,,,,,,,,,,,,,82,1,2025-02-21_14h55.37.920,comp,2024.2.4,57.22894969156733,2025-02-21 14h55.53.443660 -0500,
138,138,0,filler_random,None,None,None,None,None,None,None,None,None,None,2,1.1004817485809326,None,,,,,0,0,0,0,0,138,138,149,377.69925260543823,,,,,,,,,,,,,,,,,,,,,,,,,,,,,,,,,,,,,,,,,,,,,,,,,,,,,,,,,,,,,,,,,,,,,,,,,,,,,,,,,118.33410747743974,113.88295930875572,190.18028119702046,149.66382549779394,114.72157936566607,170.47178024937145,3.0,3.1,-228,267,0,-6,256,-251,377.6834988594055,377.68357372283936,377.687805891037,377.69925260543823,377.8531403541565,377.8531403541565,377.8531403541565,377.8531403541565,377.8531403541565,377.8531403541565,377.8531403541565,378.8045995235443,2,1.1004817485809326,None,,,,,,,,,,,,,,,,,,82,1,2025-02-21_14h55.37.920,comp,2024.2.4,57.22894969156733,2025-02-21 14h55.53.443660 -0500,
139,139,0,filler_square,None,None,None,None,None,None,None,None,None,None,3,1.111881971359253,None,,,,,0,0,0,0,0,139,139,186,378.82360792160034,,,,,,,,,,,,,,,,,,,,,,,,,,,,,,,,,,,,,,,,,,,,,,,,,,,,,,,,,,,,,,,,,,,,,,,,,,,,,,,,,95.1558849030624,108.51617704528218,64.87623151429423,129.98768709188738,183.4986224469315,183.4986224469315,4.0,4.1,-215,-257,0,19,253,-252,378.8066017627716,378.80668020248413,378.8104512691498,378.82360792160034,378.96474409103394,378.96474409103394,378.96474409103394,378.96474409103394,378.96474409103394,378.96474409103394,378.96474409103394,379.94971776008606,3,1.111881971359253,None,,,,,,,,,,,,,,,,,,82,1,2025-02-21_14h55.37.920,comp,2024.2.4,57.22894969156733,2025-02-21 14h55.53.443660 -0500,
140,140,0,critical,hwd,35.0,2.1,upper,200.0,125.0,125.0,200.0,127.0,127.0,1,1.585930347442627,None,,,,,0,0,0,0,0,140,140,17,379.96565794944763,,,,,,,,,,,,,,,,,,,,,,,,,,,,,,,,,,,,,,,,,,,,,,,,,,,,,,,,,,,,,,,,,,,,,,,,,,,,,,,,,200.0,125.0,125.0,200.0,127.0,127.0,2.1,2.12,-258,-251,0,-253,260,275,379.9512791633606,379.95135855674744,379.95490431785583,379.96565794944763,380.11639285087585,380.11639285087585,380.11639285087585,380.11639285087585,380.11639285087585,380.11639285087585,380.11639285087585,381.5666711330414,1,1.585930347442627,None,,,,,,,,,,,,,,,,,,82,1,2025-02-21_14h55.37.920,comp,2024.2.4,57.22894969156733,2025-02-21 14h55.53.443660 -0500,
