thisN,thisTrialN,thisRepN,effect,order,distance,config,diag,h_1,w_1,h_2,w_2,h_3,w_3,rect_choice.keys,rect_choice.rt,rect_choice.duration,instructions_loop.thisRepN,instructions_loop.thisTrialN,instructions_loop.thisN,instructions_loop.thisIndex,blocks.thisRepN,blocks.thisTrialN,blocks.thisN,blocks.thisIndex,trials.thisRepN,trials.thisTrialN,trials.thisN,trials.thisIndex,thisRow.t,notes,consent.started,agree_button.started,decline_button.started,consent_img.started,mouse.started,consent.stopped,agree_button.numClicks,agree_button.timesOn,agree_button.timesOff,decline_button.numClicks,decline_button.timesOn,decline_button.timesOff,mouse.x,mouse.y,mouse.leftButton,mouse.midButton,mouse.rightButton,mouse.time,mouse.clicked_name,exp_params.started,exp_params.stopped,welcome.started,welcome_text.started,welcome.stopped,instructions_1.started,instructions_1_text_1.started,instructions_1_text_2.started,key_resp.started,instructions_1.stopped,instructions_loop.key_resp.keys,instructions_loop.key_resp.rt,instructions_loop.key_resp.duration,instructions_2.started,instructions_2_text_1.started,instructions_2_text_2.started,key_resp_2.started,instructions_2.stopped,instructions_loop.key_resp_2.keys,instructions_loop.key_resp_2.rt,instructions_loop.key_resp_2.duration,instructions_3.started,instructions_3_text_1.started,r1_instr3.started,r2_instr3.started,r3_instr3.started,r1_instr3_label.started,r2_instr3_label.started,r3_instr3_label.started,instructions_3_text_3.started,instructions_3_text_4.started,key_resp_3.started,instructions_3.stopped,instructions_loop.key_resp_3.keys,instructions_loop.key_resp_3.rt,instructions_loop.key_resp_3.duration,instructions_4.started,instructions_4_text_1.started,instructions_4_text_3.started,instructions_4_text_2.started,key_resp_4.started,instructions_4.stopped,instructions_loop.key_resp_4.keys,instructions_loop.key_resp_4.rt,instructions_loop.key_resp_4.duration,instructions_5.started,instructions_5_text_1.started,instructions_5_text_2.started,key_resp_5.started,instructions_5.stopped,instructions_loop.key_resp_5.keys,instructions_loop.key_resp_5.rt,instructions_loop.key_resp_5.duration,start_exp.started,start_exp_text.started,key_resp_6.started,start_exp.stopped,key_resp_6.keys,key_resp_6.rt,key_resp_6.duration,h_1_tmp,w_1_tmp,h_2_tmp,w_2_tmp,h_3_tmp,w_3_tmp,config_tmp,config_tmp_1,r_1_x,r_1_y,r_2_x,r_2_y,r_3_x,r_3_y,pre_trial.started,pre_trial.stopped,choice_trial.started,rect_choice.started,r_1.started,r_2.started,r_3.started,r_1_label.started,r_2_label.started,r_3_label.started,prompt.started,choice_trial.stopped,trials.rect_choice.keys,trials.rect_choice.rt,trials.rect_choice.duration,end_block.started,end_block_text.started,end_block.stopped,end.started,end_text.started,key_resp_7.started,end.stopped,key_resp_7.keys,key_resp_7.rt,key_resp_7.duration,debriefing.started,debrief_form.started,end_debrief.started,debriefing.stopped,end_debrief.keys,end_debrief.rt,end_debrief.duration,participant,computer,date,expName,psychopyVersion,frameRate,expStart,
,,,,,,,,,,,,,,,,,,,,,,,,,,,,,,,0.014524221420288086,0.037293434143066406,0.037293434143066406,0.037293434143066406,0.014342784881591797,8.891955375671387,1,[8.852425813674927],[8.852445840835571],0,,,[-70.0],[-502.0],[1],[0],[0],[8.876861810684204],['agree_button'],,,,,,,,,,,,,,,,,,,,,,,,,,,,,,,,,,,,,,,,,,,,,,,,,,,,,,,,,,,,,,,,,,,,,,,,,,,,,,,,,,,,,,,,,,,,,,,,,,,,,,,,,,,83,2,2025-02-21_14h55.33.224,comp,2024.2.4,56.411144764661266,2025-02-21 14h55.55.624878 -0500,
,,,,,,,,,,,,,,,,,,,,,,,,,,,,,,,,,,,,,,,,,,,,,,,,,,8.892457723617554,8.892524003982544,,,,,,,,,,,,,,,,,,,,,,,,,,,,,,,,,,,,,,,,,,,,,,,,,,,,,,,,,,,,,,,,,,,,,,,,,,,,,,,,,,,,,,,,,,,,,,,,,,,,,,,,,83,2,2025-02-21_14h55.33.224,comp,2024.2.4,56.411144764661266,2025-02-21 14h55.55.624878 -0500,
,,,,,,,,,,,,,,,,,,,,,,,,,,,,,,,,,,,,,,,,,,,,,,,,,,,,8.892605543136597,8.908287525177002,10.90187120437622,,,,,,,,,,,,,,,,,,,,,,,,,,,,,,,,,,,,,,,,,,,,,,,,,,,,,,,,,,,,,,,,,,,,,,,,,,,,,,,,,,,,,,,,,,,,,,,,,,,,,,83,2,2025-02-21_14h55.33.224,comp,2024.2.4,56.411144764661266,2025-02-21 14h55.55.624878 -0500,
0,0,0,,,,,,,,,,,,,,,0,0,0,0,,,,,,,,,10.918589353561401,,,,,,,,,,,,,,,,,,,,,,,,,,10.902829885482788,10.918589353561401,10.918589353561401,12.40085506439209,17.55349040031433,space,5.132535934448242,None,17.553673028945923,17.571762561798096,17.571762561798096,19.054399490356445,30.34162473678589,space,11.278957605361938,None,30.3417809009552,30.37617826461792,30.37617826461792,30.37617826461792,30.37617826461792,30.37617826461792,30.37617826461792,30.37617826461792,30.37617826461792,30.37617826461792,31.847236394882202,41.36365270614624,space,9.501414060592651,None,41.363816261291504,41.38263940811157,41.38263940811157,41.38263940811157,42.877004861831665,50.31450343132019,space,7.423675298690796,None,50.31468319892883,50.329654693603516,50.329654693603516,51.81426286697388,54.51708984375,space,2.6950273513793945,None,54.517290353775024,54.532387495040894,54.532387495040894,56.26818513870239,space,1.7204225063323975,None,,,,,,,,,,,,,,,,,,,,,,,,,,,,,,,,,,,,,,,,,,,,,,,83,2,2025-02-21_14h55.33.224,comp,2024.2.4,56.411144764661266,2025-02-21 14h55.55.624878 -0500,
0,0,0,filler_square,None,None,None,None,None,None,None,None,None,None,1,1.449310541152954,None,,,,,0,0,0,0,0,0,0,209,56.348018169403076,,,,,,,,,,,,,,,,,,,,,,,,,,,,,,,,,,,,,,,,,,,,,,,,,,,,,,,,,,,,,,,,,,,,,,,,,,,,,,,,,142.38623173471814,142.38623173471814,118.42770449307932,97.25119779240595,77.10024494672506,62.51421020616245,4.0,4.1,-216,-271,0,-19,176,-259,56.33210611343384,56.332138538360596,56.33332180976868,56.348018169403076,56.492706060409546,56.492706060409546,56.492706060409546,56.492706060409546,56.492706060409546,56.492706060409546,56.492706060409546,57.80402088165283,1,1.449310541152954,None,,,,,,,,,,,,,,,,,,83,2,2025-02-21_14h55.33.224,comp,2024.2.4,56.411144764661266,2025-02-21 14h55.55.624878 -0500,
1,1,0,critical,dwh,35.0,4.0,upper,127.0,127.0,125.0,200.0,200.0,125.0,3,2.612889528274536,None,,,,,0,0,0,0,0,1,1,65,57.823814153671265,,,,,,,,,,,,,,,,,,,,,,,,,,,,,,,,,,,,,,,,,,,,,,,,,,,,,,,,,,,,,,,,,,,,,,,,,,,,,,,,,127.0,127.0,125.0,200.0,200.0,125.0,4.0,4.2,-260,-11,0,-263,258,7,57.80564045906067,57.80570316314697,57.80827760696411,57.823814153671265,57.967419147491455,57.967419147491455,57.967419147491455,57.967419147491455,57.967419147491455,57.967419147491455,57.967419147491455,60.451786041259766,3,2.612889528274536,None,,,,,,,,,,,,,,,,,,83,2,2025-02-21_14h55.33.224,comp,2024.2.4,56.411144764661266,2025-02-21 14h55.55.624878 -0500,
2,2,0,critical,whd,35.0,1.0,lower,57.0,133.0,133.0,57.0,70.0,70.0,2,3.3537607192993164,None,,,,,0,0,0,0,0,2,2,84,60.46697115898132,,,,,,,,,,,,,,,,,,,,,,,,,,,,,,,,,,,,,,,,,,,,,,,,,,,,,,,,,,,,,,,,,,,,,,,,,,,,,,,,,57.0,133.0,133.0,57.0,70.0,70.0,1.0,1.3,289,-267,480,-287,640,-288,60.45333433151245,60.45341348648071,60.45674252510071,60.46697115898132,60.61654615402222,60.61654615402222,60.61654615402222,60.61654615402222,60.61654615402222,60.61654615402222,60.61654615402222,63.835777282714844,2,3.3537607192993164,None,,,,,,,,,,,,,,,,,,83,2,2025-02-21_14h55.33.224,comp,2024.2.4,56.411144764661266,2025-02-21 14h55.55.624878 -0500,
3,3,0,filler_random,None,None,None,None,None,None,None,None,None,None,1,2.060511350631714,None,,,,,0,0,0,0,0,3,3,147,63.85610032081604,,,,,,,,,,,,,,,,,,,,,,,,,,,,,,,,,,,,,,,,,,,,,,,,,,,,,,,,,,,,,,,,,,,,,,,,,,,,,,,,,175.26803309792714,156.04113812582227,160.1570134142041,75.13858354447878,159.19093593905774,163.8727821769067,4.0,4.1,-212,-270,0,13,216,-278,63.83770179748535,63.837785959243774,63.84099006652832,63.85610032081604,64.0024242401123,64.0024242401123,64.0024242401123,64.0024242401123,64.0024242401123,64.0024242401123,64.0024242401123,65.92630887031555,1,2.060511350631714,None,,,,,,,,,,,,,,,,,,83,2,2025-02-21_14h55.33.224,comp,2024.2.4,56.411144764661266,2025-02-21 14h55.55.624878 -0500,
4,4,0,critical,wdh,20.0,4.0,upper,125.0,200.0,141.0,141.0,200.0,125.0,3,2.3106417655944824,None,,,,,0,0,0,0,0,4,4,83,65.94226145744324,,,,,,,,,,,,,,,,,,,,,,,,,,,,,,,,,,,,,,,,,,,,,,,,,,,,,,,,,,,,,,,,,,,,,,,,,,,,,,,,,125.0,200.0,141.0,141.0,200.0,125.0,4.0,4.2,-266,-4,0,-289,229,12,65.92786026000977,65.9279375076294,65.93077802658081,65.94226145744324,66.08815860748291,66.08815860748291,66.08815860748291,66.08815860748291,66.08815860748291,66.08815860748291,66.08815860748291,68.27046346664429,3,2.3106417655944824,None,,,,,,,,,,,,,,,,,,83,2,2025-02-21_14h55.33.224,comp,2024.2.4,56.411144764661266,2025-02-21 14h55.55.624878 -0500,
5,5,0,critical,hdw,20.0,3.0,upper,200.0,125.0,141.0,141.0,125.0,200.0,1,2.850717544555664,None,,,,,0,0,0,0,0,5,5,117,68.29003167152405,,,,,,,,,,,,,,,,,,,,,,,,,,,,,,,,,,,,,,,,,,,,,,,,,,,,,,,,,,,,,,,,,,,,,,,,,,,,,,,,,200.0,125.0,141.0,141.0,125.0,200.0,3.0,3.1,-229,264,0,1,266,-266,68.27188658714294,68.27195858955383,68.27486729621887,68.29003167152405,68.43970704078674,68.43970704078674,68.43970704078674,68.43970704078674,68.43970704078674,68.43970704078674,68.43970704078674,71.15797686576843,1,2.850717544555664,None,,,,,,,,,,,,,,,,,,83,2,2025-02-21_14h55.33.224,comp,2024.2.4,56.411144764661266,2025-02-21 14h55.55.624878 -0500,
6,6,0,critical,dhw,20.0,2.1,upper,141.0,141.0,200.0,125.0,125.0,200.0,2,2.8071179389953613,None,,,,,0,0,0,0,0,6,6,3,71.17371773719788,,,,,,,,,,,,,,,,,,,,,,,,,,,,,,,,,,,,,,,,,,,,,,,,,,,,,,,,,,,,,,,,,,,,,,,,,,,,,,,,,141.0,141.0,200.0,125.0,125.0,200.0,2.1,2.11,-229,275,0,278,258,-275,71.15969204902649,71.15976881980896,71.1628737449646,71.17371773719788,71.32326030731201,71.32326030731201,71.32326030731201,71.32326030731201,71.32326030731201,71.32326030731201,71.32326030731201,73.98940396308899,2,2.8071179389953613,None,,,,,,,,,,,,,,,,,,83,2,2025-02-21_14h55.33.224,comp,2024.2.4,56.411144764661266,2025-02-21 14h55.55.624878 -0500,
7,7,0,filler_random,None,None,None,None,None,None,None,None,None,None,1,2.1618640422821045,None,,,,,0,0,0,0,0,7,7,158,74.00535297393799,,,,,,,,,,,,,,,,,,,,,,,,,,,,,,,,,,,,,,,,,,,,,,,,,,,,,,,,,,,,,,,,,,,,,,,,,,,,,,,,,142.0767125739941,122.39528584317996,62.45306421615079,169.95841620012425,122.27501341995062,69.17060858050104,1.0,1.1,-722,276,-480,274,-264,256,73.99108982086182,73.99116683006287,73.99460339546204,74.00535297393799,74.15598392486572,74.15598392486572,74.15598392486572,74.15598392486572,74.15598392486572,74.15598392486572,74.15598392486572,76.17258381843567,1,2.1618640422821045,None,,,,,,,,,,,,,,,,,,83,2,2025-02-21_14h55.33.224,comp,2024.2.4,56.411144764661266,2025-02-21 14h55.55.624878 -0500,
8,8,0,filler_square,None,None,None,None,None,None,None,None,None,None,1,2.2200429439544678,None,,,,,0,0,0,0,0,8,8,178,76.19266772270203,,,,,,,,,,,,,,,,,,,,,,,,,,,,,,,,,,,,,,,,,,,,,,,,,,,,,,,,,,,,,,,,,,,,,,,,,,,,,,,,,83.00934912339383,83.00934912339383,66.92324280980861,61.384461949344114,69.72274578741576,66.5862886133447,1.0,1.2,-168,2,0,-14,160,7,76.17430114746094,76.17437958717346,76.17753386497498,76.19266772270203,76.34122395515442,76.34122395515442,76.34122395515442,76.34122395515442,76.34122395515442,76.34122395515442,76.34122395515442,78.42397046089172,1,2.2200429439544678,None,,,,,,,,,,,,,,,,,,83,2,2025-02-21_14h55.33.224,comp,2024.2.4,56.411144764661266,2025-02-21 14h55.55.624878 -0500,
9,9,0,filler_square,None,None,None,None,None,None,None,None,None,None,3,2.348848819732666,None,,,,,0,0,0,0,0,9,9,206,78.43989062309265,,,,,,,,,,,,,,,,,,,,,,,,,,,,,,,,,,,,,,,,,,,,,,,,,,,,,,,,,,,,,,,,,,,,,,,,,,,,,,,,,139.86039832519572,85.13763118904627,129.36611417642973,140.8042270648432,164.70846578505777,164.70846578505777,4.0,4.2,-209,20,0,-269,249,4,78.42571139335632,78.42580389976501,78.4290623664856,78.43989062309265,78.59291315078735,78.59291315078735,78.59291315078735,78.59291315078735,78.59291315078735,78.59291315078735,78.59291315078735,80.79396939277649,3,2.348848819732666,None,,,,,,,,,,,,,,,,,,83,2,2025-02-21_14h55.33.224,comp,2024.2.4,56.411144764661266,2025-02-21 14h55.55.624878 -0500,
10,10,0,critical,dwh,20.0,2.1,upper,141.0,141.0,125.0,200.0,200.0,125.0,2,1.7061049938201904,None,,,,,0,0,0,0,0,10,10,7,80.81063413619995,,,,,,,,,,,,,,,,,,,,,,,,,,,,,,,,,,,,,,,,,,,,,,,,,,,,,,,,,,,,,,,,,,,,,,,,,,,,,,,,,141.0,141.0,125.0,200.0,200.0,125.0,2.1,2.11,-266,276,0,279,258,-281,80.7956109046936,80.79569005966187,80.79904580116272,80.81063413619995,80.96274280548096,80.96274280548096,80.96274280548096,80.96274280548096,80.96274280548096,80.96274280548096,80.96274280548096,82.53005194664001,2,1.7061049938201904,None,,,,,,,,,,,,,,,,,,83,2,2025-02-21_14h55.33.224,comp,2024.2.4,56.411144764661266,2025-02-21 14h55.55.624878 -0500,
11,11,0,critical,hdw,20.0,2.1,lower,133.0,57.0,78.0,78.0,57.0,133.0,3,3.550022840499878,None,,,,,0,0,0,0,0,11,11,22,82.55063557624817,,,,,,,,,,,,,,,,,,,,,,,,,,,,,,,,,,,,,,,,,,,,,,,,,,,,,,,,,,,,,,,,,,,,,,,,,,,,,,,,,133.0,57.0,78.0,78.0,57.0,133.0,2.1,2.11,-164,287,0,272,202,-256,82.53165793418884,82.53173446655273,82.53497886657715,82.55063557624817,82.6929566860199,82.6929566860199,82.6929566860199,82.6929566860199,82.6929566860199,82.6929566860199,82.6929566860199,86.11414527893066,3,3.550022840499878,None,,,,,,,,,,,,,,,,,,83,2,2025-02-21_14h55.33.224,comp,2024.2.4,56.411144764661266,2025-02-21 14h55.55.624878 -0500,
12,12,0,critical,dwh,20.0,4.0,lower,78.0,78.0,57.0,133.0,133.0,57.0,3,3.4352188110351562,None,,,,,0,0,0,0,0,12,12,70,86.12946009635925,,,,,,,,,,,,,,,,,,,,,,,,,,,,,,,,,,,,,,,,,,,,,,,,,,,,,,,,,,,,,,,,,,,,,,,,,,,,,,,,,78.0,78.0,57.0,133.0,133.0,57.0,4.0,4.2,-202,4,0,-260,191,6,86.11582803726196,86.1159040927887,86.11914372444153,86.12946009635925,86.27653574943542,86.27653574943542,86.27653574943542,86.27653574943542,86.27653574943542,86.27653574943542,86.27653574943542,89.57569026947021,3,3.4352188110351562,None,,,,,,,,,,,,,,,,,,83,2,2025-02-21_14h55.33.224,comp,2024.2.4,56.411144764661266,2025-02-21 14h55.55.624878 -0500,
13,13,0,critical,hdw,20.0,3.0,lower,133.0,57.0,78.0,78.0,57.0,133.0,1,4.253081321716309,None,,,,,0,0,0,0,0,13,13,116,89.59177017211914,,,,,,,,,,,,,,,,,,,,,,,,,,,,,,,,,,,,,,,,,,,,,,,,,,,,,,,,,,,,,,,,,,,,,,,,,,,,,,,,,133.0,57.0,78.0,78.0,57.0,133.0,3.0,3.1,-164,258,0,6,202,-284,89.5772635936737,89.57733988761902,89.58020162582397,89.59177017211914,89.7434446811676,89.7434446811676,89.7434446811676,89.7434446811676,89.7434446811676,89.7434446811676,89.7434446811676,93.84821343421936,1,4.253081321716309,None,,,,,,,,,,,,,,,,,,83,2,2025-02-21_14h55.33.224,comp,2024.2.4,56.411144764661266,2025-02-21 14h55.55.624878 -0500,
14,14,0,filler_random,None,None,None,None,None,None,None,None,None,None,3,1.540471076965332,None,,,,,0,0,0,0,0,14,14,166,93.86453676223755,,,,,,,,,,,,,,,,,,,,,,,,,,,,,,,,,,,,,,,,,,,,,,,,,,,,,,,,,,,,,,,,,,,,,,,,,,,,,,,,,59.65562605601214,119.32653082399517,105.31743803606872,142.91527423391733,154.12314829738278,137.29154592265303,2.2,2.22,-227,261,0,-250,236,-258,93.85017538070679,93.85026025772095,93.8536057472229,93.86453676223755,94.0152199268341,94.0152199268341,94.0152199268341,94.0152199268341,94.0152199268341,94.0152199268341,94.0152199268341,95.42211389541626,3,1.540471076965332,None,,,,,,,,,,,,,,,,,,83,2,2025-02-21_14h55.33.224,comp,2024.2.4,56.411144764661266,2025-02-21 14h55.55.624878 -0500,
15,15,0,critical,hdw,35.0,3.0,upper,200.0,125.0,127.0,127.0,125.0,200.0,3,2.630549669265747,None,,,,,0,0,0,0,0,15,15,111,95.43838143348694,,,,,,,,,,,,,,,,,,,,,,,,,,,,,,,,,,,,,,,,,,,,,,,,,,,,,,,,,,,,,,,,,,,,,,,,,,,,,,,,,200.0,125.0,127.0,127.0,125.0,200.0,3.0,3.1,-222,263,0,9,260,-283,95.42372989654541,95.42385244369507,95.42726802825928,95.43838143348694,95.5771918296814,95.5771918296814,95.5771918296814,95.5771918296814,95.5771918296814,95.5771918296814,95.5771918296814,98.0720386505127,3,2.630549669265747,None,,,,,,,,,,,,,,,,,,83,2,2025-02-21_14h55.33.224,comp,2024.2.4,56.411144764661266,2025-02-21 14h55.55.624878 -0500,
16,16,0,filler_square,None,None,None,None,None,None,None,None,None,None,3,1.7439496517181396,None,,,,,0,0,0,0,0,16,16,200,98.09317874908447,,,,,,,,,,,,,,,,,,,,,,,,,,,,,,,,,,,,,,,,,,,,,,,,,,,,,,,,,,,,,,,,,,,,,,,,,,,,,,,,,98.33648724233927,75.96453817064612,59.36866356032267,96.93343307086269,109.61401484781982,109.61401484781982,2.1,2.11,-182,274,0,263,199,-275,98.07406568527222,98.07414174079895,98.07736206054688,98.09317874908447,98.23094725608826,98.23094725608826,98.23094725608826,98.23094725608826,98.23094725608826,98.23094725608826,98.23094725608826,99.84569907188416,3,1.7439496517181396,None,,,,,,,,,,,,,,,,,,83,2,2025-02-21_14h55.33.224,comp,2024.2.4,56.411144764661266,2025-02-21 14h55.55.624878 -0500,
17,17,0,critical,hwd,35.0,2.1,lower,133.0,57.0,57.0,133.0,70.0,70.0,1,2.070399284362793,None,,,,,0,0,0,0,0,17,17,40,99.86231350898743,,,,,,,,,,,,,,,,,,,,,,,,,,,,,,,,,,,,,,,,,,,,,,,,,,,,,,,,,,,,,,,,,,,,,,,,,,,,,,,,,133.0,57.0,57.0,133.0,70.0,70.0,2.1,2.11,-191,268,0,277,198,-258,99.84729766845703,99.84737491607666,99.85070252418518,99.86231350898743,99.99831581115723,99.99831581115723,99.99831581115723,99.99831581115723,99.99831581115723,99.99831581115723,99.99831581115723,101.9475405216217,1,2.070399284362793,None,,,,,,,,,,,,,,,,,,83,2,2025-02-21_14h55.33.224,comp,2024.2.4,56.411144764661266,2025-02-21 14h55.55.624878 -0500,
18,18,0,filler_square,None,None,None,None,None,None,None,None,None,None,1,1.6973018646240234,None,,,,,0,0,0,0,0,18,18,171,101.96414351463318,,,,,,,,,,,,,,,,,,,,,,,,,,,,,,,,,,,,,,,,,,,,,,,,,,,,,,,,,,,,,,,,,,,,,,,,,,,,,,,,,126.48305012339284,126.48305012339284,120.90724028916695,69.61730702008492,116.1119262925341,110.78640192311065,1.0,1.3,286,-285,480,-277,666,-282,101.94960737228394,101.94968581199646,101.95285892486572,101.96414351463318,102.12072348594666,102.12072348594666,102.12072348594666,102.12072348594666,102.12072348594666,102.12072348594666,102.12072348594666,103.66705203056335,1,1.6973018646240234,None,,,,,,,,,,,,,,,,,,83,2,2025-02-21_14h55.33.224,comp,2024.2.4,56.411144764661266,2025-02-21 14h55.55.624878 -0500,
19,19,0,critical,wdh,20.0,3.0,upper,125.0,200.0,141.0,141.0,200.0,125.0,1,2.9455015659332275,None,,,,,0,0,0,0,0,19,19,81,103.68355059623718,,,,,,,,,,,,,,,,,,,,,,,,,,,,,,,,,,,,,,,,,,,,,,,,,,,,,,,,,,,,,,,,,,,,,,,,,,,,,,,,,125.0,200.0,141.0,141.0,200.0,125.0,3.0,3.1,-266,287,0,11,229,-252,103.66886687278748,103.66895842552185,103.6728127002716,103.68355059623718,103.83333539962769,103.83333539962769,103.83333539962769,103.83333539962769,103.83333539962769,103.83333539962769,103.83333539962769,106.63399004936218,1,2.9455015659332275,None,,,,,,,,,,,,,,,,,,83,2,2025-02-21_14h55.33.224,comp,2024.2.4,56.411144764661266,2025-02-21 14h55.55.624878 -0500,
20,20,0,critical,hdw,35.0,2.1,upper,200.0,125.0,127.0,127.0,125.0,200.0,1,1.6510870456695557,None,,,,,0,0,0,0,0,20,20,45,106.64996933937073,,,,,,,,,,,,,,,,,,,,,,,,,,,,,,,,,,,,,,,,,,,,,,,,,,,,,,,,,,,,,,,,,,,,,,,,,,,,,,,,,200.0,125.0,127.0,127.0,125.0,200.0,2.1,2.11,-222,275,0,256,260,-290,106.63560199737549,106.63568019866943,106.63911604881287,106.64996933937073,106.7984790802002,106.7984790802002,106.7984790802002,106.7984790802002,106.7984790802002,106.7984790802002,106.7984790802002,108.30472731590271,1,1.6510870456695557,None,,,,,,,,,,,,,,,,,,83,2,2025-02-21_14h55.33.224,comp,2024.2.4,56.411144764661266,2025-02-21 14h55.55.624878 -0500,
21,21,0,filler_square,None,None,None,None,None,None,None,None,None,None,2,1.2357487678527832,None,,,,,0,0,0,0,0,21,21,175,108.320965051651,,,,,,,,,,,,,,,,,,,,,,,,,,,,,,,,,,,,,,,,,,,,,,,,,,,,,,,,,,,,,,,,,,,,,,,,,,,,,,,,,99.5100497643114,153.55049451301926,166.63024939114638,166.63024939114638,101.76277844543105,163.573830595475,1.0,1.1,-736,266,-480,283,-219,269,108.30647826194763,108.30657577514648,108.30939364433289,108.320965051651,108.46460390090942,108.46460390090942,108.46460390090942,108.46460390090942,108.46460390090942,108.46460390090942,108.46460390090942,109.56712818145752,2,1.2357487678527832,None,,,,,,,,,,,,,,,,,,83,2,2025-02-21_14h55.33.224,comp,2024.2.4,56.411144764661266,2025-02-21 14h55.55.624878 -0500,
22,22,0,critical,hwd,35.0,3.0,upper,200.0,125.0,125.0,200.0,127.0,127.0,1,4.438056230545044,None,,,,,0,0,0,0,0,22,22,99,109.58296227455139,,,,,,,,,,,,,,,,,,,,,,,,,,,,,,,,,,,,,,,,,,,,,,,,,,,,,,,,,,,,,,,,,,,,,,,,,,,,,,,,,200.0,125.0,125.0,200.0,127.0,127.0,3.0,3.1,-258,274,0,8,260,-262,109.56858205795288,109.56865906715393,109.57199907302856,109.58296227455139,109.7380723953247,109.7380723953247,109.7380723953247,109.7380723953247,109.7380723953247,109.7380723953247,109.7380723953247,114.02537059783936,1,4.438056230545044,None,,,,,,,,,,,,,,,,,,83,2,2025-02-21_14h55.33.224,comp,2024.2.4,56.411144764661266,2025-02-21 14h55.55.624878 -0500,
23,23,0,critical,hdw,35.0,1.0,lower,133.0,57.0,70.0,70.0,57.0,133.0,3,2.123838186264038,None,,,,,0,0,0,0,0,23,23,108,114.04123139381409,,,,,,,,,,,,,,,,,,,,,,,,,,,,,,,,,,,,,,,,,,,,,,,,,,,,,,,,,,,,,,,,,,,,,,,,,,,,,,,,,133.0,57.0,70.0,70.0,57.0,133.0,1.0,1.3,320,-270,480,-285,678,-281,114.02696251869202,114.02703809738159,114.03029203414917,114.04123139381409,114.18891668319702,114.18891668319702,114.18891668319702,114.18891668319702,114.18891668319702,114.18891668319702,114.18891668319702,116.16775798797607,3,2.123838186264038,None,,,,,,,,,,,,,,,,,,83,2,2025-02-21_14h55.33.224,comp,2024.2.4,56.411144764661266,2025-02-21 14h55.55.624878 -0500,
24,24,0,catch,None,None,None,None,None,None,None,None,None,None,1,1.483783483505249,None,,,,,0,0,0,0,0,24,24,127,116.18497467041016,,,,,,,,,,,,,,,,,,,,,,,,,,,,,,,,,,,,,,,,,,,,,,,,,,,,,,,,,,,,,,,,,,,,,,,,,,,,,,,,,199,126,132,58,115,75,4.0,4.2,-188,13,0,-280,162,17,116.16973614692688,116.16983079910278,116.17305183410645,116.18497467041016,116.32507276535034,116.32507276535034,116.32507276535034,116.32507276535034,116.32507276535034,116.32507276535034,116.32507276535034,117.67152690887451,1,1.483783483505249,None,,,,,,,,,,,,,,,,,,83,2,2025-02-21_14h55.33.224,comp,2024.2.4,56.411144764661266,2025-02-21 14h55.55.624878 -0500,
25,25,0,critical,wdh,35.0,4.0,lower,57.0,133.0,70.0,70.0,133.0,57.0,3,2.2535881996154785,None,,,,,0,0,0,0,0,25,25,76,117.68744564056396,,,,,,,,,,,,,,,,,,,,,,,,,,,,,,,,,,,,,,,,,,,,,,,,,,,,,,,,,,,,,,,,,,,,,,,,,,,,,,,,,57.0,133.0,70.0,70.0,133.0,57.0,4.0,4.2,-198,2,0,-274,160,-12,117.67317414283752,117.67326235771179,117.67671084403992,117.68744564056396,117.84316825866699,117.84316825866699,117.84316825866699,117.84316825866699,117.84316825866699,117.84316825866699,117.84316825866699,119.95590400695801,3,2.2535881996154785,None,,,,,,,,,,,,,,,,,,83,2,2025-02-21_14h55.33.224,comp,2024.2.4,56.411144764661266,2025-02-21 14h55.55.624878 -0500,
26,26,0,critical,dwh,20.0,3.0,lower,78.0,78.0,57.0,133.0,133.0,57.0,2,1.9462554454803467,None,,,,,0,0,0,0,0,26,26,68,119.97074842453003,,,,,,,,,,,,,,,,,,,,,,,,,,,,,,,,,,,,,,,,,,,,,,,,,,,,,,,,,,,,,,,,,,,,,,,,,,,,,,,,,78.0,78.0,57.0,133.0,133.0,57.0,3.0,3.2,-202,-259,0,-13,191,251,119.95747017860413,119.95754957199097,119.9604868888855,119.97074842453003,120.11869096755981,120.11869096755981,120.11869096755981,120.11869096755981,120.11869096755981,120.11869096755981,120.11869096755981,121.92295670509338,2,1.9462554454803467,None,,,,,,,,,,,,,,,,,,83,2,2025-02-21_14h55.33.224,comp,2024.2.4,56.411144764661266,2025-02-21 14h55.55.624878 -0500,
27,27,0,critical,wdh,20.0,2.1,lower,57.0,133.0,78.0,78.0,133.0,57.0,1,4.935596942901611,None,,,,,0,0,0,0,0,27,27,10,121.94118666648865,,,,,,,,,,,,,,,,,,,,,,,,,,,,,,,,,,,,,,,,,,,,,,,,,,,,,,,,,,,,,,,,,,,,,,,,,,,,,,,,,57.0,133.0,78.0,78.0,133.0,57.0,2.1,2.12,-202,-256,0,-283,164,281,121.92462944984436,121.92472958564758,121.92819595336914,121.94118666648865,122.08768677711487,122.08768677711487,122.08768677711487,122.08768677711487,122.08768677711487,122.08768677711487,122.08768677711487,126.88750314712524,1,4.935596942901611,None,,,,,,,,,,,,,,,,,,83,2,2025-02-21_14h55.33.224,comp,2024.2.4,56.411144764661266,2025-02-21 14h55.55.624878 -0500,
28,28,0,critical,wdh,35.0,2.1,lower,57.0,133.0,70.0,70.0,133.0,57.0,1,1.6775953769683838,None,,,,,0,0,0,0,0,28,28,32,126.90387105941772,,,,,,,,,,,,,,,,,,,,,,,,,,,,,,,,,,,,,,,,,,,,,,,,,,,,,,,,,,,,,,,,,,,,,,,,,,,,,,,,,57.0,133.0,70.0,70.0,133.0,57.0,2.1,2.11,-198,289,0,290,160,-265,126.8889992237091,126.88907623291016,126.89199042320251,126.90387105941772,127.03942322731018,127.03942322731018,127.03942322731018,127.03942322731018,127.03942322731018,127.03942322731018,127.03942322731018,128.58803367614746,1,1.6775953769683838,None,,,,,,,,,,,,,,,,,,83,2,2025-02-21_14h55.33.224,comp,2024.2.4,56.411144764661266,2025-02-21 14h55.55.624878 -0500,
29,29,0,filler_random,None,None,None,None,None,None,None,None,None,None,1,1.9246079921722412,None,,,,,0,0,0,0,0,29,29,157,128.60881638526917,,,,,,,,,,,,,,,,,,,,,,,,,,,,,,,,,,,,,,,,,,,,,,,,,,,,,,,,,,,,,,,,,,,,,,,,,,,,,,,,,198.3014702246789,177.96823856038037,122.96003775755223,99.54667308175479,159.3430107994587,173.22956106317406,3.0,3.2,-235,-259,0,9,232,265,128.58980464935303,128.58993315696716,128.59315586090088,128.60881638526917,128.75711154937744,128.75711154937744,128.75711154937744,128.75711154937744,128.75711154937744,128.75711154937744,128.75711154937744,130.53984308242798,1,1.9246079921722412,None,,,,,,,,,,,,,,,,,,83,2,2025-02-21_14h55.33.224,comp,2024.2.4,56.411144764661266,2025-02-21 14h55.55.624878 -0500,
30,30,0,filler_square,None,None,None,None,None,None,None,None,None,None,1,1.0087051391601562,None,,,,,0,0,0,0,0,30,30,192,130.55600547790527,,,,,,,,,,,,,,,,,,,,,,,,,,,,,,,,,,,,,,,,,,,,,,,,,,,,,,,,,,,,,,,,,,,,,,,,,,,,,,,,,163.28620674096373,163.28620674096373,111.18146821585296,133.7438468657926,70.52072959156459,149.22615063831398,4.0,4.2,-245,-7,0,-288,237,-8,130.54158306121826,130.54166555404663,130.54485964775085,130.55600547790527,130.7121982574463,130.7121982574463,130.7121982574463,130.7121982574463,130.7121982574463,130.7121982574463,130.7121982574463,131.57796001434326,1,1.0087051391601562,None,,,,,,,,,,,,,,,,,,83,2,2025-02-21_14h55.33.224,comp,2024.2.4,56.411144764661266,2025-02-21 14h55.55.624878 -0500,
31,31,0,critical,hwd,20.0,4.0,upper,200.0,125.0,125.0,200.0,141.0,141.0,2,2.8811416625976562,None,,,,,0,0,0,0,0,31,31,107,131.59554505348206,,,,,,,,,,,,,,,,,,,,,,,,,,,,,,,,,,,,,,,,,,,,,,,,,,,,,,,,,,,,,,,,,,,,,,,,,,,,,,,,,200.0,125.0,125.0,200.0,141.0,141.0,4.0,4.1,-258,-253,0,-19,266,-263,131.5795395374298,131.57964324951172,131.5825719833374,131.59554505348206,131.740647315979,131.740647315979,131.740647315979,131.740647315979,131.740647315979,131.740647315979,131.740647315979,134.491370677948,2,2.8811416625976562,None,,,,,,,,,,,,,,,,,,83,2,2025-02-21_14h55.33.224,comp,2024.2.4,56.411144764661266,2025-02-21 14h55.55.624878 -0500,
32,32,0,filler_square,None,None,None,None,None,None,None,None,None,None,2,1.7758674621582031,None,,,,,0,0,0,0,0,32,32,197,134.51035594940186,,,,,,,,,,,,,,,,,,,,,,,,,,,,,,,,,,,,,,,,,,,,,,,,,,,,,,,,,,,,,,,,,,,,,,,,,,,,,,,,,63.427474214324604,62.704457352889136,76.31597320278158,76.31597320278158,57.78665277852851,73.81229660619586,4.0,4.1,-166,-286,0,10,171,-275,134.4931938648224,134.49326729774475,134.49630641937256,134.51035594940186,134.65699744224548,134.65699744224548,134.65699744224548,134.65699744224548,134.65699744224548,134.65699744224548,134.65699744224548,136.2914912700653,2,1.7758674621582031,None,,,,,,,,,,,,,,,,,,83,2,2025-02-21_14h55.33.224,comp,2024.2.4,56.411144764661266,2025-02-21 14h55.55.624878 -0500,
33,33,0,critical,whd,20.0,2.1,upper,125.0,200.0,200.0,125.0,141.0,141.0,2,1.688833236694336,None,,,,,0,0,0,0,0,33,33,39,136.3080334663391,,,,,,,,,,,,,,,,,,,,,,,,,,,,,,,,,,,,,,,,,,,,,,,,,,,,,,,,,,,,,,,,,,,,,,,,,,,,,,,,,125.0,200.0,200.0,125.0,141.0,141.0,2.1,2.11,-258,269,0,274,229,-263,136.29310512542725,136.29317998886108,136.29643416404724,136.3080334663391,136.46303272247314,136.46303272247314,136.46303272247314,136.46303272247314,136.46303272247314,136.46303272247314,136.46303272247314,138.0083167552948,2,1.688833236694336,None,,,,,,,,,,,,,,,,,,83,2,2025-02-21_14h55.33.224,comp,2024.2.4,56.411144764661266,2025-02-21 14h55.55.624878 -0500,
34,34,0,critical,dhw,20.0,2.1,upper,141.0,141.0,200.0,125.0,125.0,200.0,2,2.6686153411865234,None,,,,,0,0,0,0,0,34,34,27,138.02473545074463,,,,,,,,,,,,,,,,,,,,,,,,,,,,,,,,,,,,,,,,,,,,,,,,,,,,,,,,,,,,,,,,,,,,,,,,,,,,,,,,,141.0,141.0,200.0,125.0,125.0,200.0,2.1,2.11,-229,280,0,275,258,-263,138.00983929634094,138.00991439819336,138.01296663284302,138.02473545074463,138.1750214099884,138.1750214099884,138.1750214099884,138.1750214099884,138.1750214099884,138.1750214099884,138.1750214099884,140.7114963531494,2,2.6686153411865234,None,,,,,,,,,,,,,,,,,,83,2,2025-02-21_14h55.33.224,comp,2024.2.4,56.411144764661266,2025-02-21 14h55.55.624878 -0500,
35,35,0,filler_square,None,None,None,None,None,None,None,None,None,None,2,1.35783052444458,None,,,,,0,0,0,0,0,35,35,191,140.7268843650818,,,,,,,,,,,,,,,,,,,,,,,,,,,,,,,,,,,,,,,,,,,,,,,,,,,,,,,,,,,,,,,,,,,,,,,,,,,,,,,,,105.10859458642744,171.98360193776801,186.44426776465417,186.44426776465417,165.3542613181794,176.68341208089902,2.1,2.11,-275,258,0,287,278,-269,140.71331214904785,140.71342515945435,140.71665239334106,140.7268843650818,140.87482261657715,140.87482261657715,140.87482261657715,140.87482261657715,140.87482261657715,140.87482261657715,140.87482261657715,142.0968816280365,2,1.35783052444458,None,,,,,,,,,,,,,,,,,,83,2,2025-02-21_14h55.33.224,comp,2024.2.4,56.411144764661266,2025-02-21 14h55.55.624878 -0500,
36,36,0,filler_random,None,None,None,None,None,None,None,None,None,None,1,1.3616364002227783,None,,,,,0,0,0,0,0,36,36,161,142.1151430606842,,,,,,,,,,,,,,,,,,,,,,,,,,,,,,,,,,,,,,,,,,,,,,,,,,,,,,,,,,,,,,,,,,,,,,,,,,,,,,,,,160.4651489998993,173.4454395900882,137.81960692342778,64.68150583490245,62.95195804822437,131.01944030503066,2.1,2.11,-215,277,0,275,194,-286,142.0986614227295,142.0987424850464,142.1018261909485,142.1151430606842,142.260892868042,142.260892868042,142.260892868042,142.260892868042,142.260892868042,142.260892868042,142.260892868042,143.49416422843933,1,1.3616364002227783,None,,,,,,,,,,,,,,,,,,83,2,2025-02-21_14h55.33.224,comp,2024.2.4,56.411144764661266,2025-02-21 14h55.55.624878 -0500,
37,37,0,filler_random,None,None,None,None,None,None,None,None,None,None,3,1.158827543258667,None,,,,,0,0,0,0,0,37,37,137,143.51081156730652,,,,,,,,,,,,,,,,,,,,,,,,,,,,,,,,,,,,,,,,,,,,,,,,,,,,,,,,,,,,,,,,,,,,,,,,,,,,,,,,,168.5420710931902,108.65346914239828,145.64940583003118,65.00397128736194,191.78163123342992,148.215563531002,4.0,4.2,-183,2,0,-264,203,-1,143.49604845046997,143.4961748123169,143.49951839447021,143.51081156730652,143.65983724594116,143.65983724594116,143.65983724594116,143.65983724594116,143.65983724594116,143.65983724594116,143.65983724594116,144.67690753936768,3,1.158827543258667,None,,,,,,,,,,,,,,,,,,83,2,2025-02-21_14h55.33.224,comp,2024.2.4,56.411144764661266,2025-02-21 14h55.55.624878 -0500,
38,38,0,filler_square,None,None,None,None,None,None,None,None,None,None,1,1.2800304889678955,None,,,,,0,0,0,0,0,38,38,189,144.69332814216614,,,,,,,,,,,,,,,,,,,,,,,,,,,,,,,,,,,,,,,,,,,,,,,,,,,,,,,,,,,,,,,,,,,,,,,,,,,,,,,,,145.38439906307272,145.38439906307272,97.4226571479993,124.77863430170876,84.33517223153216,114.34707024581613,4.0,4.2,-231,-17,0,-285,216,13,144.67877316474915,144.6789047718048,144.68210792541504,144.69332814216614,144.8510127067566,144.8510127067566,144.8510127067566,144.8510127067566,144.8510127067566,144.8510127067566,144.8510127067566,145.9798400402069,1,1.2800304889678955,None,,,,,,,,,,,,,,,,,,83,2,2025-02-21_14h55.33.224,comp,2024.2.4,56.411144764661266,2025-02-21 14h55.55.624878 -0500,
39,39,0,filler_square,None,None,None,None,None,None,None,None,None,None,2,2.1848111152648926,None,,,,,0,0,0,0,0,39,39,188,145.99607253074646,,,,,,,,,,,,,,,,,,,,,,,,,,,,,,,,,,,,,,,,,,,,,,,,,,,,,,,,,,,,,,,,,,,,,,,,,,,,,,,,,105.69991361733696,94.90998450144406,109.46869339149922,109.46869339149922,70.70293501319037,107.15372205760337,2.1,2.11,-198,267,0,254,204,-279,145.98203349113464,145.98215341567993,145.98534893989563,145.99607253074646,146.148455619812,146.148455619812,146.148455619812,146.148455619812,146.148455619812,146.148455619812,146.148455619812,148.19554781913757,2,2.1848111152648926,None,,,,,,,,,,,,,,,,,,83,2,2025-02-21_14h55.33.224,comp,2024.2.4,56.411144764661266,2025-02-21 14h55.55.624878 -0500,
40,40,0,critical,dwh,35.0,1.0,lower,70.0,70.0,57.0,133.0,133.0,57.0,2,2.3608129024505615,None,,,,,0,0,0,0,0,40,40,60,148.2119903564453,,,,,,,,,,,,,,,,,,,,,,,,,,,,,,,,,,,,,,,,,,,,,,,,,,,,,,,,,,,,,,,,,,,,,,,,,,,,,,,,,70.0,70.0,57.0,133.0,133.0,57.0,1.0,1.2,-198,1,0,-11,191,-7,148.19714403152466,148.19721913337708,148.20073819160461,148.2119903564453,148.3631088733673,148.3631088733673,148.3631088733673,148.3631088733673,148.3631088733673,148.3631088733673,148.3631088733673,150.5867829322815,2,2.3608129024505615,None,,,,,,,,,,,,,,,,,,83,2,2025-02-21_14h55.33.224,comp,2024.2.4,56.411144764661266,2025-02-21 14h55.55.624878 -0500,
41,41,0,critical,whd,20.0,3.0,lower,57.0,133.0,133.0,57.0,78.0,78.0,2,3.085855007171631,None,,,,,0,0,0,0,0,41,41,92,150.60701632499695,,,,,,,,,,,,,,,,,,,,,,,,,,,,,,,,,,,,,,,,,,,,,,,,,,,,,,,,,,,,,,,,,,,,,,,,,,,,,,,,,57.0,133.0,133.0,57.0,78.0,78.0,3.0,3.1,-191,286,0,11,164,-278,150.5882499217987,150.5883274078369,150.5913484096527,150.60701632499695,150.74446296691895,150.74446296691895,150.74446296691895,150.74446296691895,150.74446296691895,150.74446296691895,150.74446296691895,153.71239852905273,2,3.085855007171631,None,,,,,,,,,,,,,,,,,,83,2,2025-02-21_14h55.33.224,comp,2024.2.4,56.411144764661266,2025-02-21 14h55.55.624878 -0500,
42,42,0,critical,hdw,35.0,2.1,upper,200.0,125.0,127.0,127.0,125.0,200.0,1,2.472339391708374,None,,,,,0,0,0,0,0,42,42,21,153.73266983032227,,,,,,,,,,,,,,,,,,,,,,,,,,,,,,,,,,,,,,,,,,,,,,,,,,,,,,,,,,,,,,,,,,,,,,,,,,,,,,,,,200.0,125.0,127.0,127.0,125.0,200.0,2.1,2.11,-222,263,0,252,260,-272,153.7139871120453,153.71406507492065,153.7172725200653,153.73266983032227,153.86452865600586,153.86452865600586,153.86452865600586,153.86452865600586,153.86452865600586,153.86452865600586,153.86452865600586,156.22065019607544,1,2.472339391708374,None,,,,,,,,,,,,,,,,,,83,2,2025-02-21_14h55.33.224,comp,2024.2.4,56.411144764661266,2025-02-21 14h55.55.624878 -0500,
43,43,0,critical,hdw,20.0,1.0,upper,200.0,125.0,141.0,141.0,125.0,200.0,3,2.7914514541625977,None,,,,,0,0,0,0,0,43,43,115,156.2378444671631,,,,,,,,,,,,,,,,,,,,,,,,,,,,,,,,,,,,,,,,,,,,,,,,,,,,,,,,,,,,,,,,,,,,,,,,,,,,,,,,,200.0,125.0,141.0,141.0,125.0,200.0,1.0,1.3,251,-279,480,-271,746,-250,156.22216629981995,156.22224402427673,156.22508072853088,156.2378444671631,156.38065695762634,156.38065695762634,156.38065695762634,156.38065695762634,156.38065695762634,156.38065695762634,156.38065695762634,159.03481101989746,3,2.7914514541625977,None,,,,,,,,,,,,,,,,,,83,2,2025-02-21_14h55.33.224,comp,2024.2.4,56.411144764661266,2025-02-21 14h55.55.624878 -0500,
44,44,0,critical,hwd,35.0,2.1,upper,200.0,125.0,125.0,200.0,127.0,127.0,1,2.562385320663452,None,,,,,0,0,0,0,0,44,44,41,159.05132627487183,,,,,,,,,,,,,,,,,,,,,,,,,,,,,,,,,,,,,,,,,,,,,,,,,,,,,,,,,,,,,,,,,,,,,,,,,,,,,,,,,200.0,125.0,125.0,200.0,127.0,127.0,2.1,2.12,-258,-262,0,-287,260,265,159.0362684726715,159.03634667396545,159.0396499633789,159.05132627487183,159.19963121414185,159.19963121414185,159.19963121414185,159.19963121414185,159.19963121414185,159.19963121414185,159.19963121414185,161.6213254928589,1,2.562385320663452,None,,,,,,,,,,,,,,,,,,83,2,2025-02-21_14h55.33.224,comp,2024.2.4,56.411144764661266,2025-02-21 14h55.55.624878 -0500,
45,45,0,filler_random,None,None,None,None,None,None,None,None,None,None,1,1.5251164436340332,None,,,,,0,0,0,0,0,45,45,168,161.6397922039032,,,,,,,,,,,,,,,,,,,,,,,,,,,,,,,,,,,,,,,,,,,,,,,,,,,,,,,,,,,,,,,,,,,,,,,,,,,,,,,,,164.05974855979025,195.42938667775917,115.96576718159024,158.96925386354098,82.888234533164,175.20857498480774,3.0,3.2,-273,-284,0,5,263,274,161.62316179275513,161.6232931613922,161.62654900550842,161.6397922039032,161.78163933753967,161.78163933753967,161.78163933753967,161.78163933753967,161.78163933753967,161.78163933753967,161.78163933753967,163.17036652565002,1,1.5251164436340332,None,,,,,,,,,,,,,,,,,,83,2,2025-02-21_14h55.33.224,comp,2024.2.4,56.411144764661266,2025-02-21 14h55.55.624878 -0500,
46,46,0,critical,hdw,20.0,2.1,upper,200.0,125.0,141.0,141.0,125.0,200.0,2,3.87929368019104,None,,,,,0,0,0,0,0,46,46,23,163.18958020210266,,,,,,,,,,,,,,,,,,,,,,,,,,,,,,,,,,,,,,,,,,,,,,,,,,,,,,,,,,,,,,,,,,,,,,,,,,,,,,,,,200.0,125.0,141.0,141.0,125.0,200.0,2.1,2.12,-229,-281,0,-288,266,257,163.17232513427734,163.17245769500732,163.1755440235138,163.18958020210266,163.33564686775208,163.33564686775208,163.33564686775208,163.33564686775208,163.33564686775208,163.33564686775208,163.33564686775208,167.0849781036377,2,3.87929368019104,None,,,,,,,,,,,,,,,,,,83,2,2025-02-21_14h55.33.224,comp,2024.2.4,56.411144764661266,2025-02-21 14h55.55.624878 -0500,
47,47,0,critical,whd,20.0,2.1,lower,57.0,133.0,133.0,57.0,78.0,78.0,1,4.408728361129761,None,,,,,0,0,0,0,0,47,47,38,167.10024333000183,,,,,,,,,,,,,,,,,,,,,,,,,,,,,,,,,,,,,,,,,,,,,,,,,,,,,,,,,,,,,,,,,,,,,,,,,,,,,,,,,57.0,133.0,133.0,57.0,78.0,78.0,2.1,2.12,-191,-267,0,-264,164,263,167.0864679813385,167.08654356002808,167.08970594406128,167.10024333000183,167.2500786781311,167.2500786781311,167.2500786781311,167.2500786781311,167.2500786781311,167.2500786781311,167.2500786781311,171.52085828781128,1,4.408728361129761,None,,,,,,,,,,,,,,,,,,83,2,2025-02-21_14h55.33.224,comp,2024.2.4,56.411144764661266,2025-02-21 14h55.55.624878 -0500,
48,48,0,filler_square,None,None,None,None,None,None,None,None,None,None,3,1.4604942798614502,None,,,,,0,0,0,0,0,48,48,172,171.53729367256165,,,,,,,,,,,,,,,,,,,,,,,,,,,,,,,,,,,,,,,,,,,,,,,,,,,,,,,,,,,,,,,,,,,,,,,,,,,,,,,,,73.86403076248592,62.813193463398854,86.70144459639886,82.63891327857827,92.05552598086838,92.05552598086838,1.0,1.3,311,-279,480,-288,663,-253,171.52269530296326,171.52277278900146,171.5267584323883,171.53729367256165,171.6836609840393,171.6836609840393,171.6836609840393,171.6836609840393,171.6836609840393,171.6836609840393,171.6836609840393,173.0038547515869,3,1.4604942798614502,None,,,,,,,,,,,,,,,,,,83,2,2025-02-21_14h55.33.224,comp,2024.2.4,56.411144764661266,2025-02-21 14h55.55.624878 -0500,
49,49,0,filler_random,None,None,None,None,None,None,None,None,None,None,2,1.9203531742095947,None,,,,,0,0,0,0,0,49,49,162,173.02059531211853,,,,,,,,,,,,,,,,,,,,,,,,,,,,,,,,,,,,,,,,,,,,,,,,,,,,,,,,,,,,,,,,,,,,,,,,,,,,,,,,,141.23341752578455,189.8792919159838,199.7736652687784,159.57370751174028,123.36183705129383,170.18618284448263,2.1,2.12,-271,-256,0,-268,261,279,173.0055797100067,173.0056610107422,173.0089783668518,173.02059531211853,173.16952872276306,173.16952872276306,173.16952872276306,173.16952872276306,173.16952872276306,173.16952872276306,173.16952872276306,174.9541265964508,2,1.9203531742095947,None,,,,,,,,,,,,,,,,,,83,2,2025-02-21_14h55.33.224,comp,2024.2.4,56.411144764661266,2025-02-21 14h55.55.624878 -0500,
50,50,0,filler_square,None,None,None,None,None,None,None,None,None,None,1,3.3463351726531982,None,,,,,0,0,0,0,0,50,50,174,174.97090339660645,,,,,,,,,,,,,,,,,,,,,,,,,,,,,,,,,,,,,,,,,,,,,,,,,,,,,,,,,,,,,,,,,,,,,,,,,,,,,,,,,94.93858375621782,94.93858375621782,86.28181162734347,66.3595457704112,82.48221979386932,69.11660616018888,2.2,2.21,-177,-252,0,289,164,257,174.95608162879944,174.95615887641907,174.95939660072327,174.97090339660645,175.12123441696167,175.12123441696167,175.12123441696167,175.12123441696167,175.12123441696167,175.12123441696167,175.12123441696167,178.32314538955688,1,3.3463351726531982,None,,,,,,,,,,,,,,,,,,83,2,2025-02-21_14h55.33.224,comp,2024.2.4,56.411144764661266,2025-02-21 14h55.55.624878 -0500,
51,51,0,filler_random,None,None,None,None,None,None,None,None,None,None,1,1.290661096572876,None,,,,,0,0,0,0,0,51,51,153,178.33925676345825,,,,,,,,,,,,,,,,,,,,,,,,,,,,,,,,,,,,,,,,,,,,,,,,,,,,,,,,,,,,,,,,,,,,,,,,,,,,,,,,,151.39753574214106,184.35876239193993,70.28529377590058,75.62401700198156,183.06543899935866,87.6569787713445,1.0,1.2,-226,17,0,-19,178,-9,178.3249228000641,178.32505249977112,178.32837104797363,178.33925676345825,178.49167275428772,178.49167275428772,178.49167275428772,178.49167275428772,178.49167275428772,178.49167275428772,178.49167275428772,179.64206099510193,1,1.290661096572876,None,,,,,,,,,,,,,,,,,,83,2,2025-02-21_14h55.33.224,comp,2024.2.4,56.411144764661266,2025-02-21 14h55.55.624878 -0500,
52,52,0,critical,dwh,35.0,2.1,lower,70.0,70.0,57.0,133.0,133.0,57.0,3,4.096589088439941,None,,,,,0,0,0,0,0,52,52,4,179.66032695770264,,,,,,,,,,,,,,,,,,,,,,,,,,,,,,,,,,,,,,,,,,,,,,,,,,,,,,,,,,,,,,,,,,,,,,,,,,,,,,,,,70.0,70.0,57.0,133.0,133.0,57.0,2.1,2.12,-198,-275,0,-270,191,288,179.64361929893494,179.64370131492615,179.6471140384674,179.66032695770264,179.8053948879242,179.8053948879242,179.8053948879242,179.8053948879242,179.8053948879242,179.8053948879242,179.8053948879242,183.77399039268494,3,4.096589088439941,None,,,,,,,,,,,,,,,,,,83,2,2025-02-21_14h55.33.224,comp,2024.2.4,56.411144764661266,2025-02-21 14h55.55.624878 -0500,
53,53,0,critical,dwh,35.0,2.1,upper,127.0,127.0,125.0,200.0,200.0,125.0,3,1.477492094039917,None,,,,,0,0,0,0,0,53,53,29,183.79166960716248,,,,,,,,,,,,,,,,,,,,,,,,,,,,,,,,,,,,,,,,,,,,,,,,,,,,,,,,,,,,,,,,,,,,,,,,,,,,,,,,,127.0,127.0,125.0,200.0,200.0,125.0,2.1,2.12,-260,-278,0,-268,258,269,183.77552676200867,183.77563047409058,183.77892518043518,183.79166960716248,183.94365119934082,183.94365119934082,183.94365119934082,183.94365119934082,183.94365119934082,183.94365119934082,183.94365119934082,185.27351021766663,3,1.477492094039917,None,,,,,,,,,,,,,,,,,,83,2,2025-02-21_14h55.33.224,comp,2024.2.4,56.411144764661266,2025-02-21 14h55.55.624878 -0500,
54,54,0,critical,whd,35.0,2.1,lower,57.0,133.0,133.0,57.0,70.0,70.0,2,4.614790201187134,None,,,,,0,0,0,0,0,54,54,12,185.2940330505371,,,,,,,,,,,,,,,,,,,,,,,,,,,,,,,,,,,,,,,,,,,,,,,,,,,,,,,,,,,,,,,,,,,,,,,,,,,,,,,,,57.0,133.0,133.0,57.0,70.0,70.0,2.1,2.11,-191,285,0,266,160,-290,185.2751386165619,185.27521514892578,185.27845335006714,185.2940330505371,185.44132900238037,185.44132900238037,185.44132900238037,185.44132900238037,185.44132900238037,185.44132900238037,185.44132900238037,189.92682218551636,2,4.614790201187134,None,,,,,,,,,,,,,,,,,,83,2,2025-02-21_14h55.33.224,comp,2024.2.4,56.411144764661266,2025-02-21 14h55.55.624878 -0500,
55,55,0,critical,dhw,35.0,4.0,upper,127.0,127.0,200.0,125.0,125.0,200.0,3,2.4861302375793457,None,,,,,0,0,0,0,0,55,55,53,189.94280195236206,,,,,,,,,,,,,,,,,,,,,,,,,,,,,,,,,,,,,,,,,,,,,,,,,,,,,,,,,,,,,,,,,,,,,,,,,,,,,,,,,127.0,127.0,200.0,125.0,125.0,200.0,4.0,4.2,-222,-20,0,-268,258,3,189.928466796875,189.92859721183777,189.9320249557495,189.94280195236206,190.09619665145874,190.09619665145874,190.09619665145874,190.09619665145874,190.09619665145874,190.09619665145874,190.09619665145874,192.44488263130188,3,2.4861302375793457,None,,,,,,,,,,,,,,,,,,83,2,2025-02-21_14h55.33.224,comp,2024.2.4,56.411144764661266,2025-02-21 14h55.55.624878 -0500,
56,56,0,filler_square,None,None,None,None,None,None,None,None,None,None,3,1.7920591831207275,None,,,,,0,0,0,0,0,56,56,199,192.46081972122192,,,,,,,,,,,,,,,,,,,,,,,,,,,,,,,,,,,,,,,,,,,,,,,,,,,,,,,,,,,,,,,,,,,,,,,,,,,,,,,,,64.86478624918836,167.93042879094088,101.38979667541714,186.71842394519956,188.98380013714572,188.98380013714572,2.1,2.11,-273,262,0,288,284,-290,192.44691252708435,192.44699382781982,192.45045471191406,192.46081972122192,192.61259627342224,192.61259627342224,192.61259627342224,192.61259627342224,192.61259627342224,192.61259627342224,192.61259627342224,194.2624967098236,3,1.7920591831207275,None,,,,,,,,,,,,,,,,,,83,2,2025-02-21_14h55.33.224,comp,2024.2.4,56.411144764661266,2025-02-21 14h55.55.624878 -0500,
57,57,0,catch,None,None,None,None,None,None,None,None,None,None,1,1.197422742843628,None,,,,,0,0,0,0,0,57,57,123,194.27963209152222,,,,,,,,,,,,,,,,,,,,,,,,,,,,,,,,,,,,,,,,,,,,,,,,,,,,,,,,,,,,,,,,,,,,,,,,,,,,,,,,,144,181,63,127,59,131,4.0,4.1,-250,-266,0,2,225,-273,194.26461958885193,194.2647020816803,194.26846480369568,194.27963209152222,194.4256467819214,194.4256467819214,194.4256467819214,194.4256467819214,194.4256467819214,194.4256467819214,194.4256467819214,195.48035216331482,1,1.197422742843628,None,,,,,,,,,,,,,,,,,,83,2,2025-02-21_14h55.33.224,comp,2024.2.4,56.411144764661266,2025-02-21 14h55.55.624878 -0500,
58,58,0,critical,hwd,20.0,3.0,lower,133.0,57.0,57.0,133.0,78.0,78.0,2,2.2819485664367676,None,,,,,0,0,0,0,0,58,58,104,195.49901151657104,,,,,,,,,,,,,,,,,,,,,,,,,,,,,,,,,,,,,,,,,,,,,,,,,,,,,,,,,,,,,,,,,,,,,,,,,,,,,,,,,133.0,57.0,57.0,133.0,78.0,78.0,3.0,3.2,-191,-267,0,-15,202,252,195.48194408416748,195.48202443122864,195.4850401878357,195.49901151657104,195.64464902877808,195.64464902877808,195.64464902877808,195.64464902877808,195.64464902877808,195.64464902877808,195.64464902877808,197.79500532150269,2,2.2819485664367676,None,,,,,,,,,,,,,,,,,,83,2,2025-02-21_14h55.33.224,comp,2024.2.4,56.411144764661266,2025-02-21 14h55.55.624878 -0500,
59,59,0,critical,wdh,35.0,1.0,upper,125.0,200.0,127.0,127.0,200.0,125.0,1,4.9483935832977295,None,,,,,0,0,0,0,0,59,59,73,197.80879640579224,,,,,,,,,,,,,,,,,,,,,,,,,,,,,,,,,,,,,,,,,,,,,,,,,,,,,,,,,,,,,,,,,,,,,,,,,,,,,,,,,125.0,200.0,127.0,127.0,200.0,125.0,1.0,1.3,220,-270,480,-285,702,-284,197.79646515846252,197.79653930664062,197.7997431755066,197.80879640579224,197.96093678474426,197.96093678474426,197.96093678474426,197.96093678474426,197.96093678474426,197.96093678474426,197.96093678474426,202.7644386291504,1,4.9483935832977295,None,,,,,,,,,,,,,,,,,,83,2,2025-02-21_14h55.33.224,comp,2024.2.4,56.411144764661266,2025-02-21 14h55.55.624878 -0500,
60,60,0,filler_square,None,None,None,None,None,None,None,None,None,None,1,2.3845620155334473,None,,,,,0,0,0,0,0,60,60,181,202.7804148197174,,,,,,,,,,,,,,,,,,,,,,,,,,,,,,,,,,,,,,,,,,,,,,,,,,,,,,,,,,,,,,,,,,,,,,,,,,,,,,,,,72.39882968894129,72.39882968894129,68.54214095285172,65.2274429383442,59.97979092025232,58.11910685119187,3.0,3.2,-165,-259,0,-8,158,259,202.76623845100403,202.76631665229797,202.76954340934753,202.7804148197174,202.92855381965637,202.92855381965637,202.92855381965637,202.92855381965637,202.92855381965637,202.92855381965637,202.92855381965637,205.1767258644104,1,2.3845620155334473,None,,,,,,,,,,,,,,,,,,83,2,2025-02-21_14h55.33.224,comp,2024.2.4,56.411144764661266,2025-02-21 14h55.55.624878 -0500,
61,61,0,filler_random,None,None,None,None,None,None,None,None,None,None,1,1.3655176162719727,None,,,,,0,0,0,0,0,61,61,169,205.19214534759521,,,,,,,,,,,,,,,,,,,,,,,,,,,,,,,,,,,,,,,,,,,,,,,,,,,,,,,,,,,,,,,,,,,,,,,,,,,,,,,,,159.82444294702444,171.8746839369532,124.45143728238772,104.31971421823462,151.6222388416935,74.6644791207321,2.2,2.21,-234,-281,0,267,185,286,205.17843294143677,205.17851996421814,205.1818344593048,205.19214534759521,205.33850860595703,205.33850860595703,205.33850860595703,205.33850860595703,205.33850860595703,205.33850860595703,205.33850860595703,206.5646049976349,1,1.3655176162719727,None,,,,,,,,,,,,,,,,,,83,2,2025-02-21_14h55.33.224,comp,2024.2.4,56.411144764661266,2025-02-21 14h55.55.624878 -0500,
62,62,0,critical,hwd,20.0,4.0,lower,133.0,57.0,57.0,133.0,78.0,78.0,1,2.3523290157318115,None,,,,,0,0,0,0,0,62,62,106,206.5806064605713,,,,,,,,,,,,,,,,,,,,,,,,,,,,,,,,,,,,,,,,,,,,,,,,,,,,,,,,,,,,,,,,,,,,,,,,,,,,,,,,,133.0,57.0,57.0,133.0,78.0,78.0,4.0,4.2,-191,8,0,-267,202,-7,206.5660879611969,206.5661654472351,206.5694227218628,206.5806064605713,206.73627066612244,206.73627066612244,206.73627066612244,206.73627066612244,206.73627066612244,206.73627066612244,206.73627066612244,208.94986748695374,1,2.3523290157318115,None,,,,,,,,,,,,,,,,,,83,2,2025-02-21_14h55.33.224,comp,2024.2.4,56.411144764661266,2025-02-21 14h55.55.624878 -0500,
63,63,0,critical,hwd,20.0,2.1,lower,133.0,57.0,57.0,133.0,78.0,78.0,2,2.1603879928588867,None,,,,,0,0,0,0,0,63,63,18,208.9653124809265,,,,,,,,,,,,,,,,,,,,,,,,,,,,,,,,,,,,,,,,,,,,,,,,,,,,,,,,,,,,,,,,,,,,,,,,,,,,,,,,,133.0,57.0,57.0,133.0,78.0,78.0,2.1,2.12,-191,-281,0,-284,202,259,208.95140504837036,208.9514811038971,208.95492315292358,208.9653124809265,209.11577939987183,209.11577939987183,209.11577939987183,209.11577939987183,209.11577939987183,209.11577939987183,209.11577939987183,211.1324942111969,2,2.1603879928588867,None,,,,,,,,,,,,,,,,,,83,2,2025-02-21_14h55.33.224,comp,2024.2.4,56.411144764661266,2025-02-21 14h55.55.624878 -0500,
64,64,0,critical,whd,20.0,1.0,upper,125.0,200.0,200.0,125.0,141.0,141.0,1,1.895695447921753,None,,,,,0,0,0,0,0,64,64,91,211.14928317070007,,,,,,,,,,,,,,,,,,,,,,,,,,,,,,,,,,,,,,,,,,,,,,,,,,,,,,,,,,,,,,,,,,,,,,,,,,,,,,,,,125.0,200.0,200.0,125.0,141.0,141.0,1.0,1.1,-738,269,-480,266,-251,276,211.13400888442993,211.13408708572388,211.1374156475067,211.14928317070007,211.30546498298645,211.30546498298645,211.30546498298645,211.30546498298645,211.30546498298645,211.30546498298645,211.30546498298645,213.0657811164856,1,1.895695447921753,None,,,,,,,,,,,,,,,,,,83,2,2025-02-21_14h55.33.224,comp,2024.2.4,56.411144764661266,2025-02-21 14h55.55.624878 -0500,
65,65,0,critical,whd,35.0,2.1,upper,125.0,200.0,200.0,125.0,127.0,127.0,2,1.7188751697540283,None,,,,,0,0,0,0,0,65,65,37,213.08611297607422,,,,,,,,,,,,,,,,,,,,,,,,,,,,,,,,,,,,,,,,,,,,,,,,,,,,,,,,,,,,,,,,,,,,,,,,,,,,,,,,,125.0,200.0,200.0,125.0,127.0,127.0,2.1,2.11,-258,282,0,256,222,-276,213.06730151176453,213.06737613677979,213.07074117660522,213.08611297607422,213.23481798171997,213.23481798171997,213.23481798171997,213.23481798171997,213.23481798171997,213.23481798171997,213.23481798171997,214.81739616394043,2,1.7188751697540283,None,,,,,,,,,,,,,,,,,,83,2,2025-02-21_14h55.33.224,comp,2024.2.4,56.411144764661266,2025-02-21 14h55.55.624878 -0500,
66,66,0,critical,hdw,20.0,4.0,upper,200.0,125.0,141.0,141.0,125.0,200.0,1,2.1696250438690186,None,,,,,0,0,0,0,0,66,66,119,214.83518409729004,,,,,,,,,,,,,,,,,,,,,,,,,,,,,,,,,,,,,,,,,,,,,,,,,,,,,,,,,,,,,,,,,,,,,,,,,,,,,,,,,200.0,125.0,141.0,141.0,125.0,200.0,4.0,4.1,-229,-253,0,-16,266,-283,214.81898951530457,214.81906580924988,214.82264065742493,214.83518409729004,214.9882755279541,214.9882755279541,214.9882755279541,214.9882755279541,214.9882755279541,214.9882755279541,214.9882755279541,217.0191080570221,1,2.1696250438690186,None,,,,,,,,,,,,,,,,,,83,2,2025-02-21_14h55.33.224,comp,2024.2.4,56.411144764661266,2025-02-21 14h55.55.624878 -0500,
67,67,0,filler_random,None,None,None,None,None,None,None,None,None,None,2,1.253779411315918,None,,,,,0,0,0,0,0,67,67,164,217.0406563282013,,,,,,,,,,,,,,,,,,,,,,,,,,,,,,,,,,,,,,,,,,,,,,,,,,,,,,,,,,,,,,,,,,,,,,,,,,,,,,,,,134.12796820121986,97.80162703987656,157.2733748725653,187.79201779694915,153.1019744498223,101.32391806010556,1.0,1.3,241,-256,480,-290,721,-269,217.020831823349,217.0209081172943,217.02425241470337,217.0406563282013,217.18453812599182,217.18453812599182,217.18453812599182,217.18453812599182,217.18453812599182,217.18453812599182,217.18453812599182,218.30075407028198,2,1.253779411315918,None,,,,,,,,,,,,,,,,,,83,2,2025-02-21_14h55.33.224,comp,2024.2.4,56.411144764661266,2025-02-21 14h55.55.624878 -0500,
68,68,0,filler_square,None,None,None,None,None,None,None,None,None,None,3,1.7676951885223389,None,,,,,0,0,0,0,0,68,68,186,218.3172721862793,,,,,,,,,,,,,,,,,,,,,,,,,,,,,,,,,,,,,,,,,,,,,,,,,,,,,,,,,,,,,,,,,,,,,,,,,,,,,,,,,74.20543221818102,160.83480309015584,71.04436560806118,96.7364188203126,198.7674454736768,198.7674454736768,2.1,2.11,-225,272,0,283,244,-261,218.30249881744385,218.3025939464569,218.3057029247284,218.3172721862793,218.46443247795105,218.46443247795105,218.46443247795105,218.46443247795105,218.46443247795105,218.46443247795105,218.46443247795105,220.10077738761902,3,1.7676951885223389,None,,,,,,,,,,,,,,,,,,83,2,2025-02-21_14h55.33.224,comp,2024.2.4,56.411144764661266,2025-02-21 14h55.55.624878 -0500,
69,69,0,filler_random,None,None,None,None,None,None,None,None,None,None,1,3.7198939323425293,None,,,,,0,0,0,0,0,69,69,165,220.11730098724365,,,,,,,,,,,,,,,,,,,,,,,,,,,,,,,,,,,,,,,,,,,,,,,,,,,,,,,,,,,,,,,,,,,,,,,,,,,,,,,,,145.85679333204297,173.0350915271939,196.6459724765125,93.88456778338937,157.81169821361112,140.53719623068397,3.0,3.1,-229,254,0,-14,213,-266,220.1024944782257,220.10261750221252,220.10591459274292,220.11730098724365,220.25819039344788,220.25819039344788,220.25819039344788,220.25819039344788,220.25819039344788,220.25819039344788,220.25819039344788,223.85301232337952,1,3.7198939323425293,None,,,,,,,,,,,,,,,,,,83,2,2025-02-21_14h55.33.224,comp,2024.2.4,56.411144764661266,2025-02-21 14h55.55.624878 -0500,
70,70,0,critical,hwd,35.0,2.1,upper,200.0,125.0,125.0,200.0,127.0,127.0,2,2.50437068939209,None,,,,,0,0,0,0,0,70,70,17,223.8684802055359,,,,,,,,,,,,,,,,,,,,,,,,,,,,,,,,,,,,,,,,,,,,,,,,,,,,,,,,,,,,,,,,,,,,,,,,,,,,,,,,,200.0,125.0,125.0,200.0,127.0,127.0,2.1,2.11,-258,273,0,275,260,-268,223.8545422554016,223.85465121269226,223.85809803009033,223.8684802055359,224.01907515525818,224.01907515525818,224.01907515525818,224.01907515525818,224.01907515525818,224.01907515525818,224.01907515525818,226.38595938682556,2,2.50437068939209,None,,,,,,,,,,,,,,,,,,83,2,2025-02-21_14h55.33.224,comp,2024.2.4,56.411144764661266,2025-02-21 14h55.55.624878 -0500,
71,71,0,critical,dhw,35.0,2.1,lower,70.0,70.0,133.0,57.0,57.0,133.0,2,2.359417676925659,None,,,,,0,0,0,0,0,71,71,0,226.40620923042297,,,,,,,,,,,,,,,,,,,,,,,,,,,,,,,,,,,,,,,,,,,,,,,,,,,,,,,,,,,,,,,,,,,,,,,,,,,,,,,,,70.0,70.0,133.0,57.0,57.0,133.0,2.1,2.11,-160,281,0,280,191,-251,226.38752460479736,226.38762950897217,226.39095973968506,226.40620923042297,226.56178212165833,226.56178212165833,226.56178212165833,226.56178212165833,226.56178212165833,226.56178212165833,226.56178212165833,228.76802349090576,2,2.359417676925659,None,,,,,,,,,,,,,,,,,,83,2,2025-02-21_14h55.33.224,comp,2024.2.4,56.411144764661266,2025-02-21 14h55.55.624878 -0500,
72,72,0,critical,dwh,20.0,4.0,upper,141.0,141.0,125.0,200.0,200.0,125.0,3,2.9313056468963623,None,,,,,0,0,0,0,0,72,72,71,228.78613209724426,,,,,,,,,,,,,,,,,,,,,,,,,,,,,,,,,,,,,,,,,,,,,,,,,,,,,,,,,,,,,,,,,,,,,,,,,,,,,,,,,141.0,141.0,125.0,200.0,200.0,125.0,4.0,4.2,-266,-16,0,-279,258,16,228.76952838897705,228.7696385383606,228.7725019454956,228.78613209724426,228.92580938339233,228.92580938339233,228.92580938339233,228.92580938339233,228.92580938339233,228.92580938339233,228.92580938339233,231.72412753105164,3,2.9313056468963623,None,,,,,,,,,,,,,,,,,,83,2,2025-02-21_14h55.33.224,comp,2024.2.4,56.411144764661266,2025-02-21 14h55.55.624878 -0500,
73,73,0,critical,hwd,20.0,2.1,lower,133.0,57.0,57.0,133.0,78.0,78.0,2,3.2011570930480957,None,,,,,0,0,0,0,0,73,73,42,231.73977971076965,,,,,,,,,,,,,,,,,,,,,,,,,,,,,,,,,,,,,,,,,,,,,,,,,,,,,,,,,,,,,,,,,,,,,,,,,,,,,,,,,133.0,57.0,57.0,133.0,78.0,78.0,2.1,2.12,-191,-289,0,-284,202,285,231.72560596466064,231.72569155693054,231.7289867401123,231.73977971076965,231.8898425102234,231.8898425102234,231.8898425102234,231.8898425102234,231.8898425102234,231.8898425102234,231.8898425102234,234.94355392456055,2,3.2011570930480957,None,,,,,,,,,,,,,,,,,,83,2,2025-02-21_14h55.33.224,comp,2024.2.4,56.411144764661266,2025-02-21 14h55.55.624878 -0500,
74,74,0,filler_random,None,None,None,None,None,None,None,None,None,None,1,1.9851605892181396,None,,,,,0,0,0,0,0,74,74,138,234.96438217163086,,,,,,,,,,,,,,,,,,,,,,,,,,,,,,,,,,,,,,,,,,,,,,,,,,,,,,,,,,,,,,,,,,,,,,,,,,,,,,,,,84.91869114624947,134.62637999477028,57.864818044162206,140.42990622393694,81.25456924161992,173.72472777275976,2.1,2.11,-234,266,0,263,253,-276,234.9457459449768,234.9458258152008,234.94870591163635,234.96438217163086,235.11265778541565,235.11265778541565,235.11265778541565,235.11265778541565,235.11265778541565,235.11265778541565,235.11265778541565,236.95907068252563,1,1.9851605892181396,None,,,,,,,,,,,,,,,,,,83,2,2025-02-21_14h55.33.224,comp,2024.2.4,56.411144764661266,2025-02-21 14h55.55.624878 -0500,
75,75,0,critical,hdw,20.0,2.1,upper,200.0,125.0,141.0,141.0,125.0,200.0,1,2.1175317764282227,None,,,,,0,0,0,0,0,75,75,47,236.97545313835144,,,,,,,,,,,,,,,,,,,,,,,,,,,,,,,,,,,,,,,,,,,,,,,,,,,,,,,,,,,,,,,,,,,,,,,,,,,,,,,,,200.0,125.0,141.0,141.0,125.0,200.0,2.1,2.11,-229,290,0,285,266,-279,236.96083569526672,236.9609146118164,236.96473455429077,236.97545313835144,237.12444949150085,237.12444949150085,237.12444949150085,237.12444949150085,237.12444949150085,237.12444949150085,237.12444949150085,239.10663676261902,1,2.1175317764282227,None,,,,,,,,,,,,,,,,,,83,2,2025-02-21_14h55.33.224,comp,2024.2.4,56.411144764661266,2025-02-21 14h55.55.624878 -0500,
76,76,0,filler_random,None,None,None,None,None,None,None,None,None,None,2,1.537926197052002,None,,,,,0,0,0,0,0,76,76,151,239.12312126159668,,,,,,,,,,,,,,,,,,,,,,,,,,,,,,,,,,,,,,,,,,,,,,,,,,,,,,,,,,,,,,,,,,,,,,,,,,,,,,,,,67.63876382510296,180.82237206695214,151.0680990601021,144.19719364039582,106.80955334447437,170.8031417832313,1.0,1.1,-739,281,-480,270,-226,269,239.1084635257721,239.10862183570862,239.11181330680847,239.12312126159668,239.2716588973999,239.2716588973999,239.2716588973999,239.2716588973999,239.2716588973999,239.2716588973999,239.2716588973999,240.6744933128357,2,1.537926197052002,None,,,,,,,,,,,,,,,,,,83,2,2025-02-21_14h55.33.224,comp,2024.2.4,56.411144764661266,2025-02-21 14h55.55.624878 -0500,
77,77,0,filler_square,None,None,None,None,None,None,None,None,None,None,2,1.3549745082855225,None,,,,,0,0,0,0,0,77,77,190,240.69070982933044,,,,,,,,,,,,,,,,,,,,,,,,,,,,,,,,,,,,,,,,,,,,,,,,,,,,,,,,,,,,,,,,,,,,,,,,,,,,,,,,,99.67367702148226,124.75959584458676,151.68562145449192,151.68562145449192,74.47340478340632,94.19601311117378,2.1,2.12,-234,-271,0,-264,219,267,240.67635297775269,240.676429271698,240.67965292930603,240.69070982933044,240.84762406349182,240.84762406349182,240.84762406349182,240.84762406349182,240.84762406349182,240.84762406349182,240.84762406349182,242.05201530456543,2,1.3549745082855225,None,,,,,,,,,,,,,,,,,,83,2,2025-02-21_14h55.33.224,comp,2024.2.4,56.411144764661266,2025-02-21 14h55.55.624878 -0500,
78,78,0,catch,None,None,None,None,None,None,None,None,None,None,1,1.185603380203247,None,,,,,0,0,0,0,0,78,78,126,242.06782150268555,,,,,,,,,,,,,,,,,,,,,,,,,,,,,,,,,,,,,,,,,,,,,,,,,,,,,,,,,,,,,,,,,,,,,,,,,,,,,,,,,145,180,114,76,83,107,3.0,3.1,-224,263,0,6,188,-290,242.05382585525513,242.05390214920044,242.05674171447754,242.06782150268555,242.20960545539856,242.20960545539856,242.20960545539856,242.20960545539856,242.20960545539856,242.20960545539856,242.20960545539856,243.2607216835022,1,1.185603380203247,None,,,,,,,,,,,,,,,,,,83,2,2025-02-21_14h55.33.224,comp,2024.2.4,56.411144764661266,2025-02-21 14h55.55.624878 -0500,
79,79,0,filler_random,None,None,None,None,None,None,None,None,None,None,3,2.526698589324951,None,,,,,0,0,0,0,0,79,79,155,243.2786078453064,,,,,,,,,,,,,,,,,,,,,,,,,,,,,,,,,,,,,,,,,,,,,,,,,,,,,,,,,,,,,,,,,,,,,,,,,,,,,,,,,122.04630049237363,88.32622072193229,182.73130788518876,95.18139755425273,176.98793708199383,136.95513962095825,1.0,1.3,292,-270,480,-289,692,-255,243.26248931884766,243.26264023780823,243.26549530029297,243.2786078453064,243.42384147644043,243.42384147644043,243.42384147644043,243.42384147644043,243.42384147644043,243.42384147644043,243.42384147644043,245.80995345115662,3,2.526698589324951,None,,,,,,,,,,,,,,,,,,83,2,2025-02-21_14h55.33.224,comp,2024.2.4,56.411144764661266,2025-02-21 14h55.55.624878 -0500,
80,80,0,filler_random,None,None,None,None,None,None,None,None,None,None,3,1.6832537651062012,None,,,,,0,0,0,0,0,80,80,154,245.82630038261414,,,,,,,,,,,,,,,,,,,,,,,,,,,,,,,,,,,,,,,,,,,,,,,,,,,,,,,,,,,,,,,,,,,,,,,,,,,,,,,,,77.77644082619133,193.3694592623654,145.20115774002375,90.33601742694574,148.13063977053383,138.54308571461658,3.0,3.2,-238,-263,0,-6,210,264,245.81153869628906,245.81167721748352,245.8150897026062,245.82630038261414,245.97874426841736,245.97874426841736,245.97874426841736,245.97874426841736,245.97874426841736,245.97874426841736,245.97874426841736,247.5261640548706,3,1.6832537651062012,None,,,,,,,,,,,,,,,,,,83,2,2025-02-21_14h55.33.224,comp,2024.2.4,56.411144764661266,2025-02-21 14h55.55.624878 -0500,
81,81,0,critical,dhw,20.0,3.0,upper,141.0,141.0,200.0,125.0,125.0,200.0,3,4.591803789138794,None,,,,,0,0,0,0,0,81,81,57,247.54238486289978,,,,,,,,,,,,,,,,,,,,,,,,,,,,,,,,,,,,,,,,,,,,,,,,,,,,,,,,,,,,,,,,,,,,,,,,,,,,,,,,,141.0,141.0,200.0,125.0,125.0,200.0,3.0,3.2,-229,-257,0,-15,258,269,247.5277862548828,247.52786087989807,247.53110337257385,247.54238486289978,247.6985855102539,247.6985855102539,247.6985855102539,247.6985855102539,247.6985855102539,247.6985855102539,247.6985855102539,252.14955043792725,3,4.591803789138794,None,,,,,,,,,,,,,,,,,,83,2,2025-02-21_14h55.33.224,comp,2024.2.4,56.411144764661266,2025-02-21 14h55.55.624878 -0500,
82,82,0,filler_random,None,None,None,None,None,None,None,None,None,None,1,0.9600145816802979,None,,,,,0,0,0,0,0,82,82,135,252.16530966758728,,,,,,,,,,,,,,,,,,,,,,,,,,,,,,,,,,,,,,,,,,,,,,,,,,,,,,,,,,,,,,,,,,,,,,,,,,,,,,,,,178.02024748133246,166.17140561664004,198.11098620934686,82.63660814437237,192.60915887917884,73.61544387872516,4.0,4.2,-220,-4,0,-265,174,-1,252.15129280090332,252.1513683795929,252.1542103290558,252.16530966758728,252.31263184547424,252.31263184547424,252.31263184547424,252.31263184547424,252.31263184547424,252.31263184547424,252.31263184547424,253.1280279159546,1,0.9600145816802979,None,,,,,,,,,,,,,,,,,,83,2,2025-02-21_14h55.33.224,comp,2024.2.4,56.411144764661266,2025-02-21 14h55.55.624878 -0500,
83,83,0,filler_square,None,None,None,None,None,None,None,None,None,None,3,1.5961809158325195,None,,,,,0,0,0,0,0,83,83,180,253.14528012275696,,,,,,,,,,,,,,,,,,,,,,,,,,,,,,,,,,,,,,,,,,,,,,,,,,,,,,,,,,,,,,,,,,,,,,,,,,,,,,,,,63.51713529309993,57.003038145811686,74.72413533451166,57.350753571901535,75.07454520168744,75.07454520168744,4.0,4.1,-153,-255,0,13,162,-258,253.12977647781372,253.12985587120056,253.13302278518677,253.14528012275696,253.29383254051208,253.29383254051208,253.29383254051208,253.29383254051208,253.29383254051208,253.29383254051208,253.29383254051208,254.74632501602173,3,1.5961809158325195,None,,,,,,,,,,,,,,,,,,83,2,2025-02-21_14h55.33.224,comp,2024.2.4,56.411144764661266,2025-02-21 14h55.55.624878 -0500,
84,84,0,critical,whd,20.0,4.0,upper,125.0,200.0,200.0,125.0,141.0,141.0,1,2.0646591186523438,None,,,,,0,0,0,0,0,84,84,95,254.7643084526062,,,,,,,,,,,,,,,,,,,,,,,,,,,,,,,,,,,,,,,,,,,,,,,,,,,,,,,,,,,,,,,,,,,,,,,,,,,,,,,,,125.0,200.0,200.0,125.0,141.0,141.0,4.0,4.2,-258,-5,0,-259,229,5,254.74798226356506,254.7480607032776,254.75134801864624,254.7643084526062,254.91404032707214,254.91404032707214,254.91404032707214,254.91404032707214,254.91404032707214,254.91404032707214,254.91404032707214,256.84946942329407,1,2.0646591186523438,None,,,,,,,,,,,,,,,,,,83,2,2025-02-21_14h55.33.224,comp,2024.2.4,56.411144764661266,2025-02-21 14h55.55.624878 -0500,
85,85,0,critical,dhw,20.0,1.0,upper,141.0,141.0,200.0,125.0,125.0,200.0,2,1.1032376289367676,None,,,,,0,0,0,0,0,85,85,55,256.869832277298,,,,,,,,,,,,,,,,,,,,,,,,,,,,,,,,,,,,,,,,,,,,,,,,,,,,,,,,,,,,,,,,,,,,,,,,,,,,,,,,,141.0,141.0,200.0,125.0,125.0,200.0,1.0,1.1,-709,274,-480,268,-222,271,256.85111474990845,256.8511927127838,256.85446858406067,256.869832277298,257.01338744163513,257.01338744163513,257.01338744163513,257.01338744163513,257.01338744163513,257.01338744163513,257.01338744163513,257.98796248435974,2,1.1032376289367676,None,,,,,,,,,,,,,,,,,,83,2,2025-02-21_14h55.33.224,comp,2024.2.4,56.411144764661266,2025-02-21 14h55.55.624878 -0500,
86,86,0,filler_random,None,None,None,None,None,None,None,None,None,None,2,1.266969919204712,None,,,,,0,0,0,0,0,86,86,167,258.0036721229553,,,,,,,,,,,,,,,,,,,,,,,,,,,,,,,,,,,,,,,,,,,,,,,,,,,,,,,,,,,,,,,,,,,,,,,,,,,,,,,,,85.13080998833168,114.28230829541965,181.3329228748048,166.44892788797318,77.13241785370812,146.11816032320763,1.0,1.3,244,-272,480,-253,732,-265,257.98962140083313,257.9897003173828,257.9925158023834,258.0036721229553,258.14802980422974,258.14802980422974,258.14802980422974,258.14802980422974,258.14802980422974,258.14802980422974,258.14802980422974,259.28180146217346,2,1.266969919204712,None,,,,,,,,,,,,,,,,,,83,2,2025-02-21_14h55.33.224,comp,2024.2.4,56.411144764661266,2025-02-21 14h55.55.624878 -0500,
87,87,0,catch,None,None,None,None,None,None,None,None,None,None,1,1.2426080703735352,None,,,,,0,0,0,0,0,87,87,120,259.29838728904724,,,,,,,,,,,,,,,,,,,,,,,,,,,,,,,,,,,,,,,,,,,,,,,,,,,,,,,,,,,,,,,,,,,,,,,,,,,,,,,,,131,194,69,121,62,128,2.2,2.22,-254,251,0,-262,220,-254,259.28373312950134,259.28381419181824,259.2877700328827,259.29838728904724,259.44946026802063,259.44946026802063,259.44946026802063,259.44946026802063,259.44946026802063,259.44946026802063,259.44946026802063,260.5586018562317,1,1.2426080703735352,None,,,,,,,,,,,,,,,,,,83,2,2025-02-21_14h55.33.224,comp,2024.2.4,56.411144764661266,2025-02-21 14h55.55.624878 -0500,
88,88,0,filler_random,None,None,None,None,None,None,None,None,None,None,2,1.1107087135314941,None,,,,,0,0,0,0,0,88,88,132,260.5743727684021,,,,,,,,,,,,,,,,,,,,,,,,,,,,,,,,,,,,,,,,,,,,,,,,,,,,,,,,,,,,,,,,,,,,,,,,,,,,,,,,,64.25329382718284,178.99734631307223,114.61039209005551,157.22055696484674,143.46639802026584,77.88310478421994,4.0,4.1,-264,-290,0,11,214,-257,260.56024861335754,260.56032490730286,260.56314516067505,260.5743727684021,260.71561789512634,260.71561789512634,260.71561789512634,260.71561789512634,260.71561789512634,260.71561789512634,260.71561789512634,261.7003061771393,2,1.1107087135314941,None,,,,,,,,,,,,,,,,,,83,2,2025-02-21_14h55.33.224,comp,2024.2.4,56.411144764661266,2025-02-21 14h55.55.624878 -0500,
89,89,0,critical,dhw,20.0,4.0,upper,141.0,141.0,200.0,125.0,125.0,200.0,2,1.489344596862793,None,,,,,0,0,0,0,0,89,89,59,261.71751403808594,,,,,,,,,,,,,,,,,,,,,,,,,,,,,,,,,,,,,,,,,,,,,,,,,,,,,,,,,,,,,,,,,,,,,,,,,,,,,,,,,141.0,141.0,200.0,125.0,125.0,200.0,4.0,4.1,-229,-264,0,-7,258,-254,261.7019157409668,261.70199179649353,261.70484590530396,261.71751403808594,261.8651797771454,261.8651797771454,261.8651797771454,261.8651797771454,261.8651797771454,261.8651797771454,261.8651797771454,263.2146625518799,2,1.489344596862793,None,,,,,,,,,,,,,,,,,,83,2,2025-02-21_14h55.33.224,comp,2024.2.4,56.411144764661266,2025-02-21 14h55.55.624878 -0500,
90,90,0,critical,dhw,35.0,2.1,upper,127.0,127.0,200.0,125.0,125.0,200.0,2,0.898068904876709,None,,,,,0,0,0,0,0,90,90,1,263.2350149154663,,,,,,,,,,,,,,,,,,,,,,,,,,,,,,,,,,,,,,,,,,,,,,,,,,,,,,,,,,,,,,,,,,,,,,,,,,,,,,,,,127.0,127.0,200.0,125.0,125.0,200.0,2.1,2.11,-222,284,0,274,258,-288,263.21619987487793,263.21627593040466,263.21987557411194,263.2350149154663,263.38139843940735,263.38139843940735,263.38139843940735,263.38139843940735,263.38139843940735,263.38139843940735,263.38139843940735,264.15540766716003,2,0.898068904876709,None,,,,,,,,,,,,,,,,,,83,2,2025-02-21_14h55.33.224,comp,2024.2.4,56.411144764661266,2025-02-21 14h55.55.624878 -0500,
91,91,0,critical,whd,35.0,4.0,lower,57.0,133.0,133.0,57.0,70.0,70.0,2,1.974039077758789,None,,,,,0,0,0,0,0,91,91,88,264.17517495155334,,,,,,,,,,,,,,,,,,,,,,,,,,,,,,,,,,,,,,,,,,,,,,,,,,,,,,,,,,,,,,,,,,,,,,,,,,,,,,,,,57.0,133.0,133.0,57.0,70.0,70.0,4.0,4.1,-191,-264,0,-19,160,-285,264.1569519042969,264.1570267677307,264.15988874435425,264.17517495155334,264.31212091445923,264.31212091445923,264.31212091445923,264.31212091445923,264.31212091445923,264.31212091445923,264.31212091445923,266.16615653038025,2,1.974039077758789,None,,,,,,,,,,,,,,,,,,83,2,2025-02-21_14h55.33.224,comp,2024.2.4,56.411144764661266,2025-02-21 14h55.55.624878 -0500,
92,92,0,catch,None,None,None,None,None,None,None,None,None,None,2,1.1989326477050781,None,,,,,0,0,0,0,0,92,92,124,266.18217182159424,,,,,,,,,,,,,,,,,,,,,,,,,,,,,,,,,,,,,,,,,,,,,,,,,,,,,,,,,,,,,,,,,,,,,,,,,,,,,,,,,91,99,127,198,66,124,2.1,2.12,-244,-271,0,-270,257,280,266.1682608127594,266.16833877563477,266.1718213558197,266.18217182159424,266.3328619003296,266.3328619003296,266.3328619003296,266.3328619003296,266.3328619003296,266.3328619003296,266.3328619003296,267.39716935157776,2,1.1989326477050781,None,,,,,,,,,,,,,,,,,,83,2,2025-02-21_14h55.33.224,comp,2024.2.4,56.411144764661266,2025-02-21 14h55.55.624878 -0500,
93,93,0,filler_square,None,None,None,None,None,None,None,None,None,None,3,1.3483693599700928,None,,,,,0,0,0,0,0,93,93,184,267.41663360595703,,,,,,,,,,,,,,,,,,,,,,,,,,,,,,,,,,,,,,,,,,,,,,,,,,,,,,,,,,,,,,,,,,,,,,,,,,,,,,,,,105.36601763472001,109.66087992354281,85.47505865797783,77.10141497320504,121.0533714870016,121.0533714870016,3.0,3.1,-189,275,0,-13,195,-288,267.3989531993866,267.3990285396576,267.4018621444702,267.41663360595703,267.5697252750397,267.5697252750397,267.5697252750397,267.5697252750397,267.5697252750397,267.5697252750397,267.5697252750397,268.7671754360199,3,1.3483693599700928,None,,,,,,,,,,,,,,,,,,83,2,2025-02-21_14h55.33.224,comp,2024.2.4,56.411144764661266,2025-02-21 14h55.55.624878 -0500,
94,94,0,critical,whd,20.0,1.0,lower,57.0,133.0,133.0,57.0,78.0,78.0,2,2.2541861534118652,None,,,,,0,0,0,0,0,94,94,90,268.7828016281128,,,,,,,,,,,,,,,,,,,,,,,,,,,,,,,,,,,,,,,,,,,,,,,,,,,,,,,,,,,,,,,,,,,,,,,,,,,,,,,,,57.0,133.0,133.0,57.0,78.0,78.0,1.0,1.3,289,-259,480,-251,644,-276,268.7686719894409,268.76876974105835,268.7720718383789,268.7828016281128,268.9319751262665,268.9319751262665,268.9319751262665,268.9319751262665,268.9319751262665,268.9319751262665,268.9319751262665,271.05075550079346,2,2.2541861534118652,None,,,,,,,,,,,,,,,,,,83,2,2025-02-21_14h55.33.224,comp,2024.2.4,56.411144764661266,2025-02-21 14h55.55.624878 -0500,
95,95,0,critical,dwh,20.0,2.1,upper,141.0,141.0,125.0,200.0,200.0,125.0,3,2.4412708282470703,None,,,,,0,0,0,0,0,95,95,31,271.06776118278503,,,,,,,,,,,,,,,,,,,,,,,,,,,,,,,,,,,,,,,,,,,,,,,,,,,,,,,,,,,,,,,,,,,,,,,,,,,,,,,,,141.0,141.0,125.0,200.0,200.0,125.0,2.1,2.12,-266,-266,0,-261,258,269,271.05231738090515,271.0523920059204,271.0557653903961,271.06776118278503,271.21904039382935,271.21904039382935,271.21904039382935,271.21904039382935,271.21904039382935,271.21904039382935,271.21904039382935,273.52308320999146,3,2.4412708282470703,None,,,,,,,,,,,,,,,,,,83,2,2025-02-21_14h55.33.224,comp,2024.2.4,56.411144764661266,2025-02-21 14h55.55.624878 -0500,
96,96,0,critical,hdw,35.0,1.0,upper,200.0,125.0,127.0,127.0,125.0,200.0,3,1.3864762783050537,None,,,,,0,0,0,0,0,96,96,109,273.5390830039978,,,,,,,,,,,,,,,,,,,,,,,,,,,,,,,,,,,,,,,,,,,,,,,,,,,,,,,,,,,,,,,,,,,,,,,,,,,,,,,,,200.0,125.0,127.0,127.0,125.0,200.0,1.0,1.1,-702,279,-480,260,-220,258,273.5246489048004,273.5247242450714,273.52755427360535,273.5390830039978,273.6854341030121,273.6854341030121,273.6854341030121,273.6854341030121,273.6854341030121,273.6854341030121,273.6854341030121,274.93611454963684,3,1.3864762783050537,None,,,,,,,,,,,,,,,,,,83,2,2025-02-21_14h55.33.224,comp,2024.2.4,56.411144764661266,2025-02-21 14h55.55.624878 -0500,
97,97,0,filler_square,None,None,None,None,None,None,None,None,None,None,3,1.5026495456695557,None,,,,,0,0,0,0,0,97,97,170,274.95129108428955,,,,,,,,,,,,,,,,,,,,,,,,,,,,,,,,,,,,,,,,,,,,,,,,,,,,,,,,,,,,,,,,,,,,,,,,,,,,,,,,,117.22927229502417,183.50089070520048,95.4683287709938,103.9759952462853,185.0872162085725,185.0872162085725,4.0,4.1,-240,-263,0,6,241,-282,274.9380831718445,274.9381904602051,274.94148325920105,274.95129108428955,275.1014540195465,275.1014540195465,275.1014540195465,275.1014540195465,275.1014540195465,275.1014540195465,275.1014540195465,276.4594945907593,3,1.5026495456695557,None,,,,,,,,,,,,,,,,,,83,2,2025-02-21_14h55.33.224,comp,2024.2.4,56.411144764661266,2025-02-21 14h55.55.624878 -0500,
98,98,0,catch,None,None,None,None,None,None,None,None,None,None,1,1.1603789329528809,None,,,,,0,0,0,0,0,98,98,121,276.47661805152893,,,,,,,,,,,,,,,,,,,,,,,,,,,,,,,,,,,,,,,,,,,,,,,,,,,,,,,,,,,,,,,,,,,,,,,,,,,,,,,,,200,125,125,65,83,107,2.2,2.22,-191,275,0,-260,182,-266,276.46171593666077,276.46179389953613,276.46498942375183,276.47661805152893,276.62165927886963,276.62165927886963,276.62165927886963,276.62165927886963,276.62165927886963,276.62165927886963,276.62165927886963,277.6532278060913,1,1.1603789329528809,None,,,,,,,,,,,,,,,,,,83,2,2025-02-21_14h55.33.224,comp,2024.2.4,56.411144764661266,2025-02-21 14h55.55.624878 -0500,
99,99,0,filler_square,None,None,None,None,None,None,None,None,None,None,2,1.767855167388916,None,,,,,0,0,0,0,0,99,99,179,277.6693341732025,,,,,,,,,,,,,,,,,,,,,,,,,,,,,,,,,,,,,,,,,,,,,,,,,,,,,,,,,,,,,,,,,,,,,,,,,,,,,,,,,88.86668944857728,86.45916438531073,89.41919127250979,89.41919127250979,76.06302719228216,66.63237917294083,3.0,3.1,-184,252,0,18,174,-255,277.65501403808594,277.65509247779846,277.65823125839233,277.6693341732025,277.81663846969604,277.81663846969604,277.81663846969604,277.81663846969604,277.81663846969604,277.81663846969604,277.81663846969604,279.4535188674927,2,1.767855167388916,None,,,,,,,,,,,,,,,,,,83,2,2025-02-21_14h55.33.224,comp,2024.2.4,56.411144764661266,2025-02-21 14h55.55.624878 -0500,
100,100,0,critical,hwd,35.0,4.0,lower,133.0,57.0,57.0,133.0,70.0,70.0,1,1.4876132011413574,None,,,,,0,0,0,0,0,100,100,100,279.4695506095886,,,,,,,,,,,,,,,,,,,,,,,,,,,,,,,,,,,,,,,,,,,,,,,,,,,,,,,,,,,,,,,,,,,,,,,,,,,,,,,,,133.0,57.0,57.0,133.0,70.0,70.0,4.0,4.2,-191,2,0,-280,198,17,279.4550437927246,279.4551193714142,279.4582381248474,279.4695506095886,279.6231641769409,279.6231641769409,279.6231641769409,279.6231641769409,279.6231641769409,279.6231641769409,279.6231641769409,280.9610912799835,1,1.4876132011413574,None,,,,,,,,,,,,,,,,,,83,2,2025-02-21_14h55.33.224,comp,2024.2.4,56.411144764661266,2025-02-21 14h55.55.624878 -0500,
101,101,0,filler_square,None,None,None,None,None,None,None,None,None,None,1,2.0451550483703613,None,,,,,0,0,0,0,0,101,101,187,280.976505279541,,,,,,,,,,,,,,,,,,,,,,,,,,,,,,,,,,,,,,,,,,,,,,,,,,,,,,,,,,,,,,,,,,,,,,,,,,,,,,,,,104.10538240620426,104.10538240620426,69.92639489441481,65.92848691886987,91.50239628786431,98.00443422715048,1.0,1.1,-661,285,-480,253,-302,261,280.96284890174866,280.9629259109497,280.9658088684082,280.976505279541,281.12123012542725,281.12123012542725,281.12123012542725,281.12123012542725,281.12123012542725,281.12123012542725,281.12123012542725,283.0291635990143,1,2.0451550483703613,None,,,,,,,,,,,,,,,,,,83,2,2025-02-21_14h55.33.224,comp,2024.2.4,56.411144764661266,2025-02-21 14h55.55.624878 -0500,
102,102,0,filler_random,None,None,None,None,None,None,None,None,None,None,3,1.6300020217895508,None,,,,,0,0,0,0,0,102,102,163,283.0471112728119,,,,,,,,,,,,,,,,,,,,,,,,,,,,,,,,,,,,,,,,,,,,,,,,,,,,,,,,,,,,,,,,,,,,,,,,,,,,,,,,,145.38418004117915,142.39820392915328,72.41342387729588,187.81628813102353,161.60031349505195,139.93984140803178,2.1,2.11,-261,276,0,253,260,-286,283.03086256980896,283.03093910217285,283.0337436199188,283.0471112728119,283.1893436908722,283.1893436908722,283.1893436908722,283.1893436908722,283.1893436908722,283.1893436908722,283.1893436908722,284.68995904922485,3,1.6300020217895508,None,,,,,,,,,,,,,,,,,,83,2,2025-02-21_14h55.33.224,comp,2024.2.4,56.411144764661266,2025-02-21 14h55.55.624878 -0500,
103,103,0,critical,wdh,20.0,4.0,lower,57.0,133.0,78.0,78.0,133.0,57.0,3,2.260261058807373,None,,,,,0,0,0,0,0,103,103,82,284.7062129974365,,,,,,,,,,,,,,,,,,,,,,,,,,,,,,,,,,,,,,,,,,,,,,,,,,,,,,,,,,,,,,,,,,,,,,,,,,,,,,,,,57.0,133.0,78.0,78.0,133.0,57.0,4.0,4.1,-202,-253,0,12,164,-265,284.6914744377136,284.6915512084961,284.69453859329224,284.7062129974365,284.85814905166626,284.85814905166626,284.85814905166626,284.85814905166626,284.85814905166626,284.85814905166626,284.85814905166626,286.9749915599823,3,2.260261058807373,None,,,,,,,,,,,,,,,,,,83,2,2025-02-21_14h55.33.224,comp,2024.2.4,56.411144764661266,2025-02-21 14h55.55.624878 -0500,
104,104,0,critical,wdh,35.0,4.0,upper,125.0,200.0,127.0,127.0,200.0,125.0,1,1.718719482421875,None,,,,,0,0,0,0,0,104,104,77,286.99041056632996,,,,,,,,,,,,,,,,,,,,,,,,,,,,,,,,,,,,,,,,,,,,,,,,,,,,,,,,,,,,,,,,,,,,,,,,,,,,,,,,,125.0,200.0,127.0,127.0,200.0,125.0,4.0,4.2,-260,2,0,-287,222,-15,286.97646713256836,286.97661328315735,286.979544878006,286.99041056632996,287.1399199962616,287.1399199962616,287.1399199962616,287.1399199962616,287.1399199962616,287.1399199962616,287.1399199962616,288.7258358001709,1,1.718719482421875,None,,,,,,,,,,,,,,,,,,83,2,2025-02-21_14h55.33.224,comp,2024.2.4,56.411144764661266,2025-02-21 14h55.55.624878 -0500,
105,105,0,critical,dwh,35.0,2.1,upper,127.0,127.0,125.0,200.0,200.0,125.0,3,2.503528356552124,None,,,,,0,0,0,0,0,105,105,5,288.7416560649872,,,,,,,,,,,,,,,,,,,,,,,,,,,,,,,,,,,,,,,,,,,,,,,,,,,,,,,,,,,,,,,,,,,,,,,,,,,,,,,,,127.0,127.0,125.0,200.0,200.0,125.0,2.1,2.12,-260,-266,0,-263,258,287,288.7274434566498,288.7275185585022,288.73139548301697,288.7416560649872,288.89613032341003,288.89613032341003,288.89613032341003,288.89613032341003,288.89613032341003,288.89613032341003,288.89613032341003,291.25682282447815,3,2.503528356552124,None,,,,,,,,,,,,,,,,,,83,2,2025-02-21_14h55.33.224,comp,2024.2.4,56.411144764661266,2025-02-21 14h55.55.624878 -0500,
106,106,0,critical,dhw,35.0,1.0,lower,70.0,70.0,133.0,57.0,57.0,133.0,3,3.6090385913848877,None,,,,,0,0,0,0,0,106,106,48,291.27704215049744,,,,,,,,,,,,,,,,,,,,,,,,,,,,,,,,,,,,,,,,,,,,,,,,,,,,,,,,,,,,,,,,,,,,,,,,,,,,,,,,,70.0,70.0,133.0,57.0,57.0,133.0,1.0,1.3,320,-282,480,-257,671,-270,291.2584755420685,291.2585520744324,291.2618417739868,291.27704215049744,291.4237394332886,291.4237394332886,291.4237394332886,291.4237394332886,291.4237394332886,291.4237394332886,291.4237394332886,294.89218640327454,3,3.6090385913848877,None,,,,,,,,,,,,,,,,,,83,2,2025-02-21_14h55.33.224,comp,2024.2.4,56.411144764661266,2025-02-21 14h55.55.624878 -0500,
107,107,0,filler_square,None,None,None,None,None,None,None,None,None,None,1,1.8649542331695557,None,,,,,0,0,0,0,0,107,107,195,294.90823674201965,,,,,,,,,,,,,,,,,,,,,,,,,,,,,,,,,,,,,,,,,,,,,,,,,,,,,,,,,,,,,,,,,,,,,,,,,,,,,,,,,83.02103640779362,83.02103640779362,74.99859383098782,61.851673593940376,60.039070562101294,75.42072480301215,2.1,2.12,-168,-265,0,-283,165,267,294.89395451545715,294.8940317630768,294.8974940776825,294.90823674201965,295.05817794799805,295.05817794799805,295.05817794799805,295.05817794799805,295.05817794799805,295.05817794799805,295.05817794799805,296.7757291793823,1,1.8649542331695557,None,,,,,,,,,,,,,,,,,,83,2,2025-02-21_14h55.33.224,comp,2024.2.4,56.411144764661266,2025-02-21 14h55.55.624878 -0500,
108,108,0,critical,dwh,35.0,4.0,lower,70.0,70.0,57.0,133.0,133.0,57.0,2,2.4849987030029297,None,,,,,0,0,0,0,0,108,108,64,296.7920832633972,,,,,,,,,,,,,,,,,,,,,,,,,,,,,,,,,,,,,,,,,,,,,,,,,,,,,,,,,,,,,,,,,,,,,,,,,,,,,,,,,70.0,70.0,57.0,133.0,133.0,57.0,4.0,4.1,-198,-263,0,-8,191,-265,296.7772741317749,296.77735209465027,296.7813422679901,296.7920832633972,296.94431352615356,296.94431352615356,296.94431352615356,296.94431352615356,296.94431352615356,296.94431352615356,296.94431352615356,299.27983236312866,2,2.4849987030029297,None,,,,,,,,,,,,,,,,,,83,2,2025-02-21_14h55.33.224,comp,2024.2.4,56.411144764661266,2025-02-21 14h55.55.624878 -0500,
109,109,0,filler_square,None,None,None,None,None,None,None,None,None,None,1,2.042958974838257,None,,,,,0,0,0,0,0,109,109,203,299.29879879951477,,,,,,,,,,,,,,,,,,,,,,,,,,,,,,,,,,,,,,,,,,,,,,,,,,,,,,,,,,,,,,,,,,,,,,,,,,,,,,,,,101.28514907031659,101.28514907031659,95.40217323604901,95.80208424070327,98.94370375170493,73.59202887980513,4.0,4.2,-195,4,0,-257,181,1,299.28191018104553,299.2820408344269,299.28529810905457,299.29879879951477,299.44438195228577,299.44438195228577,299.44438195228577,299.44438195228577,299.44438195228577,299.44438195228577,299.44438195228577,301.346399307251,1,2.042958974838257,None,,,,,,,,,,,,,,,,,,83,2,2025-02-21_14h55.33.224,comp,2024.2.4,56.411144764661266,2025-02-21 14h55.55.624878 -0500,
110,110,0,critical,dwh,20.0,3.0,upper,141.0,141.0,125.0,200.0,200.0,125.0,2,1.6106011867523193,None,,,,,0,0,0,0,0,110,110,69,301.363139629364,,,,,,,,,,,,,,,,,,,,,,,,,,,,,,,,,,,,,,,,,,,,,,,,,,,,,,,,,,,,,,,,,,,,,,,,,,,,,,,,,141.0,141.0,125.0,200.0,200.0,125.0,3.0,3.1,-266,255,0,15,258,-270,301.348105430603,301.34818506240845,301.35160183906555,301.363139629364,301.51379776000977,301.51379776000977,301.51379776000977,301.51379776000977,301.51379776000977,301.51379776000977,301.51379776000977,302.98026752471924,2,1.6106011867523193,None,,,,,,,,,,,,,,,,,,83,2,2025-02-21_14h55.33.224,comp,2024.2.4,56.411144764661266,2025-02-21 14h55.55.624878 -0500,
111,111,0,critical,hdw,20.0,1.0,lower,133.0,57.0,78.0,78.0,57.0,133.0,1,2.361553192138672,None,,,,,0,0,0,0,0,111,111,114,302.99614810943604,,,,,,,,,,,,,,,,,,,,,,,,,,,,,,,,,,,,,,,,,,,,,,,,,,,,,,,,,,,,,,,,,,,,,,,,,,,,,,,,,133.0,57.0,78.0,78.0,57.0,133.0,1.0,1.3,316,-278,480,-286,682,-285,302.98193645477295,302.9820158481598,302.98514556884766,302.99614810943604,303.148001909256,303.148001909256,303.148001909256,303.148001909256,303.148001909256,303.148001909256,303.148001909256,305.36423087120056,1,2.361553192138672,None,,,,,,,,,,,,,,,,,,83,2,2025-02-21_14h55.33.224,comp,2024.2.4,56.411144764661266,2025-02-21 14h55.55.624878 -0500,
112,112,0,filler_random,None,None,None,None,None,None,None,None,None,None,2,1.0975565910339355,None,,,,,0,0,0,0,0,112,112,149,305.38002347946167,,,,,,,,,,,,,,,,,,,,,,,,,,,,,,,,,,,,,,,,,,,,,,,,,,,,,,,,,,,,,,,,,,,,,,,,,,,,,,,,,123.2993994875907,120.89817376451899,197.67581538791617,132.723060906068,187.96602255122485,95.44151453984688,4.0,4.1,-223,-265,0,-7,210,-262,305.3661711215973,305.36625266075134,305.36929631233215,305.38002347946167,305.53020763397217,305.53020763397217,305.53020763397217,305.53020763397217,305.53020763397217,305.53020763397217,305.53020763397217,306.47949957847595,2,1.0975565910339355,None,,,,,,,,,,,,,,,,,,83,2,2025-02-21_14h55.33.224,comp,2024.2.4,56.411144764661266,2025-02-21 14h55.55.624878 -0500,
113,113,0,filler_random,None,None,None,None,None,None,None,None,None,None,3,1.5505845546722412,None,,,,,0,0,0,0,0,113,113,134,306.49452209472656,,,,,,,,,,,,,,,,,,,,,,,,,,,,,,,,,,,,,,,,,,,,,,,,,,,,,,,,,,,,,,,,,,,,,,,,,,,,,,,,,71.49256266502886,88.14640718208358,58.03224159116307,125.34203574732983,166.6803078910473,99.92212719651482,2.1,2.11,-203,279,0,251,209,-283,306.4813642501831,306.4814820289612,306.4847962856293,306.49452209472656,306.63335967063904,306.63335967063904,306.63335967063904,306.63335967063904,306.63335967063904,306.63335967063904,306.63335967063904,308.04903626441956,3,1.5505845546722412,None,,,,,,,,,,,,,,,,,,83,2,2025-02-21_14h55.33.224,comp,2024.2.4,56.411144764661266,2025-02-21 14h55.55.624878 -0500,
114,114,0,critical,dwh,20.0,1.0,upper,141.0,141.0,125.0,200.0,200.0,125.0,3,1.5123329162597656,None,,,,,0,0,0,0,0,114,114,67,308.06879901885986,,,,,,,,,,,,,,,,,,,,,,,,,,,,,,,,,,,,,,,,,,,,,,,,,,,,,,,,,,,,,,,,,,,,,,,,,,,,,,,,,141.0,141.0,125.0,200.0,200.0,125.0,1.0,1.1,-746,277,-480,274,-222,262,308.050799369812,308.05093026161194,308.0542256832123,308.06879901885986,308.21863651275635,308.21863651275635,308.21863651275635,308.21863651275635,308.21863651275635,308.21863651275635,308.21863651275635,309.585248708725,3,1.5123329162597656,None,,,,,,,,,,,,,,,,,,83,2,2025-02-21_14h55.33.224,comp,2024.2.4,56.411144764661266,2025-02-21 14h55.55.624878 -0500,
115,115,0,critical,hwd,35.0,1.0,lower,133.0,57.0,57.0,133.0,70.0,70.0,2,2.329876184463501,None,,,,,0,0,0,0,0,115,115,96,309.6033282279968,,,,,,,,,,,,,,,,,,,,,,,,,,,,,,,,,,,,,,,,,,,,,,,,,,,,,,,,,,,,,,,,,,,,,,,,,,,,,,,,,133.0,57.0,57.0,133.0,70.0,70.0,1.0,1.1,-671,276,-480,262,-282,260,309.58688712120056,309.5869653224945,309.59025621414185,309.6033282279968,309.74669456481934,309.74669456481934,309.74669456481934,309.74669456481934,309.74669456481934,309.74669456481934,309.74669456481934,311.9473674297333,2,2.329876184463501,None,,,,,,,,,,,,,,,,,,83,2,2025-02-21_14h55.33.224,comp,2024.2.4,56.411144764661266,2025-02-21 14h55.55.624878 -0500,
116,116,0,filler_random,None,None,None,None,None,None,None,None,None,None,1,1.418344497680664,None,,,,,0,0,0,0,0,116,116,160,311.9627466201782,,,,,,,,,,,,,,,,,,,,,,,,,,,,,,,,,,,,,,,,,,,,,,,,,,,,,,,,,,,,,,,,,,,,,,,,,,,,,,,,,118.60221621821006,167.21328848023774,181.43403530987223,88.7586448216104,140.96949707607374,90.83026692048544,3.0,3.2,-224,-287,0,12,186,273,311.9490029811859,311.94907999038696,311.9524989128113,311.9627466201782,312.11169242858887,312.11169242858887,312.11169242858887,312.11169242858887,312.11169242858887,312.11169242858887,312.11169242858887,313.39793157577515,1,1.418344497680664,None,,,,,,,,,,,,,,,,,,83,2,2025-02-21_14h55.33.224,comp,2024.2.4,56.411144764661266,2025-02-21 14h55.55.624878 -0500,
117,117,0,critical,dhw,35.0,3.0,upper,127.0,127.0,200.0,125.0,125.0,200.0,3,2.9759175777435303,None,,,,,0,0,0,0,0,117,117,51,313.41313338279724,,,,,,,,,,,,,,,,,,,,,,,,,,,,,,,,,,,,,,,,,,,,,,,,,,,,,,,,,,,,,,,,,,,,,,,,,,,,,,,,,127.0,127.0,200.0,125.0,125.0,200.0,3.0,3.1,-222,279,0,-7,258,-274,313.3994562625885,313.399534702301,313.4028670787811,313.41313338279724,313.5681104660034,313.5681104660034,313.5681104660034,313.5681104660034,313.5681104660034,313.5681104660034,313.5681104660034,316.40021300315857,3,2.9759175777435303,None,,,,,,,,,,,,,,,,,,83,2,2025-02-21_14h55.33.224,comp,2024.2.4,56.411144764661266,2025-02-21 14h55.55.624878 -0500,
118,118,0,critical,hwd,35.0,1.0,upper,200.0,125.0,125.0,200.0,127.0,127.0,2,1.8527624607086182,None,,,,,0,0,0,0,0,118,118,97,316.41679430007935,,,,,,,,,,,,,,,,,,,,,,,,,,,,,,,,,,,,,,,,,,,,,,,,,,,,,,,,,,,,,,,,,,,,,,,,,,,,,,,,,200.0,125.0,125.0,200.0,127.0,127.0,1.0,1.1,-738,285,-480,281,-220,285,316.40178060531616,316.401882648468,316.40586590766907,316.41679430007935,316.5673837661743,316.5673837661743,316.5673837661743,316.5673837661743,316.5673837661743,316.5673837661743,316.5673837661743,318.28918623924255,2,1.8527624607086182,None,,,,,,,,,,,,,,,,,,83,2,2025-02-21_14h55.33.224,comp,2024.2.4,56.411144764661266,2025-02-21 14h55.55.624878 -0500,
119,119,0,filler_square,None,None,None,None,None,None,None,None,None,None,3,0.8590803146362305,None,,,,,0,0,0,0,0,119,119,194,318.30654644966125,,,,,,,,,,,,,,,,,,,,,,,,,,,,,,,,,,,,,,,,,,,,,,,,,,,,,,,,,,,,,,,,,,,,,,,,,,,,,,,,,148.85364112641767,165.56358745222985,69.3796917005038,157.1717098070481,183.71247764890506,183.71247764890506,1.0,1.1,-737,279,-480,284,-214,261,318.29094409942627,318.29101967811584,318.2938551902771,318.30654644966125,318.4476339817047,318.4476339817047,318.4476339817047,318.4476339817047,318.4476339817047,318.4476339817047,318.4476339817047,319.1750922203064,3,0.8590803146362305,None,,,,,,,,,,,,,,,,,,83,2,2025-02-21_14h55.33.224,comp,2024.2.4,56.411144764661266,2025-02-21 14h55.55.624878 -0500,
120,120,0,filler_square,None,None,None,None,None,None,None,None,None,None,2,1.396348237991333,None,,,,,0,0,0,0,0,120,120,205,319.1926918029785,,,,,,,,,,,,,,,,,,,,,,,,,,,,,,,,,,,,,,,,,,,,,,,,,,,,,,,,,,,,,,,,,,,,,,,,,,,,,,,,,139.3921933289912,132.38695443226678,149.38188676037745,149.38188676037745,61.22426889898088,62.685642423083124,4.0,4.2,-237,19,0,-256,202,-4,319.17673993110657,319.17681646347046,319.17961716651917,319.1926918029785,319.33218216896057,319.33218216896057,319.33218216896057,319.33218216896057,319.33218216896057,319.33218216896057,319.33218216896057,320.60216212272644,2,1.396348237991333,None,,,,,,,,,,,,,,,,,,83,2,2025-02-21_14h55.33.224,comp,2024.2.4,56.411144764661266,2025-02-21 14h55.55.624878 -0500,
121,121,0,critical,whd,20.0,2.1,upper,125.0,200.0,200.0,125.0,141.0,141.0,2,2.8731794357299805,None,,,,,0,0,0,0,0,121,121,15,320.6198389530182,,,,,,,,,,,,,,,,,,,,,,,,,,,,,,,,,,,,,,,,,,,,,,,,,,,,,,,,,,,,,,,,,,,,,,,,,,,,,,,,,125.0,200.0,200.0,125.0,141.0,141.0,2.1,2.11,-258,260,0,264,229,-287,320.6037583351135,320.60383558273315,320.6068413257599,320.6198389530182,320.7664613723755,320.7664613723755,320.7664613723755,320.7664613723755,320.7664613723755,320.7664613723755,320.7664613723755,323.5030241012573,2,2.8731794357299805,None,,,,,,,,,,,,,,,,,,83,2,2025-02-21_14h55.33.224,comp,2024.2.4,56.411144764661266,2025-02-21 14h55.55.624878 -0500,
122,122,0,critical,hwd,35.0,2.1,lower,133.0,57.0,57.0,133.0,70.0,70.0,2,2.0259602069854736,None,,,,,0,0,0,0,0,122,122,16,323.5230875015259,,,,,,,,,,,,,,,,,,,,,,,,,,,,,,,,,,,,,,,,,,,,,,,,,,,,,,,,,,,,,,,,,,,,,,,,,,,,,,,,,133.0,57.0,57.0,133.0,70.0,70.0,2.1,2.11,-191,286,0,281,198,-286,323.50460481643677,323.5046851634979,323.5081961154938,323.5230875015259,323.66536808013916,323.66536808013916,323.66536808013916,323.66536808013916,323.66536808013916,323.66536808013916,323.66536808013916,325.5517625808716,2,2.0259602069854736,None,,,,,,,,,,,,,,,,,,83,2,2025-02-21_14h55.33.224,comp,2024.2.4,56.411144764661266,2025-02-21 14h55.55.624878 -0500,
123,123,0,filler_square,None,None,None,None,None,None,None,None,None,None,3,2.0692038536071777,None,,,,,0,0,0,0,0,123,123,182,325.5677227973938,,,,,,,,,,,,,,,,,,,,,,,,,,,,,,,,,,,,,,,,,,,,,,,,,,,,,,,,,,,,,,,,,,,,,,,,,,,,,,,,,60.563281211151214,58.464220291681876,76.80265072938967,62.090488484379556,77.07256464848282,77.07256464848282,2.1,2.11,-156,278,0,287,166,-273,325.55359411239624,325.5536744594574,325.55696296691895,325.5677227973938,325.71670413017273,325.71670413017273,325.71670413017273,325.71670413017273,325.71670413017273,325.71670413017273,325.71670413017273,327.6502859592438,3,2.0692038536071777,None,,,,,,,,,,,,,,,,,,83,2,2025-02-21_14h55.33.224,comp,2024.2.4,56.411144764661266,2025-02-21 14h55.55.624878 -0500,
124,124,0,filler_random,None,None,None,None,None,None,None,None,None,None,3,1.377730131149292,None,,,,,0,0,0,0,0,124,124,141,327.6675260066986,,,,,,,,,,,,,,,,,,,,,,,,,,,,,,,,,,,,,,,,,,,,,,,,,,,,,,,,,,,,,,,,,,,,,,,,,,,,,,,,,135.10778146226738,191.263111418641,130.88590115950353,162.96324161047755,155.31402244492637,178.1384330983493,3.0,3.2,-273,-275,0,-2,267,278,327.6517300605774,327.65179324150085,327.6541213989258,327.6675260066986,327.8220944404602,327.8220944404602,327.8220944404602,327.8220944404602,327.8220944404602,327.8220944404602,327.8220944404602,329.05402636528015,3,1.377730131149292,None,,,,,,,,,,,,,,,,,,83,2,2025-02-21_14h55.33.224,comp,2024.2.4,56.411144764661266,2025-02-21 14h55.55.624878 -0500,
125,125,0,critical,whd,20.0,2.1,lower,57.0,133.0,133.0,57.0,78.0,78.0,2,1.9825043678283691,None,,,,,0,0,0,0,0,125,125,14,329.07065987586975,,,,,,,,,,,,,,,,,,,,,,,,,,,,,,,,,,,,,,,,,,,,,,,,,,,,,,,,,,,,,,,,,,,,,,,,,,,,,,,,,57.0,133.0,133.0,57.0,78.0,78.0,2.1,2.11,-191,275,0,290,164,-256,329.05550742149353,329.05562806129456,329.0597219467163,329.07065987586975,329.2201750278473,329.2201750278473,329.2201750278473,329.2201750278473,329.2201750278473,329.2201750278473,329.2201750278473,331.0692207813263,2,1.9825043678283691,None,,,,,,,,,,,,,,,,,,83,2,2025-02-21_14h55.33.224,comp,2024.2.4,56.411144764661266,2025-02-21 14h55.55.624878 -0500,
126,126,0,critical,dhw,20.0,2.1,lower,78.0,78.0,133.0,57.0,57.0,133.0,3,2.5684897899627686,None,,,,,0,0,0,0,0,126,126,26,331.08522605895996,,,,,,,,,,,,,,,,,,,,,,,,,,,,,,,,,,,,,,,,,,,,,,,,,,,,,,,,,,,,,,,,,,,,,,,,,,,,,,,,,78.0,78.0,133.0,57.0,57.0,133.0,2.1,2.12,-164,-254,0,-261,191,263,331.07073044776917,331.0708079338074,331.07401633262634,331.08522605895996,331.2400813102722,331.2400813102722,331.2400813102722,331.2400813102722,331.2400813102722,331.2400813102722,331.2400813102722,333.6728403568268,3,2.5684897899627686,None,,,,,,,,,,,,,,,,,,83,2,2025-02-21_14h55.33.224,comp,2024.2.4,56.411144764661266,2025-02-21 14h55.55.624878 -0500,
127,127,0,critical,dhw,35.0,1.0,upper,127.0,127.0,200.0,125.0,125.0,200.0,3,1.723888874053955,None,,,,,0,0,0,0,0,127,127,49,333.6892831325531,,,,,,,,,,,,,,,,,,,,,,,,,,,,,,,,,,,,,,,,,,,,,,,,,,,,,,,,,,,,,,,,,,,,,,,,,,,,,,,,,127.0,127.0,200.0,125.0,125.0,200.0,1.0,1.3,258,-290,480,-261,738,-257,333.67468547821045,333.6748003959656,333.678923368454,333.6892831325531,333.83748745918274,333.83748745918274,333.83748745918274,333.83748745918274,333.83748745918274,333.83748745918274,333.83748745918274,335.42489433288574,3,1.723888874053955,None,,,,,,,,,,,,,,,,,,83,2,2025-02-21_14h55.33.224,comp,2024.2.4,56.411144764661266,2025-02-21 14h55.55.624878 -0500,
128,128,0,filler_square,None,None,None,None,None,None,None,None,None,None,3,1.2280101776123047,None,,,,,0,0,0,0,0,128,128,198,335.4412443637848,,,,,,,,,,,,,,,,,,,,,,,,,,,,,,,,,,,,,,,,,,,,,,,,,,,,,,,,,,,,,,,,,,,,,,,,,,,,,,,,,68.11308495895405,86.60194266858139,111.21497918936225,98.59663991297877,126.77232628145373,126.77232628145373,4.0,4.2,-189,-17,0,-266,209,-7,335.42716574668884,335.42724227905273,335.43016815185547,335.4412443637848,335.5884943008423,335.5884943008423,335.5884943008423,335.5884943008423,335.5884943008423,335.5884943008423,335.5884943008423,336.67300248146057,3,1.2280101776123047,None,,,,,,,,,,,,,,,,,,83,2,2025-02-21_14h55.33.224,comp,2024.2.4,56.411144764661266,2025-02-21 14h55.55.624878 -0500,
129,129,0,critical,dhw,20.0,4.0,lower,78.0,78.0,133.0,57.0,57.0,133.0,2,2.67099928855896,None,,,,,0,0,0,0,0,129,129,58,336.6940269470215,,,,,,,,,,,,,,,,,,,,,,,,,,,,,,,,,,,,,,,,,,,,,,,,,,,,,,,,,,,,,,,,,,,,,,,,,,,,,,,,,78.0,78.0,133.0,57.0,57.0,133.0,4.0,4.1,-164,-261,0,15,191,-272,336.6744773387909,336.6745533943176,336.6781892776489,336.6940269470215,336.8260726928711,336.8260726928711,336.8260726928711,336.8260726928711,336.8260726928711,336.8260726928711,336.8260726928711,339.37910175323486,2,2.67099928855896,None,,,,,,,,,,,,,,,,,,83,2,2025-02-21_14h55.33.224,comp,2024.2.4,56.411144764661266,2025-02-21 14h55.55.624878 -0500,
130,130,0,critical,dhw,20.0,1.0,lower,78.0,78.0,133.0,57.0,57.0,133.0,2,0.8792057037353516,None,,,,,0,0,0,0,0,130,130,54,339.3991298675537,,,,,,,,,,,,,,,,,,,,,,,,,,,,,,,,,,,,,,,,,,,,,,,,,,,,,,,,,,,,,,,,,,,,,,,,,,,,,,,,,78.0,78.0,133.0,57.0,57.0,133.0,1.0,1.2,-164,17,0,19,191,6,339.3804931640625,339.3805887699127,339.38344979286194,339.3991298675537,339.53955006599426,339.53955006599426,339.53955006599426,339.53955006599426,339.53955006599426,339.53955006599426,339.53955006599426,340.2916295528412,2,0.8792057037353516,None,,,,,,,,,,,,,,,,,,83,2,2025-02-21_14h55.33.224,comp,2024.2.4,56.411144764661266,2025-02-21 14h55.55.624878 -0500,
131,131,0,critical,dwh,20.0,2.1,lower,78.0,78.0,57.0,133.0,133.0,57.0,2,2.298478126525879,None,,,,,0,0,0,0,0,131,131,6,340.30729961395264,,,,,,,,,,,,,,,,,,,,,,,,,,,,,,,,,,,,,,,,,,,,,,,,,,,,,,,,,,,,,,,,,,,,,,,,,,,,,,,,,78.0,78.0,57.0,133.0,133.0,57.0,2.1,2.11,-202,262,0,260,191,-273,340.29342341423035,340.2935516834259,340.2970163822174,340.30729961395264,340.4547643661499,340.4547643661499,340.4547643661499,340.4547643661499,340.4547643661499,340.4547643661499,340.4547643661499,342.6148498058319,2,2.298478126525879,None,,,,,,,,,,,,,,,,,,83,2,2025-02-21_14h55.33.224,comp,2024.2.4,56.411144764661266,2025-02-21 14h55.55.624878 -0500,
132,132,0,critical,dwh,35.0,2.1,lower,70.0,70.0,57.0,133.0,133.0,57.0,2,1.2943806648254395,None,,,,,0,0,0,0,0,132,132,28,342.6308717727661,,,,,,,,,,,,,,,,,,,,,,,,,,,,,,,,,,,,,,,,,,,,,,,,,,,,,,,,,,,,,,,,,,,,,,,,,,,,,,,,,70.0,70.0,57.0,133.0,133.0,57.0,2.1,2.11,-198,259,0,252,191,-265,342.61638474464417,342.6164605617523,342.6193082332611,342.6308717727661,342.7743773460388,342.7743773460388,342.7743773460388,342.7743773460388,342.7743773460388,342.7743773460388,342.7743773460388,343.9308936595917,2,1.2943806648254395,None,,,,,,,,,,,,,,,,,,83,2,2025-02-21_14h55.33.224,comp,2024.2.4,56.411144764661266,2025-02-21 14h55.55.624878 -0500,
133,133,0,critical,wdh,35.0,3.0,lower,57.0,133.0,70.0,70.0,133.0,57.0,3,2.1912193298339844,None,,,,,0,0,0,0,0,133,133,74,343.94990253448486,,,,,,,,,,,,,,,,,,,,,,,,,,,,,,,,,,,,,,,,,,,,,,,,,,,,,,,,,,,,,,,,,,,,,,,,,,,,,,,,,57.0,133.0,70.0,70.0,133.0,57.0,3.0,3.2,-198,-285,0,-17,160,255,343.9323809146881,343.9324560165405,343.9352903366089,343.94990253448486,344.09365010261536,344.09365010261536,344.09365010261536,344.09365010261536,344.09365010261536,344.09365010261536,344.09365010261536,346.1582455635071,3,2.1912193298339844,None,,,,,,,,,,,,,,,,,,83,2,2025-02-21_14h55.33.224,comp,2024.2.4,56.411144764661266,2025-02-21 14h55.55.624878 -0500,
134,134,0,filler_square,None,None,None,None,None,None,None,None,None,None,1,1.6870100498199463,None,,,,,0,0,0,0,0,134,134,185,346.17420053482056,,,,,,,,,,,,,,,,,,,,,,,,,,,,,,,,,,,,,,,,,,,,,,,,,,,,,,,,,,,,,,,,,,,,,,,,,,,,,,,,,186.31116268047128,186.31116268047128,64.32418815987629,73.10377033852032,101.79630293964055,169.35236691964187,3.0,3.2,-226,-257,0,16,217,275,346.1599450111389,346.16002106666565,346.16394805908203,346.17420053482056,346.3251190185547,346.3251190185547,346.3251190185547,346.3251190185547,346.3251190185547,346.3251190185547,346.3251190185547,347.87853026390076,1,1.6870100498199463,None,,,,,,,,,,,,,,,,,,83,2,2025-02-21_14h55.33.224,comp,2024.2.4,56.411144764661266,2025-02-21 14h55.55.624878 -0500,
135,135,0,critical,wdh,20.0,1.0,upper,125.0,200.0,141.0,141.0,200.0,125.0,3,3.1732895374298096,None,,,,,0,0,0,0,0,135,135,79,347.8968207836151,,,,,,,,,,,,,,,,,,,,,,,,,,,,,,,,,,,,,,,,,,,,,,,,,,,,,,,,,,,,,,,,,,,,,,,,,,,,,,,,,125.0,200.0,141.0,141.0,200.0,125.0,1.0,1.2,-266,-5,0,0,229,16,347.88050603866577,347.88063383102417,347.88348865509033,347.8968207836151,348.03914308547974,348.03914308547974,348.03914308547974,348.03914308547974,348.03914308547974,348.03914308547974,348.03914308547974,351.07718801498413,3,3.1732895374298096,None,,,,,,,,,,,,,,,,,,83,2,2025-02-21_14h55.33.224,comp,2024.2.4,56.411144764661266,2025-02-21 14h55.55.624878 -0500,
136,136,0,critical,hdw,35.0,4.0,lower,133.0,57.0,70.0,70.0,57.0,133.0,3,1.5588274002075195,None,,,,,0,0,0,0,0,136,136,112,351.0950150489807,,,,,,,,,,,,,,,,,,,,,,,,,,,,,,,,,,,,,,,,,,,,,,,,,,,,,,,,,,,,,,,,,,,,,,,,,,,,,,,,,133.0,57.0,70.0,70.0,57.0,133.0,4.0,4.2,-160,-7,0,-285,198,-8,351.0786967277527,351.07877349853516,351.0819089412689,351.0950150489807,351.2431890964508,351.2431890964508,351.2431890964508,351.2431890964508,351.2431890964508,351.2431890964508,351.2431890964508,352.6602735519409,3,1.5588274002075195,None,,,,,,,,,,,,,,,,,,83,2,2025-02-21_14h55.33.224,comp,2024.2.4,56.411144764661266,2025-02-21 14h55.55.624878 -0500,
137,137,0,filler_square,None,None,None,None,None,None,None,None,None,None,2,2.0738601684570312,None,,,,,0,0,0,0,0,137,137,204,352.6763062477112,,,,,,,,,,,,,,,,,,,,,,,,,,,,,,,,,,,,,,,,,,,,,,,,,,,,,,,,,,,,,,,,,,,,,,,,,,,,,,,,,120.98622999100473,62.089027482066136,125.55496634504212,125.55496634504212,69.99846186135132,81.82818094829722,1.0,1.3,290,-257,480,-261,680,-266,352.6620535850525,352.6621322631836,352.66543650627136,352.6763062477112,352.8287489414215,352.8287489414215,352.8287489414215,352.8287489414215,352.8287489414215,352.8287489414215,352.8287489414215,354.7610659599304,2,2.0738601684570312,None,,,,,,,,,,,,,,,,,,83,2,2025-02-21_14h55.33.224,comp,2024.2.4,56.411144764661266,2025-02-21 14h55.55.624878 -0500,
138,138,0,critical,hwd,35.0,3.0,lower,133.0,57.0,57.0,133.0,70.0,70.0,2,3.2369165420532227,None,,,,,0,0,0,0,0,138,138,98,354.7766478061676,,,,,,,,,,,,,,,,,,,,,,,,,,,,,,,,,,,,,,,,,,,,,,,,,,,,,,,,,,,,,,,,,,,,,,,,,,,,,,,,,133.0,57.0,57.0,133.0,70.0,70.0,3.0,3.2,-191,-267,0,-1,198,273,354.76251196861267,354.7626094818115,354.7659454345703,354.7766478061676,354.92808723449707,354.92808723449707,354.92808723449707,354.92808723449707,354.92808723449707,354.92808723449707,354.92808723449707,358.0169460773468,2,3.2369165420532227,None,,,,,,,,,,,,,,,,,,83,2,2025-02-21_14h55.33.224,comp,2024.2.4,56.411144764661266,2025-02-21 14h55.55.624878 -0500,
139,139,0,critical,wdh,35.0,1.0,lower,57.0,133.0,70.0,70.0,133.0,57.0,1,1.2276737689971924,None,,,,,0,0,0,0,0,139,139,72,358.0334815979004,,,,,,,,,,,,,,,,,,,,,,,,,,,,,,,,,,,,,,,,,,,,,,,,,,,,,,,,,,,,,,,,,,,,,,,,,,,,,,,,,57.0,133.0,70.0,70.0,133.0,57.0,1.0,1.2,-198,2,0,6,160,6,358.0184392929077,358.01851630210876,358.0217914581299,358.0334815979004,358.17931842803955,358.17931842803955,358.17931842803955,358.17931842803955,358.17931842803955,358.17931842803955,358.17931842803955,359.27836060523987,1,1.2276737689971924,None,,,,,,,,,,,,,,,,,,83,2,2025-02-21_14h55.33.224,comp,2024.2.4,56.411144764661266,2025-02-21 14h55.55.624878 -0500,
