thisN,thisTrialN,thisRepN,effect,order,distance,config,diag,h_1,w_1,h_2,w_2,h_3,w_3,rect_choice.keys,rect_choice.rt,rect_choice.duration,instructions_loop.thisRepN,instructions_loop.thisTrialN,instructions_loop.thisN,instructions_loop.thisIndex,blocks.thisRepN,blocks.thisTrialN,blocks.thisN,blocks.thisIndex,trials.thisRepN,trials.thisTrialN,trials.thisN,trials.thisIndex,thisRow.t,notes,consent.started,agree_button.started,decline_button.started,consent_img.started,mouse.started,consent.stopped,agree_button.numClicks,agree_button.timesOn,agree_button.timesOff,decline_button.numClicks,decline_button.timesOn,decline_button.timesOff,mouse.x,mouse.y,mouse.leftButton,mouse.midButton,mouse.rightButton,mouse.time,mouse.clicked_name,exp_params.started,exp_params.stopped,welcome.started,welcome_text.started,welcome.stopped,instructions_1.started,instructions_1_text_1.started,instructions_1_text_2.started,key_resp.started,instructions_1.stopped,instructions_loop.key_resp.keys,instructions_loop.key_resp.rt,instructions_loop.key_resp.duration,instructions_2.started,instructions_2_text_1.started,instructions_2_text_2.started,key_resp_2.started,instructions_2.stopped,instructions_loop.key_resp_2.keys,instructions_loop.key_resp_2.rt,instructions_loop.key_resp_2.duration,instructions_3.started,instructions_3_text_1.started,r1_instr3.started,r2_instr3.started,r3_instr3.started,r1_instr3_label.started,r2_instr3_label.started,r3_instr3_label.started,instructions_3_text_3.started,instructions_3_text_4.started,key_resp_3.started,instructions_3.stopped,instructions_loop.key_resp_3.keys,instructions_loop.key_resp_3.rt,instructions_loop.key_resp_3.duration,instructions_4.started,instructions_4_text_1.started,instructions_4_text_3.started,instructions_4_text_2.started,key_resp_4.started,instructions_4.stopped,instructions_loop.key_resp_4.keys,instructions_loop.key_resp_4.rt,instructions_loop.key_resp_4.duration,instructions_5.started,instructions_5_text_1.started,instructions_5_text_2.started,key_resp_5.started,instructions_5.stopped,instructions_loop.key_resp_5.keys,instructions_loop.key_resp_5.rt,instructions_loop.key_resp_5.duration,start_exp.started,start_exp_text.started,key_resp_6.started,start_exp.stopped,key_resp_6.keys,key_resp_6.rt,key_resp_6.duration,h_1_tmp,w_1_tmp,h_2_tmp,w_2_tmp,h_3_tmp,w_3_tmp,config_tmp,config_tmp_1,r_1_x,r_1_y,r_2_x,r_2_y,r_3_x,r_3_y,pre_trial.started,pre_trial.stopped,choice_trial.started,rect_choice.started,r_1.started,r_2.started,r_3.started,r_1_label.started,r_2_label.started,r_3_label.started,prompt.started,choice_trial.stopped,trials.rect_choice.keys,trials.rect_choice.rt,trials.rect_choice.duration,end_block.started,end_block_text.started,end_block.stopped,end.started,end_text.started,key_resp_7.started,end.stopped,key_resp_7.keys,key_resp_7.rt,key_resp_7.duration,debriefing.started,debrief_form.started,end_debrief.started,debriefing.stopped,end_debrief.keys,end_debrief.rt,end_debrief.duration,participant,computer,date,expName,psychopyVersion,frameRate,expStart,
,,,,,,,,,,,,,,,,,,,,,,,,,,,,,,,0.015252828598022461,0.0415034294128418,0.0415034294128418,0.0415034294128418,0.014761209487915039,51.761526107788086,1,[51.71878242492676],[51.718794107437134],0,,,[-88.0],[-501.0],[1],[0],[0],[51.745715618133545],['agree_button'],,,,,,,,,,,,,,,,,,,,,,,,,,,,,,,,,,,,,,,,,,,,,,,,,,,,,,,,,,,,,,,,,,,,,,,,,,,,,,,,,,,,,,,,,,,,,,,,,,,,,,,,,,,84,3,2025-02-21_14h55.28.022,comp,2024.2.4,60.091692646249776,2025-02-21 14h56.02.356918 -0500,
,,,,,,,,,,,,,,,,,,,,,,,,,,,,,,,,,,,,,,,,,,,,,,,,,,51.76178526878357,51.761817932128906,,,,,,,,,,,,,,,,,,,,,,,,,,,,,,,,,,,,,,,,,,,,,,,,,,,,,,,,,,,,,,,,,,,,,,,,,,,,,,,,,,,,,,,,,,,,,,,,,,,,,,,,,84,3,2025-02-21_14h55.28.022,comp,2024.2.4,60.091692646249776,2025-02-21 14h56.02.356918 -0500,
,,,,,,,,,,,,,,,,,,,,,,,,,,,,,,,,,,,,,,,,,,,,,,,,,,,,51.76184010505676,51.77516031265259,53.773001194000244,,,,,,,,,,,,,,,,,,,,,,,,,,,,,,,,,,,,,,,,,,,,,,,,,,,,,,,,,,,,,,,,,,,,,,,,,,,,,,,,,,,,,,,,,,,,,,,,,,,,,,84,3,2025-02-21_14h55.28.022,comp,2024.2.4,60.091692646249776,2025-02-21 14h56.02.356918 -0500,
0,0,0,,,,,,,,,,,,,,,0,0,0,0,,,,,,,,,53.78975510597229,,,,,,,,,,,,,,,,,,,,,,,,,,53.7735710144043,53.78975510597229,53.78975510597229,55.27312207221985,59.12449026107788,space,3.842090368270874,None,59.1245903968811,59.140340089797974,59.140340089797974,60.639626026153564,65.14084362983704,space,4.492218017578125,None,65.14092516899109,65.16269302368164,65.16269302368164,65.16269302368164,65.16269302368164,65.16269302368164,65.16269302368164,65.16269302368164,65.16269302368164,65.16269302368164,66.64004850387573,70.27509951591492,space,3.6338465213775635,None,70.27518725395203,70.29029393196106,70.29029393196106,70.29029393196106,71.7897117137909,75.32395601272583,space,3.5172266960144043,None,75.3240396976471,75.3395893573761,75.3395893573761,76.83951950073242,77.07396674156189,space,0.2181551456451416,None,77.07407975196838,77.08957529067993,77.08957529067993,78.45821142196655,space,1.3615820407867432,None,,,,,,,,,,,,,,,,,,,,,,,,,,,,,,,,,,,,,,,,,,,,,,,84,3,2025-02-21_14h55.28.022,comp,2024.2.4,60.091692646249776,2025-02-21 14h56.02.356918 -0500,
0,0,0,filler_random,None,None,None,None,None,None,None,None,None,None,2,3.323143482208252,None,,,,,0,0,0,0,0,0,0,131,78.51870608329773,,,,,,,,,,,,,,,,,,,,,,,,,,,,,,,,,,,,,,,,,,,,,,,,,,,,,,,,,,,,,,,,,,,,,,,,,,,,,,,,,85.84615338806324,61.21280864246227,155.124894292682,147.1091160239339,140.374537491225,151.79226735231597,1.0,1.2,-200,-9,0,-20,245,14,78.50523543357849,78.50527930259705,78.50730586051941,78.51870608329773,78.65934133529663,78.65934133529663,78.65934133529663,78.65934133529663,78.65934133529663,78.65934133529663,78.65934133529663,81.85734367370605,2,3.323143482208252,None,,,,,,,,,,,,,,,,,,84,3,2025-02-21_14h55.28.022,comp,2024.2.4,60.091692646249776,2025-02-21 14h56.02.356918 -0500,
1,1,0,filler_square,None,None,None,None,None,None,None,None,None,None,3,5.417451620101929,None,,,,,0,0,0,0,0,1,1,181,81.87286829948425,,,,,,,,,,,,,,,,,,,,,,,,,,,,,,,,,,,,,,,,,,,,,,,,,,,,,,,,,,,,,,,,,,,,,,,,,,,,,,,,,74.47867150707,80.00386601095889,74.42205152726252,71.92078728355254,84.81802733830119,84.81802733830119,3.0,3.1,-172,282,0,13,174,-289,81.85840940475464,81.85844874382019,81.86103868484497,81.87286829948425,82.02295112609863,82.02295112609863,82.02295112609863,82.02295112609863,82.02295112609863,82.02295112609863,82.02295112609863,87.30734968185425,3,5.417451620101929,None,,,,,,,,,,,,,,,,,,84,3,2025-02-21_14h55.28.022,comp,2024.2.4,60.091692646249776,2025-02-21 14h56.02.356918 -0500,
2,2,0,critical,dwh,20.0,3.0,upper,141.0,141.0,125.0,200.0,200.0,125.0,2,29.408114194869995,None,,,,,0,0,0,0,0,2,2,69,87.32278895378113,,,,,,,,,,,,,,,,,,,,,,,,,,,,,,,,,,,,,,,,,,,,,,,,,,,,,,,,,,,,,,,,,,,,,,,,,,,,,,,,,141.0,141.0,125.0,200.0,200.0,125.0,3.0,3.2,-266,-278,0,9,258,269,87.30816340446472,87.3082025051117,87.31033110618591,87.32278895378113,87.47310543060303,87.47310543060303,87.47310543060303,87.47310543060303,87.47310543060303,87.47310543060303,87.47310543060303,116.74090218544006,2,29.408114194869995,None,,,,,,,,,,,,,,,,,,84,3,2025-02-21_14h55.28.022,comp,2024.2.4,60.091692646249776,2025-02-21 14h56.02.356918 -0500,
3,3,0,critical,dhw,20.0,2.1,lower,78.0,78.0,133.0,57.0,57.0,133.0,3,9.158147096633911,None,,,,,0,0,0,0,0,3,3,26,116.75629472732544,,,,,,,,,,,,,,,,,,,,,,,,,,,,,,,,,,,,,,,,,,,,,,,,,,,,,,,,,,,,,,,,,,,,,,,,,,,,,,,,,78.0,78.0,133.0,57.0,57.0,133.0,2.1,2.12,-164,-284,0,-269,191,283,116.74174427986145,116.74178647994995,116.74421072006226,116.75629472732544,116.90602660179138,116.90602660179138,116.90602660179138,116.90602660179138,116.90602660179138,116.90602660179138,116.90602660179138,125.92374205589294,3,9.158147096633911,None,,,,,,,,,,,,,,,,,,84,3,2025-02-21_14h55.28.022,comp,2024.2.4,60.091692646249776,2025-02-21 14h56.02.356918 -0500,
4,4,0,filler_square,None,None,None,None,None,None,None,None,None,None,3,2.816681146621704,None,,,,,0,0,0,0,0,4,4,179,125.939537525177,,,,,,,,,,,,,,,,,,,,,,,,,,,,,,,,,,,,,,,,,,,,,,,,,,,,,,,,,,,,,,,,,,,,,,,,,,,,,,,,,143.36773177241975,105.76816612347017,63.61646939691963,105.3680144592661,166.55307594189705,166.55307594189705,3.0,3.2,-202,-273,0,-9,232,262,125.9246928691864,125.92473244667053,125.92686653137207,125.939537525177,126.08930540084839,126.08930540084839,126.08930540084839,126.08930540084839,126.08930540084839,126.08930540084839,126.08930540084839,128.7574610710144,3,2.816681146621704,None,,,,,,,,,,,,,,,,,,84,3,2025-02-21_14h55.28.022,comp,2024.2.4,60.091692646249776,2025-02-21 14h56.02.356918 -0500,
5,5,0,critical,wdh,20.0,2.1,upper,125.0,200.0,141.0,141.0,200.0,125.0,1,7.684746503829956,None,,,,,0,0,0,0,0,5,5,11,128.77264785766602,,,,,,,,,,,,,,,,,,,,,,,,,,,,,,,,,,,,,,,,,,,,,,,,,,,,,,,,,,,,,,,,,,,,,,,,,,,,,,,,,125.0,200.0,141.0,141.0,200.0,125.0,2.1,2.11,-266,270,0,265,229,-265,128.75826239585876,128.7583029270172,128.7609486579895,128.77264785766602,128.92269444465637,128.92269444465637,128.92269444465637,128.92269444465637,128.92269444465637,128.92269444465637,128.92269444465637,136.4738268852234,1,7.684746503829956,None,,,,,,,,,,,,,,,,,,84,3,2025-02-21_14h55.28.022,comp,2024.2.4,60.091692646249776,2025-02-21 14h56.02.356918 -0500,
6,6,0,filler_random,None,None,None,None,None,None,None,None,None,None,1,1.377023458480835,None,,,,,0,0,0,0,0,6,6,132,136.48908162117004,,,,,,,,,,,,,,,,,,,,,,,,,,,,,,,,,,,,,,,,,,,,,,,,,,,,,,,,,,,,,,,,,,,,,,,,,,,,,,,,,194.42666338578886,155.957566442891,81.90027866503763,84.59284477611249,162.4170121273056,138.44952858644913,1.0,1.2,-216,1,0,-4,208,-16,136.47467637062073,136.47471642494202,136.47710418701172,136.48908162117004,136.63928413391113,136.63928413391113,136.63928413391113,136.63928413391113,136.63928413391113,136.63928413391113,136.63928413391113,137.87371373176575,1,1.377023458480835,None,,,,,,,,,,,,,,,,,,84,3,2025-02-21_14h55.28.022,comp,2024.2.4,60.091692646249776,2025-02-21 14h56.02.356918 -0500,
7,7,0,critical,dhw,35.0,4.0,lower,70.0,70.0,133.0,57.0,57.0,133.0,3,8.699012756347656,None,,,,,0,0,0,0,0,7,7,52,137.88924074172974,,,,,,,,,,,,,,,,,,,,,,,,,,,,,,,,,,,,,,,,,,,,,,,,,,,,,,,,,,,,,,,,,,,,,,,,,,,,,,,,,70.0,70.0,133.0,57.0,57.0,133.0,4.0,4.2,-160,-19,0,-258,191,-7,137.87449049949646,137.8745415210724,137.87696290016174,137.88924074172974,138.03915762901306,138.03915762901306,138.03915762901306,138.03915762901306,138.03915762901306,138.03915762901306,138.03915762901306,146.5903525352478,3,8.699012756347656,None,,,,,,,,,,,,,,,,,,84,3,2025-02-21_14h55.28.022,comp,2024.2.4,60.091692646249776,2025-02-21 14h56.02.356918 -0500,
8,8,0,filler_square,None,None,None,None,None,None,None,None,None,None,2,2.4514026641845703,None,,,,,0,0,0,0,0,8,8,185,146.60595893859863,,,,,,,,,,,,,,,,,,,,,,,,,,,,,,,,,,,,,,,,,,,,,,,,,,,,,,,,,,,,,,,,,,,,,,,,,,,,,,,,,66.81140692577785,66.4546095488476,114.79052799900862,114.79052799900862,103.325822199107,67.76055754810535,2.2,2.22,-187,289,0,-260,187,-259,146.59128499031067,146.5913245677948,146.59341526031494,146.60595893859863,146.75585412979126,146.75585412979126,146.75585412979126,146.75585412979126,146.75585412979126,146.75585412979126,146.75585412979126,149.07364892959595,2,2.4514026641845703,None,,,,,,,,,,,,,,,,,,84,3,2025-02-21_14h55.28.022,comp,2024.2.4,60.091692646249776,2025-02-21 14h56.02.356918 -0500,
9,9,0,catch,None,None,None,None,None,None,None,None,None,None,2,1.5681426525115967,None,,,,,0,0,0,0,0,9,9,124,149.08904695510864,,,,,,,,,,,,,,,,,,,,,,,,,,,,,,,,,,,,,,,,,,,,,,,,,,,,,,,,,,,,,,,,,,,,,,,,,,,,,,,,,74,116,176,149,113,77,2.1,2.12,-228,-261,0,-266,209,268,149.07470726966858,149.07474780082703,149.0769362449646,149.08904695510864,149.2392020225525,149.2392020225525,149.2392020225525,149.2392020225525,149.2392020225525,149.2392020225525,149.2392020225525,150.67350220680237,2,1.5681426525115967,None,,,,,,,,,,,,,,,,,,84,3,2025-02-21_14h55.28.022,comp,2024.2.4,60.091692646249776,2025-02-21 14h56.02.356918 -0500,
10,10,0,catch,None,None,None,None,None,None,None,None,None,None,3,1.9368159770965576,None,,,,,0,0,0,0,0,10,10,120,150.68908596038818,,,,,,,,,,,,,,,,,,,,,,,,,,,,,,,,,,,,,,,,,,,,,,,,,,,,,,,,,,,,,,,,,,,,,,,,,,,,,,,,,102,88,129,61,163,162,1.0,1.1,-650,279,-480,252,-272,255,150.67457103729248,150.6746108531952,150.67703557014465,150.68908596038818,150.83915328979492,150.83915328979492,150.83915328979492,150.83915328979492,150.83915328979492,150.83915328979492,150.83915328979492,152.64036989212036,3,1.9368159770965576,None,,,,,,,,,,,,,,,,,,84,3,2025-02-21_14h55.28.022,comp,2024.2.4,60.091692646249776,2025-02-21 14h56.02.356918 -0500,
11,11,0,critical,hwd,20.0,2.1,upper,200.0,125.0,125.0,200.0,141.0,141.0,3,6.2585577964782715,None,,,,,0,0,0,0,0,11,11,43,152.65572786331177,,,,,,,,,,,,,,,,,,,,,,,,,,,,,,,,,,,,,,,,,,,,,,,,,,,,,,,,,,,,,,,,,,,,,,,,,,,,,,,,,200.0,125.0,125.0,200.0,141.0,141.0,2.1,2.11,-258,257,0,290,266,-255,152.6411852836609,152.64122533798218,152.64337968826294,152.65572786331177,152.80602169036865,152.80602169036865,152.80602169036865,152.80602169036865,152.80602169036865,152.80602169036865,152.80602169036865,158.92375802993774,3,6.2585577964782715,None,,,,,,,,,,,,,,,,,,84,3,2025-02-21_14h55.28.022,comp,2024.2.4,60.091692646249776,2025-02-21 14h56.02.356918 -0500,
12,12,0,filler_square,None,None,None,None,None,None,None,None,None,None,2,3.9109537601470947,None,,,,,0,0,0,0,0,12,12,183,158.93935251235962,,,,,,,,,,,,,,,,,,,,,,,,,,,,,,,,,,,,,,,,,,,,,,,,,,,,,,,,,,,,,,,,,,,,,,,,,,,,,,,,,74.48218898529916,67.55656519134061,79.90396674588929,79.90396674588929,57.778257499200656,74.10434253503914,4.0,4.1,-170,-269,0,-2,173,-286,158.924738407135,158.92477989196777,158.9269232749939,158.93935251235962,159.0894820690155,159.0894820690155,159.0894820690155,159.0894820690155,159.0894820690155,159.0894820690155,159.0894820690155,162.85685682296753,2,3.9109537601470947,None,,,,,,,,,,,,,,,,,,84,3,2025-02-21_14h55.28.022,comp,2024.2.4,60.091692646249776,2025-02-21 14h56.02.356918 -0500,
13,13,0,critical,wdh,35.0,2.1,lower,57.0,133.0,70.0,70.0,133.0,57.0,1,13.14630675315857,None,,,,,0,0,0,0,0,13,13,8,162.87242197990417,,,,,,,,,,,,,,,,,,,,,,,,,,,,,,,,,,,,,,,,,,,,,,,,,,,,,,,,,,,,,,,,,,,,,,,,,,,,,,,,,57.0,133.0,70.0,70.0,133.0,57.0,2.1,2.12,-198,-277,0,-255,160,264,162.85768485069275,162.85772562026978,162.86020612716675,162.87242197990417,163.0222520828247,163.0222520828247,163.0222520828247,163.0222520828247,163.0222520828247,163.0222520828247,163.0222520828247,176.0233850479126,1,13.14630675315857,None,,,,,,,,,,,,,,,,,,84,3,2025-02-21_14h55.28.022,comp,2024.2.4,60.091692646249776,2025-02-21 14h56.02.356918 -0500,
14,14,0,catch,None,None,None,None,None,None,None,None,None,None,1,1.2432219982147217,None,,,,,0,0,0,0,0,14,14,121,176.03907442092896,,,,,,,,,,,,,,,,,,,,,,,,,,,,,,,,,,,,,,,,,,,,,,,,,,,,,,,,,,,,,,,,,,,,,,,,,,,,,,,,,136,189,70,120,133,57,4.0,4.1,-250,-259,0,-20,184,-289,176.024395942688,176.02443623542786,176.0268144607544,176.03907442092896,176.18920421600342,176.18920421600342,176.18920421600342,176.18920421600342,176.18920421600342,176.18920421600342,176.18920421600342,177.2901268005371,1,1.2432219982147217,None,,,,,,,,,,,,,,,,,,84,3,2025-02-21_14h55.28.022,comp,2024.2.4,60.091692646249776,2025-02-21 14h56.02.356918 -0500,
15,15,0,critical,hdw,20.0,3.0,lower,133.0,57.0,78.0,78.0,57.0,133.0,2,20.61664319038391,None,,,,,0,0,0,0,0,15,15,116,177.30570673942566,,,,,,,,,,,,,,,,,,,,,,,,,,,,,,,,,,,,,,,,,,,,,,,,,,,,,,,,,,,,,,,,,,,,,,,,,,,,,,,,,133.0,57.0,78.0,78.0,57.0,133.0,3.0,3.2,-164,-281,0,10,202,252,177.2909038066864,177.29094338417053,177.29336142539978,177.30570673942566,177.4555892944336,177.4555892944336,177.4555892944336,177.4555892944336,177.4555892944336,177.4555892944336,177.4555892944336,197.92360091209412,2,20.61664319038391,None,,,,,,,,,,,,,,,,,,84,3,2025-02-21_14h55.28.022,comp,2024.2.4,60.091692646249776,2025-02-21 14h56.02.356918 -0500,
16,16,0,critical,hdw,35.0,2.1,lower,133.0,57.0,70.0,70.0,57.0,133.0,3,10.742795944213867,None,,,,,0,0,0,0,0,16,16,44,197.9389991760254,,,,,,,,,,,,,,,,,,,,,,,,,,,,,,,,,,,,,,,,,,,,,,,,,,,,,,,,,,,,,,,,,,,,,,,,,,,,,,,,,133.0,57.0,70.0,70.0,57.0,133.0,2.1,2.12,-160,-267,0,-255,198,269,197.9243803024292,197.9244203567505,197.9265546798706,197.9389991760254,198.08876848220825,198.08876848220825,198.08876848220825,198.08876848220825,198.08876848220825,198.08876848220825,198.08876848220825,208.68989443778992,3,10.742795944213867,None,,,,,,,,,,,,,,,,,,84,3,2025-02-21_14h55.28.022,comp,2024.2.4,60.091692646249776,2025-02-21 14h56.02.356918 -0500,
17,17,0,filler_square,None,None,None,None,None,None,None,None,None,None,2,2.0247092247009277,None,,,,,0,0,0,0,0,17,17,170,208.70557308197021,,,,,,,,,,,,,,,,,,,,,,,,,,,,,,,,,,,,,,,,,,,,,,,,,,,,,,,,,,,,,,,,,,,,,,,,,,,,,,,,,90.81541253399207,130.3350834146044,154.21219046431165,154.21219046431165,123.99473279022305,126.36513417727586,3.0,3.1,-238,266,0,14,236,-283,208.69085931777954,208.69090127944946,208.69302797317505,208.70557308197021,208.85559606552124,208.85559606552124,208.85559606552124,208.85559606552124,208.85559606552124,208.85559606552124,208.85559606552124,210.73984551429749,2,2.0247092247009277,None,,,,,,,,,,,,,,,,,,84,3,2025-02-21_14h55.28.022,comp,2024.2.4,60.091692646249776,2025-02-21 14h56.02.356918 -0500,
18,18,0,filler_square,None,None,None,None,None,None,None,None,None,None,2,1.1584815979003906,None,,,,,0,0,0,0,0,18,18,209,210.75564646720886,,,,,,,,,,,,,,,,,,,,,,,,,,,,,,,,,,,,,,,,,,,,,,,,,,,,,,,,,,,,,,,,,,,,,,,,,,,,,,,,,121.07675017085057,130.7281267637474,190.41651595981543,190.41651595981543,107.77141315035277,64.0214714230755,1.0,1.2,-257,7,0,12,223,18,210.7407946586609,210.74083352088928,210.7434241771698,210.75564646720886,210.90590524673462,210.90590524673462,210.90590524673462,210.90590524673462,210.90590524673462,210.90590524673462,210.90590524673462,211.92334151268005,2,1.1584815979003906,None,,,,,,,,,,,,,,,,,,84,3,2025-02-21_14h55.28.022,comp,2024.2.4,60.091692646249776,2025-02-21 14h56.02.356918 -0500,
19,19,0,filler_square,None,None,None,None,None,None,None,None,None,None,3,7.366745948791504,None,,,,,0,0,0,0,0,19,19,184,211.938880443573,,,,,,,,,,,,,,,,,,,,,,,,,,,,,,,,,,,,,,,,,,,,,,,,,,,,,,,,,,,,,,,,,,,,,,,,,,,,,,,,,63.58680770472254,63.58680770472254,63.25708591346965,62.97240963530278,62.98849490053952,63.33231802224412,4.0,4.1,-159,-260,0,-9,159,-286,211.92436695098877,211.92440700531006,211.9268970489502,211.938880443573,212.0886311531067,212.0886311531067,212.0886311531067,212.0886311531067,212.0886311531067,212.0886311531067,212.0886311531067,219.32314729690552,3,7.366745948791504,None,,,,,,,,,,,,,,,,,,84,3,2025-02-21_14h55.28.022,comp,2024.2.4,60.091692646249776,2025-02-21 14h56.02.356918 -0500,
20,20,0,catch,None,None,None,None,None,None,None,None,None,None,3,2.278965950012207,None,,,,,0,0,0,0,0,20,20,126,219.3386251926422,,,,,,,,,,,,,,,,,,,,,,,,,,,,,,,,,,,,,,,,,,,,,,,,,,,,,,,,,,,,,,,,,,,,,,,,,,,,,,,,,70,120,64,126,169,156,2.1,2.12,-219,-286,0,-257,237,255,219.32421016693115,219.32425022125244,219.32682633399963,219.3386251926422,219.48893404006958,219.48893404006958,219.48893404006958,219.48893404006958,219.48893404006958,219.48893404006958,219.48893404006958,221.62319469451904,3,2.278965950012207,None,,,,,,,,,,,,,,,,,,84,3,2025-02-21_14h55.28.022,comp,2024.2.4,60.091692646249776,2025-02-21 14h56.02.356918 -0500,
21,21,0,catch,None,None,None,None,None,None,None,None,None,None,2,1.4179461002349854,None,,,,,0,0,0,0,0,21,21,129,221.63879990577698,,,,,,,,,,,,,,,,,,,,,,,,,,,,,,,,,,,,,,,,,,,,,,,,,,,,,,,,,,,,,,,,,,,,,,,,,,,,,,,,,78,112,173,152,75,115,1.0,1.2,-228,-1,0,-5,230,5,221.62423825263977,221.62427949905396,221.62683367729187,221.63879990577698,221.78869366645813,221.78869366645813,221.78869366645813,221.78869366645813,221.78869366645813,221.78869366645813,221.78869366645813,223.0731599330902,2,1.4179461002349854,None,,,,,,,,,,,,,,,,,,84,3,2025-02-21_14h55.28.022,comp,2024.2.4,60.091692646249776,2025-02-21 14h56.02.356918 -0500,
22,22,0,critical,dhw,20.0,2.1,lower,78.0,78.0,133.0,57.0,57.0,133.0,1,13.777196168899536,None,,,,,0,0,0,0,0,22,22,2,223.08848905563354,,,,,,,,,,,,,,,,,,,,,,,,,,,,,,,,,,,,,,,,,,,,,,,,,,,,,,,,,,,,,,,,,,,,,,,,,,,,,,,,,78.0,78.0,133.0,57.0,57.0,133.0,2.1,2.11,-164,262,0,287,191,-258,223.07398462295532,223.07402324676514,223.07659721374512,223.08848905563354,223.23860907554626,223.23860907554626,223.23860907554626,223.23860907554626,223.23860907554626,223.23860907554626,223.23860907554626,236.8731005191803,1,13.777196168899536,None,,,,,,,,,,,,,,,,,,84,3,2025-02-21_14h55.28.022,comp,2024.2.4,60.091692646249776,2025-02-21 14h56.02.356918 -0500,
23,23,0,critical,wdh,35.0,2.1,upper,125.0,200.0,127.0,127.0,200.0,125.0,1,11.752324342727661,None,,,,,0,0,0,0,0,23,23,33,236.88870859146118,,,,,,,,,,,,,,,,,,,,,,,,,,,,,,,,,,,,,,,,,,,,,,,,,,,,,,,,,,,,,,,,,,,,,,,,,,,,,,,,,125.0,200.0,127.0,127.0,200.0,125.0,2.1,2.12,-260,-270,0,-289,222,274,236.87390089035034,236.8739414215088,236.8760952949524,236.88870859146118,237.03870940208435,237.03870940208435,237.03870940208435,237.03870940208435,237.03870940208435,237.03870940208435,237.03870940208435,248.65646123886108,1,11.752324342727661,None,,,,,,,,,,,,,,,,,,84,3,2025-02-21_14h55.28.022,comp,2024.2.4,60.091692646249776,2025-02-21 14h56.02.356918 -0500,
24,24,0,filler_square,None,None,None,None,None,None,None,None,None,None,1,1.28328275680542,None,,,,,0,0,0,0,0,24,24,174,248.67178225517273,,,,,,,,,,,,,,,,,,,,,,,,,,,,,,,,,,,,,,,,,,,,,,,,,,,,,,,,,,,,,,,,,,,,,,,,,,,,,,,,,198.3616188870375,198.3616188870375,89.63412168133465,108.93171027669474,88.69879247383554,148.84802562687128,3.0,3.1,-250,273,0,-3,225,-271,248.65746355056763,248.65752029418945,248.65968108177185,248.67178225517273,248.82207083702087,248.82207083702087,248.82207083702087,248.82207083702087,248.82207083702087,248.82207083702087,248.82207083702087,249.95670914649963,1,1.28328275680542,None,,,,,,,,,,,,,,,,,,84,3,2025-02-21_14h55.28.022,comp,2024.2.4,60.091692646249776,2025-02-21 14h56.02.356918 -0500,
25,25,0,critical,dwh,35.0,4.0,lower,70.0,70.0,57.0,133.0,133.0,57.0,2,13.966880083084106,None,,,,,0,0,0,0,0,25,25,64,249.9719774723053,,,,,,,,,,,,,,,,,,,,,,,,,,,,,,,,,,,,,,,,,,,,,,,,,,,,,,,,,,,,,,,,,,,,,,,,,,,,,,,,,70.0,70.0,57.0,133.0,133.0,57.0,4.0,4.1,-198,-252,0,4,191,-288,249.9574899673462,249.95754384994507,249.95994019508362,249.9719774723053,250.12176132202148,250.12176132202148,250.12176132202148,250.12176132202148,250.12176132202148,250.12176132202148,250.12176132202148,263.9400157928467,2,13.966880083084106,None,,,,,,,,,,,,,,,,,,84,3,2025-02-21_14h55.28.022,comp,2024.2.4,60.091692646249776,2025-02-21 14h56.02.356918 -0500,
26,26,0,filler_random,None,None,None,None,None,None,None,None,None,None,3,6.085513591766357,None,,,,,0,0,0,0,0,26,26,152,263.9552845954895,,,,,,,,,,,,,,,,,,,,,,,,,,,,,,,,,,,,,,,,,,,,,,,,,,,,,,,,,,,,,,,,,,,,,,,,,,,,,,,,,111.28756383483406,194.65752217017652,132.78730800456478,103.12420209053201,118.30765039352784,167.13188325961002,2.1,2.11,-245,277,0,253,231,-280,263.9409809112549,263.94102334976196,263.94358921051025,263.9552845954895,264.1057405471802,264.1057405471802,264.1057405471802,264.1057405471802,264.1057405471802,264.1057405471802,264.1057405471802,270.0563774108887,3,6.085513591766357,None,,,,,,,,,,,,,,,,,,84,3,2025-02-21_14h55.28.022,comp,2024.2.4,60.091692646249776,2025-02-21 14h56.02.356918 -0500,
27,27,0,filler_random,None,None,None,None,None,None,None,None,None,None,3,1.4173846244812012,None,,,,,0,0,0,0,0,27,27,146,270.07162737846375,,,,,,,,,,,,,,,,,,,,,,,,,,,,,,,,,,,,,,,,,,,,,,,,,,,,,,,,,,,,,,,,,,,,,,,,,,,,,,,,,125.43819897275972,70.5778424836822,78.26591850040583,70.6938188326238,132.42747372524417,129.43642131428032,1.0,1.2,-167,-9,0,-8,196,5,270.057297706604,270.05733847618103,270.05999183654785,270.07162737846375,270.22171664237976,270.22171664237976,270.22171664237976,270.22171664237976,270.22171664237976,270.22171664237976,270.22171664237976,271.50612711906433,3,1.4173846244812012,None,,,,,,,,,,,,,,,,,,84,3,2025-02-21_14h55.28.022,comp,2024.2.4,60.091692646249776,2025-02-21 14h56.02.356918 -0500,
28,28,0,filler_random,None,None,None,None,None,None,None,None,None,None,2,30.6225106716156,None,,,,,0,0,0,0,0,28,28,151,271.5215482711792,,,,,,,,,,,,,,,,,,,,,,,,,,,,,,,,,,,,,,,,,,,,,,,,,,,,,,,,,,,,,,,,,,,,,,,,,,,,,,,,,61.33242954530887,167.97481265477592,133.92315232900978,149.2952871861686,177.00762408156507,109.84517292889339,3.0,3.2,-255,-268,0,13,226,263,271.507027387619,271.5070686340332,271.5096685886383,271.5215482711792,271.67165660858154,271.67165660858154,271.67165660858154,271.67165660858154,271.67165660858154,271.67165660858154,271.67165660858154,302.15656781196594,2,30.6225106716156,None,,,,,,,,,,,,,,,,,,84,3,2025-02-21_14h55.28.022,comp,2024.2.4,60.091692646249776,2025-02-21 14h56.02.356918 -0500,
29,29,0,critical,hdw,35.0,2.1,upper,200.0,125.0,127.0,127.0,125.0,200.0,3,3.5008432865142822,None,,,,,0,0,0,0,0,29,29,21,302.1713569164276,,,,,,,,,,,,,,,,,,,,,,,,,,,,,,,,,,,,,,,,,,,,,,,,,,,,,,,,,,,,,,,,,,,,,,,,,,,,,,,,,200.0,125.0,127.0,127.0,125.0,200.0,2.1,2.11,-222,252,0,271,260,-287,302.1573660373688,302.1574058532715,302.1595776081085,302.1713569164276,302.32159876823425,302.32159876823425,302.32159876823425,302.32159876823425,302.32159876823425,302.32159876823425,302.32159876823425,305.68942761421204,3,3.5008432865142822,None,,,,,,,,,,,,,,,,,,84,3,2025-02-21_14h55.28.022,comp,2024.2.4,60.091692646249776,2025-02-21 14h56.02.356918 -0500,
30,30,0,critical,dwh,20.0,2.1,lower,78.0,78.0,57.0,133.0,133.0,57.0,2,21.16021990776062,None,,,,,0,0,0,0,0,30,30,6,305.7045841217041,,,,,,,,,,,,,,,,,,,,,,,,,,,,,,,,,,,,,,,,,,,,,,,,,,,,,,,,,,,,,,,,,,,,,,,,,,,,,,,,,78.0,78.0,57.0,133.0,133.0,57.0,2.1,2.11,-202,268,0,272,191,-253,305.69021940231323,305.6902585029602,305.6925992965698,305.7045841217041,305.8547697067261,305.8547697067261,305.8547697067261,305.8547697067261,305.8547697067261,305.8547697067261,305.8547697067261,326.8723111152649,2,21.16021990776062,None,,,,,,,,,,,,,,,,,,84,3,2025-02-21_14h55.28.022,comp,2024.2.4,60.091692646249776,2025-02-21 14h56.02.356918 -0500,
31,31,0,filler_square,None,None,None,None,None,None,None,None,None,None,1,3.7606406211853027,None,,,,,0,0,0,0,0,31,31,202,326.88809990882874,,,,,,,,,,,,,,,,,,,,,,,,,,,,,,,,,,,,,,,,,,,,,,,,,,,,,,,,,,,,,,,,,,,,,,,,,,,,,,,,,167.99636777550268,167.99636777550268,136.87898814930105,87.06498675759296,139.74440760601607,148.94977221299615,2.2,2.21,-224,-256,0,250,214,268,326.8732807636261,326.873322725296,326.8761258125305,326.88809990882874,327.03805351257324,327.03805351257324,327.03805351257324,327.03805351257324,327.03805351257324,327.03805351257324,327.03805351257324,330.65582609176636,1,3.7606406211853027,None,,,,,,,,,,,,,,,,,,84,3,2025-02-21_14h55.28.022,comp,2024.2.4,60.091692646249776,2025-02-21 14h56.02.356918 -0500,
32,32,0,critical,dwh,35.0,1.0,upper,127.0,127.0,125.0,200.0,200.0,125.0,2,24.9773268699646,None,,,,,0,0,0,0,0,32,32,61,330.67144417762756,,,,,,,,,,,,,,,,,,,,,,,,,,,,,,,,,,,,,,,,,,,,,,,,,,,,,,,,,,,,,,,,,,,,,,,,,,,,,,,,,127.0,127.0,125.0,200.0,200.0,125.0,1.0,1.2,-260,-5,0,6,258,2,330.656613111496,330.6566529273987,330.65881395339966,330.67144417762756,330.8213963508606,330.8213963508606,330.8213963508606,330.8213963508606,330.8213963508606,330.8213963508606,330.8213963508606,355.6557378768921,2,24.9773268699646,None,,,,,,,,,,,,,,,,,,84,3,2025-02-21_14h55.28.022,comp,2024.2.4,60.091692646249776,2025-02-21 14h56.02.356918 -0500,
33,33,0,filler_random,None,None,None,None,None,None,None,None,None,None,2,2.8018016815185547,None,,,,,0,0,0,0,0,33,33,133,355.671240568161,,,,,,,,,,,,,,,,,,,,,,,,,,,,,,,,,,,,,,,,,,,,,,,,,,,,,,,,,,,,,,,,,,,,,,,,,,,,,,,,,189.76468776718286,72.05331535685863,157.19484565825724,156.53815663275134,72.58617987988622,145.16856062405782,1.0,1.1,-690,255,-480,256,-233,276,355.65664076805115,355.6566822528839,355.65881967544556,355.671240568161,355.8211417198181,355.8211417198181,355.8211417198181,355.8211417198181,355.8211417198181,355.8211417198181,355.8211417198181,358.48893547058105,2,2.8018016815185547,None,,,,,,,,,,,,,,,,,,84,3,2025-02-21_14h55.28.022,comp,2024.2.4,60.091692646249776,2025-02-21 14h56.02.356918 -0500,
34,34,0,critical,wdh,20.0,1.0,lower,57.0,133.0,78.0,78.0,133.0,57.0,1,25.81683087348938,None,,,,,0,0,0,0,0,34,34,78,358.50425148010254,,,,,,,,,,,,,,,,,,,,,,,,,,,,,,,,,,,,,,,,,,,,,,,,,,,,,,,,,,,,,,,,,,,,,,,,,,,,,,,,,57.0,133.0,78.0,78.0,133.0,57.0,1.0,1.1,-682,260,-480,267,-316,267,358.48971939086914,358.48975896835327,358.49223017692566,358.50425148010254,358.65432953834534,358.65432953834534,358.65432953834534,358.65432953834534,358.65432953834534,358.65432953834534,358.65432953834534,384.3387303352356,1,25.81683087348938,None,,,,,,,,,,,,,,,,,,84,3,2025-02-21_14h55.28.022,comp,2024.2.4,60.091692646249776,2025-02-21 14h56.02.356918 -0500,
35,35,0,critical,hdw,20.0,2.1,lower,133.0,57.0,78.0,78.0,57.0,133.0,3,9.005390167236328,None,,,,,0,0,0,0,0,35,35,22,384.3540418148041,,,,,,,,,,,,,,,,,,,,,,,,,,,,,,,,,,,,,,,,,,,,,,,,,,,,,,,,,,,,,,,,,,,,,,,,,,,,,,,,,133.0,57.0,78.0,78.0,57.0,133.0,2.1,2.11,-164,266,0,263,202,-284,384.3395628929138,384.3396027088165,384.3420169353485,384.3540418148041,384.5042235851288,384.5042235851288,384.5042235851288,384.5042235851288,384.5042235851288,384.5042235851288,384.5042235851288,393.37192153930664,3,9.005390167236328,None,,,,,,,,,,,,,,,,,,84,3,2025-02-21_14h55.28.022,comp,2024.2.4,60.091692646249776,2025-02-21 14h56.02.356918 -0500,
36,36,0,critical,whd,20.0,2.1,upper,125.0,200.0,200.0,125.0,141.0,141.0,1,20.652311086654663,None,,,,,0,0,0,0,0,36,36,39,393.38730573654175,,,,,,,,,,,,,,,,,,,,,,,,,,,,,,,,,,,,,,,,,,,,,,,,,,,,,,,,,,,,,,,,,,,,,,,,,,,,,,,,,125.0,200.0,200.0,125.0,141.0,141.0,2.1,2.12,-258,-268,0,-253,229,273,393.3727128505707,393.37275099754333,393.37476444244385,393.38730573654175,393.5377085208893,393.5377085208893,393.5377085208893,393.5377085208893,393.5377085208893,393.5377085208893,393.5377085208893,414.0553412437439,1,20.652311086654663,None,,,,,,,,,,,,,,,,,,84,3,2025-02-21_14h55.28.022,comp,2024.2.4,60.091692646249776,2025-02-21 14h56.02.356918 -0500,
37,37,0,filler_random,None,None,None,None,None,None,None,None,None,None,2,4.561569929122925,None,,,,,0,0,0,0,0,37,37,169,414.0706102848053,,,,,,,,,,,,,,,,,,,,,,,,,,,,,,,,,,,,,,,,,,,,,,,,,,,,,,,,,,,,,,,,,,,,,,,,,,,,,,,,,165.27977978743064,63.37342358335014,159.7114276625332,71.03628012864824,76.31940508651971,104.24868240172066,2.1,2.11,-163,279,0,260,184,-274,414.0562570095062,414.05629777908325,414.0588903427124,414.0706102848053,414.22065567970276,414.22065567970276,414.22065567970276,414.22065567970276,414.22065567970276,414.22065567970276,414.22065567970276,418.6384572982788,2,4.561569929122925,None,,,,,,,,,,,,,,,,,,84,3,2025-02-21_14h55.28.022,comp,2024.2.4,60.091692646249776,2025-02-21 14h56.02.356918 -0500,
38,38,0,critical,dhw,35.0,2.1,lower,70.0,70.0,133.0,57.0,57.0,133.0,3,13.56218147277832,None,,,,,0,0,0,0,0,38,38,0,418.65398645401,,,,,,,,,,,,,,,,,,,,,,,,,,,,,,,,,,,,,,,,,,,,,,,,,,,,,,,,,,,,,,,,,,,,,,,,,,,,,,,,,70.0,70.0,133.0,57.0,57.0,133.0,2.1,2.11,-160,280,0,265,191,-261,418.63924956321716,418.6392879486084,418.64164185523987,418.65398645401,418.80401492118835,418.80401492118835,418.80401492118835,418.80401492118835,418.80401492118835,418.80401492118835,418.80401492118835,432.2217037677765,3,13.56218147277832,None,,,,,,,,,,,,,,,,,,84,3,2025-02-21_14h55.28.022,comp,2024.2.4,60.091692646249776,2025-02-21 14h56.02.356918 -0500,
39,39,0,critical,dwh,20.0,2.1,upper,141.0,141.0,125.0,200.0,200.0,125.0,2,9.794690608978271,None,,,,,0,0,0,0,0,39,39,7,432.23733377456665,,,,,,,,,,,,,,,,,,,,,,,,,,,,,,,,,,,,,,,,,,,,,,,,,,,,,,,,,,,,,,,,,,,,,,,,,,,,,,,,,141.0,141.0,125.0,200.0,200.0,125.0,2.1,2.12,-266,-288,0,-283,258,277,432.22252678871155,432.22256898880005,432.22589564323425,432.23733377456665,432.3874225616455,432.3874225616455,432.3874225616455,432.3874225616455,432.3874225616455,432.3874225616455,432.3874225616455,442.0384418964386,2,9.794690608978271,None,,,,,,,,,,,,,,,,,,84,3,2025-02-21_14h55.28.022,comp,2024.2.4,60.091692646249776,2025-02-21 14h56.02.356918 -0500,
40,40,0,critical,whd,35.0,2.1,lower,57.0,133.0,133.0,57.0,70.0,70.0,2,5.401268482208252,None,,,,,0,0,0,0,0,40,40,12,442.0539879798889,,,,,,,,,,,,,,,,,,,,,,,,,,,,,,,,,,,,,,,,,,,,,,,,,,,,,,,,,,,,,,,,,,,,,,,,,,,,,,,,,57.0,133.0,133.0,57.0,70.0,70.0,2.1,2.11,-191,284,0,285,160,-279,442.0392596721649,442.039302110672,442.04143047332764,442.0539879798889,442.20385241508484,442.20385241508484,442.20385241508484,442.20385241508484,442.20385241508484,442.20385241508484,442.20385241508484,447.47150349617004,2,5.401268482208252,None,,,,,,,,,,,,,,,,,,84,3,2025-02-21_14h55.28.022,comp,2024.2.4,60.091692646249776,2025-02-21 14h56.02.356918 -0500,
41,41,0,critical,hdw,35.0,4.0,upper,200.0,125.0,127.0,127.0,125.0,200.0,1,18.47206449508667,None,,,,,0,0,0,0,0,41,41,113,447.4869360923767,,,,,,,,,,,,,,,,,,,,,,,,,,,,,,,,,,,,,,,,,,,,,,,,,,,,,,,,,,,,,,,,,,,,,,,,,,,,,,,,,200.0,125.0,127.0,127.0,125.0,200.0,4.0,4.1,-222,-269,0,17,260,-256,447.47228145599365,447.47232270240784,447.4746882915497,447.4869360923767,447.63728046417236,447.63728046417236,447.63728046417236,447.63728046417236,447.63728046417236,447.63728046417236,447.63728046417236,465.9716033935547,1,18.47206449508667,None,,,,,,,,,,,,,,,,,,84,3,2025-02-21_14h55.28.022,comp,2024.2.4,60.091692646249776,2025-02-21 14h56.02.356918 -0500,
42,42,0,filler_square,None,None,None,None,None,None,None,None,None,None,2,1.7336373329162598,None,,,,,0,0,0,0,0,42,42,175,465.98697781562805,,,,,,,,,,,,,,,,,,,,,,,,,,,,,,,,,,,,,,,,,,,,,,,,,,,,,,,,,,,,,,,,,,,,,,,,,,,,,,,,,61.601773651678755,162.68447105300606,163.5677101653102,163.5677101653102,90.05985604809125,139.35388258008703,2.2,2.21,-259,-251,0,286,247,279,465.97257137298584,465.9726138114929,465.9750850200653,465.98697781562805,466.137104511261,466.137104511261,466.137104511261,466.137104511261,466.137104511261,466.137104511261,466.137104511261,467.73807978630066,2,1.7336373329162598,None,,,,,,,,,,,,,,,,,,84,3,2025-02-21_14h55.28.022,comp,2024.2.4,60.091692646249776,2025-02-21 14h56.02.356918 -0500,
43,43,0,critical,dwh,35.0,2.1,upper,127.0,127.0,125.0,200.0,200.0,125.0,2,11.11767029762268,None,,,,,0,0,0,0,0,43,43,29,467.753399848938,,,,,,,,,,,,,,,,,,,,,,,,,,,,,,,,,,,,,,,,,,,,,,,,,,,,,,,,,,,,,,,,,,,,,,,,,,,,,,,,,127.0,127.0,125.0,200.0,200.0,125.0,2.1,2.11,-260,252,0,270,258,-270,467.7388684749603,467.73890829086304,467.7414629459381,467.753399848938,467.90380573272705,467.90380573272705,467.90380573272705,467.90380573272705,467.90380573272705,467.90380573272705,467.90380573272705,478.8881878852844,2,11.11767029762268,None,,,,,,,,,,,,,,,,,,84,3,2025-02-21_14h55.28.022,comp,2024.2.4,60.091692646249776,2025-02-21 14h56.02.356918 -0500,
44,44,0,critical,hwd,20.0,1.0,upper,200.0,125.0,125.0,200.0,141.0,141.0,1,14.688131093978882,None,,,,,0,0,0,0,0,44,44,103,478.9034478664398,,,,,,,,,,,,,,,,,,,,,,,,,,,,,,,,,,,,,,,,,,,,,,,,,,,,,,,,,,,,,,,,,,,,,,,,,,,,,,,,,200.0,125.0,125.0,200.0,141.0,141.0,1.0,1.2,-258,-3,0,-15,266,-13,478.88897585868835,478.88901591300964,478.8916323184967,478.9034478664398,479.0536997318268,479.0536997318268,479.0536997318268,479.0536997318268,479.0536997318268,479.0536997318268,479.0536997318268,493.60482835769653,1,14.688131093978882,None,,,,,,,,,,,,,,,,,,84,3,2025-02-21_14h55.28.022,comp,2024.2.4,60.091692646249776,2025-02-21 14h56.02.356918 -0500,
45,45,0,critical,wdh,35.0,1.0,upper,125.0,200.0,127.0,127.0,200.0,125.0,3,8.034878730773926,None,,,,,0,0,0,0,0,45,45,73,493.62000036239624,,,,,,,,,,,,,,,,,,,,,,,,,,,,,,,,,,,,,,,,,,,,,,,,,,,,,,,,,,,,,,,,,,,,,,,,,,,,,,,,,125.0,200.0,127.0,127.0,200.0,125.0,1.0,1.1,-740,280,-480,290,-258,262,493.6056098937988,493.60564827919006,493.60807275772095,493.62000036239624,493.7703502178192,493.7703502178192,493.7703502178192,493.7703502178192,493.7703502178192,493.7703502178192,493.7703502178192,501.6717405319214,3,8.034878730773926,None,,,,,,,,,,,,,,,,,,84,3,2025-02-21_14h55.28.022,comp,2024.2.4,60.091692646249776,2025-02-21 14h56.02.356918 -0500,
46,46,0,filler_square,None,None,None,None,None,None,None,None,None,None,1,1.4084160327911377,None,,,,,0,0,0,0,0,46,46,208,501.687340259552,,,,,,,,,,,,,,,,,,,,,,,,,,,,,,,,,,,,,,,,,,,,,,,,,,,,,,,,,,,,,,,,,,,,,,,,,,,,,,,,,176.68415597054621,176.68415597054621,172.6173013430021,61.69109200950249,126.80389325337917,163.91454917973402,4.0,4.1,-215,-287,0,4,209,-268,501.6726987361908,501.672739982605,501.6763801574707,501.687340259552,501.83698296546936,501.83698296546936,501.83698296546936,501.83698296546936,501.83698296546936,501.83698296546936,501.83698296546936,503.1047945022583,1,1.4084160327911377,None,,,,,,,,,,,,,,,,,,84,3,2025-02-21_14h55.28.022,comp,2024.2.4,60.091692646249776,2025-02-21 14h56.02.356918 -0500,
47,47,0,filler_square,None,None,None,None,None,None,None,None,None,None,1,2.55952787399292,None,,,,,0,0,0,0,0,47,47,182,503.1202938556671,,,,,,,,,,,,,,,,,,,,,,,,,,,,,,,,,,,,,,,,,,,,,,,,,,,,,,,,,,,,,,,,,,,,,,,,,,,,,,,,,126.09709430855497,126.09709430855497,114.41890388940811,124.65820163716474,64.75158395192419,112.91172565152445,2.2,2.22,-221,289,0,-264,215,-286,503.10575103759766,503.1057913303375,503.10794973373413,503.1202938556671,503.2700946331024,503.2700946331024,503.2700946331024,503.2700946331024,503.2700946331024,503.2700946331024,503.2700946331024,505.6880350112915,1,2.55952787399292,None,,,,,,,,,,,,,,,,,,84,3,2025-02-21_14h55.28.022,comp,2024.2.4,60.091692646249776,2025-02-21 14h56.02.356918 -0500,
48,48,0,filler_square,None,None,None,None,None,None,None,None,None,None,1,10.368075847625732,None,,,,,0,0,0,0,0,48,48,173,505.70356130599976,,,,,,,,,,,,,,,,,,,,,,,,,,,,,,,,,,,,,,,,,,,,,,,,,,,,,,,,,,,,,,,,,,,,,,,,,,,,,,,,,69.41248609782915,69.41248609782915,66.24685573630889,59.360882984716305,67.16760266739084,68.7142215782801,2.1,2.11,-160,287,0,289,160,-250,505.6890137195587,505.6890547275543,505.6912019252777,505.70356130599976,505.8534038066864,505.8534038066864,505.8534038066864,505.8534038066864,505.8534038066864,505.8534038066864,505.8534038066864,516.0878002643585,1,10.368075847625732,None,,,,,,,,,,,,,,,,,,84,3,2025-02-21_14h55.28.022,comp,2024.2.4,60.091692646249776,2025-02-21 14h56.02.356918 -0500,
49,49,0,filler_square,None,None,None,None,None,None,None,None,None,None,2,1.2005188465118408,None,,,,,0,0,0,0,0,49,49,199,516.103285074234,,,,,,,,,,,,,,,,,,,,,,,,,,,,,,,,,,,,,,,,,,,,,,,,,,,,,,,,,,,,,,,,,,,,,,,,,,,,,,,,,166.69416430485282,169.55434356319358,186.12131244888835,186.12131244888835,100.6855741698252,60.60521959265603,3.0,3.1,-274,270,0,-9,219,-273,516.0887491703033,516.0887887477875,516.0913116931915,516.103285074234,516.2535016536713,516.2535016536713,516.2535016536713,516.2535016536713,516.2535016536713,516.2535016536713,516.2535016536713,517.3213956356049,2,1.2005188465118408,None,,,,,,,,,,,,,,,,,,84,3,2025-02-21_14h55.28.022,comp,2024.2.4,60.091692646249776,2025-02-21 14h56.02.356918 -0500,
50,50,0,filler_random,None,None,None,None,None,None,None,None,None,None,1,2.959357738494873,None,,,,,0,0,0,0,0,50,50,140,517.3366079330444,,,,,,,,,,,,,,,,,,,,,,,,,,,,,,,,,,,,,,,,,,,,,,,,,,,,,,,,,,,,,,,,,,,,,,,,,,,,,,,,,167.0467700241861,161.3955921578563,103.42080276015952,101.39003995152783,189.44753920107297,142.10141096680024,2.1,2.12,-227,-272,0,-254,218,267,517.3222994804382,517.3223392963409,517.3249363899231,517.3366079330444,517.4867963790894,517.4867963790894,517.4867963790894,517.4867963790894,517.4867963790894,517.4867963790894,517.4867963790894,520.304589509964,1,2.959357738494873,None,,,,,,,,,,,,,,,,,,84,3,2025-02-21_14h55.28.022,comp,2024.2.4,60.091692646249776,2025-02-21 14h56.02.356918 -0500,
51,51,0,filler_square,None,None,None,None,None,None,None,None,None,None,1,0.9671878814697266,None,,,,,0,0,0,0,0,51,51,197,520.3201417922974,,,,,,,,,,,,,,,,,,,,,,,,,,,,,,,,,,,,,,,,,,,,,,,,,,,,,,,,,,,,,,,,,,,,,,,,,,,,,,,,,186.963965522112,186.963965522112,57.236595338379786,136.6338281148813,125.42860837254733,120.64593349088824,2.2,2.22,-258,274,0,-256,225,-281,520.3055467605591,520.3055875301361,520.3078625202179,520.3201417922974,520.4701414108276,520.4701414108276,520.4701414108276,520.4701414108276,520.4701414108276,520.4701414108276,520.4701414108276,521.3044211864471,1,0.9671878814697266,None,,,,,,,,,,,,,,,,,,84,3,2025-02-21_14h55.28.022,comp,2024.2.4,60.091692646249776,2025-02-21 14h56.02.356918 -0500,
52,52,0,critical,dhw,20.0,3.0,lower,78.0,78.0,133.0,57.0,57.0,133.0,2,11.702971696853638,None,,,,,0,0,0,0,0,52,52,56,521.31986951828,,,,,,,,,,,,,,,,,,,,,,,,,,,,,,,,,,,,,,,,,,,,,,,,,,,,,,,,,,,,,,,,,,,,,,,,,,,,,,,,,78.0,78.0,133.0,57.0,57.0,133.0,3.0,3.2,-164,-262,0,-4,191,250,521.3052127361298,521.3052518367767,521.3074746131897,521.31986951828,521.4700894355774,521.4700894355774,521.4700894355774,521.4700894355774,521.4700894355774,521.4700894355774,521.4700894355774,533.0375964641571,2,11.702971696853638,None,,,,,,,,,,,,,,,,,,84,3,2025-02-21_14h55.28.022,comp,2024.2.4,60.091692646249776,2025-02-21 14h56.02.356918 -0500,
53,53,0,critical,wdh,35.0,1.0,lower,57.0,133.0,70.0,70.0,133.0,57.0,1,7.050319671630859,None,,,,,0,0,0,0,0,53,53,72,533.0530271530151,,,,,,,,,,,,,,,,,,,,,,,,,,,,,,,,,,,,,,,,,,,,,,,,,,,,,,,,,,,,,,,,,,,,,,,,,,,,,,,,,57.0,133.0,70.0,70.0,133.0,57.0,1.0,1.3,282,-251,480,-254,640,-263,533.0383870601654,533.0384273529053,533.0408260822296,533.0530271530151,533.2031900882721,533.2031900882721,533.2031900882721,533.2031900882721,533.2031900882721,533.2031900882721,533.2031900882721,540.1208693981171,1,7.050319671630859,None,,,,,,,,,,,,,,,,,,84,3,2025-02-21_14h55.28.022,comp,2024.2.4,60.091692646249776,2025-02-21 14h56.02.356918 -0500,
54,54,0,filler_square,None,None,None,None,None,None,None,None,None,None,3,3.616788387298584,None,,,,,0,0,0,0,0,54,54,195,540.1364412307739,,,,,,,,,,,,,,,,,,,,,,,,,,,,,,,,,,,,,,,,,,,,,,,,,,,,,,,,,,,,,,,,,,,,,,,,,,,,,,,,,69.24542491198383,58.43435242152712,60.17241973318873,72.42835091245823,73.92725978251018,73.92725978251018,1.0,1.3,319,-284,480,-276,649,-277,540.1218266487122,540.1218664646149,540.1243979930878,540.1364412307739,540.2864375114441,540.2864375114441,540.2864375114441,540.2864375114441,540.2864375114441,540.2864375114441,540.2864375114441,543.7710287570953,3,3.616788387298584,None,,,,,,,,,,,,,,,,,,84,3,2025-02-21_14h55.28.022,comp,2024.2.4,60.091692646249776,2025-02-21 14h56.02.356918 -0500,
55,55,0,filler_random,None,None,None,None,None,None,None,None,None,None,3,2.684121608734131,None,,,,,0,0,0,0,0,55,55,159,543.7864036560059,,,,,,,,,,,,,,,,,,,,,,,,,,,,,,,,,,,,,,,,,,,,,,,,,,,,,,,,,,,,,,,,,,,,,,,,,,,,,,,,,146.9643679291945,88.98150128021237,182.90096776076706,69.61997261176812,175.44511878037483,101.14586418688481,2.1,2.12,-175,-286,0,-270,181,266,543.7719361782074,543.7719757556915,543.7745208740234,543.7864036560059,543.9366545677185,543.9366545677185,543.9366545677185,543.9366545677185,543.9366545677185,543.9366545677185,543.9366545677185,546.4876289367676,3,2.684121608734131,None,,,,,,,,,,,,,,,,,,84,3,2025-02-21_14h55.28.022,comp,2024.2.4,60.091692646249776,2025-02-21 14h56.02.356918 -0500,
56,56,0,critical,dwh,20.0,2.1,upper,141.0,141.0,125.0,200.0,200.0,125.0,2,11.82485818862915,None,,,,,0,0,0,0,0,56,56,31,546.5029876232147,,,,,,,,,,,,,,,,,,,,,,,,,,,,,,,,,,,,,,,,,,,,,,,,,,,,,,,,,,,,,,,,,,,,,,,,,,,,,,,,,141.0,141.0,125.0,200.0,200.0,125.0,2.1,2.11,-266,259,0,285,258,-256,546.4884259700775,546.4884655475616,546.4909038543701,546.5029876232147,546.6533217430115,546.6533217430115,546.6533217430115,546.6533217430115,546.6533217430115,546.6533217430115,546.6533217430115,558.3377954959869,2,11.82485818862915,None,,,,,,,,,,,,,,,,,,84,3,2025-02-21_14h55.28.022,comp,2024.2.4,60.091692646249776,2025-02-21 14h56.02.356918 -0500,
57,57,0,critical,whd,35.0,2.1,upper,125.0,200.0,200.0,125.0,127.0,127.0,1,10.78899335861206,None,,,,,0,0,0,0,0,57,57,37,558.3532626628876,,,,,,,,,,,,,,,,,,,,,,,,,,,,,,,,,,,,,,,,,,,,,,,,,,,,,,,,,,,,,,,,,,,,,,,,,,,,,,,,,125.0,200.0,200.0,125.0,127.0,127.0,2.1,2.11,-258,283,0,262,222,-262,558.3385949134827,558.3386359214783,558.3407979011536,558.3532626628876,558.5032591819763,558.5032591819763,558.5032591819763,558.5032591819763,558.5032591819763,558.5032591819763,558.5032591819763,569.1545579433441,1,10.78899335861206,None,,,,,,,,,,,,,,,,,,84,3,2025-02-21_14h55.28.022,comp,2024.2.4,60.091692646249776,2025-02-21 14h56.02.356918 -0500,
58,58,0,filler_random,None,None,None,None,None,None,None,None,None,None,3,1.868875503540039,None,,,,,0,0,0,0,0,58,58,139,569.1694808006287,,,,,,,,,,,,,,,,,,,,,,,,,,,,,,,,,,,,,,,,,,,,,,,,,,,,,,,,,,,,,,,,,,,,,,,,,,,,,,,,,113.96276050066734,58.52702412129374,160.30198989889436,84.79371801923864,117.53110650147377,161.69164346254493,3.0,3.1,-168,251,0,20,219,-273,569.1554582118988,569.1554975509644,569.1577382087708,569.1694808006287,569.3196892738342,569.3196892738342,569.3196892738342,569.3196892738342,569.3196892738342,569.3196892738342,569.3196892738342,571.0541520118713,3,1.868875503540039,None,,,,,,,,,,,,,,,,,,84,3,2025-02-21_14h55.28.022,comp,2024.2.4,60.091692646249776,2025-02-21 14h56.02.356918 -0500,
59,59,0,filler_random,None,None,None,None,None,None,None,None,None,None,2,6.0991504192352295,None,,,,,0,0,0,0,0,59,59,167,571.0695583820343,,,,,,,,,,,,,,,,,,,,,,,,,,,,,,,,,,,,,,,,,,,,,,,,,,,,,,,,,,,,,,,,,,,,,,,,,,,,,,,,,101.39092932144445,165.7537340198117,158.76479115983665,144.54374574633283,189.9199705485304,120.33045232638398,1.0,1.3,229,-282,480,-263,708,-285,571.0550498962402,571.0550899505615,571.0572831630707,571.0695583820343,571.2197413444519,571.2197413444519,571.2197413444519,571.2197413444519,571.2197413444519,571.2197413444519,571.2197413444519,577.1709547042847,2,6.0991504192352295,None,,,,,,,,,,,,,,,,,,84,3,2025-02-21_14h55.28.022,comp,2024.2.4,60.091692646249776,2025-02-21 14h56.02.356918 -0500,
60,60,0,critical,whd,20.0,2.1,lower,57.0,133.0,133.0,57.0,78.0,78.0,1,7.555664777755737,None,,,,,0,0,0,0,0,60,60,38,577.1864426136017,,,,,,,,,,,,,,,,,,,,,,,,,,,,,,,,,,,,,,,,,,,,,,,,,,,,,,,,,,,,,,,,,,,,,,,,,,,,,,,,,57.0,133.0,133.0,57.0,78.0,78.0,2.1,2.11,-191,266,0,259,164,-284,577.171758890152,577.1717972755432,577.1742277145386,577.1864426136017,577.3361599445343,577.3361599445343,577.3361599445343,577.3361599445343,577.3361599445343,577.3361599445343,577.3361599445343,584.7542455196381,1,7.555664777755737,None,,,,,,,,,,,,,,,,,,84,3,2025-02-21_14h55.28.022,comp,2024.2.4,60.091692646249776,2025-02-21 14h56.02.356918 -0500,
61,61,0,critical,whd,35.0,2.1,lower,57.0,133.0,133.0,57.0,70.0,70.0,1,9.877651691436768,None,,,,,0,0,0,0,0,61,61,36,584.769425868988,,,,,,,,,,,,,,,,,,,,,,,,,,,,,,,,,,,,,,,,,,,,,,,,,,,,,,,,,,,,,,,,,,,,,,,,,,,,,,,,,57.0,133.0,133.0,57.0,70.0,70.0,2.1,2.12,-191,-289,0,-258,160,262,584.7550444602966,584.7550852298737,584.7577888965607,584.769425868988,584.9194891452789,584.9194891452789,584.9194891452789,584.9194891452789,584.9194891452789,584.9194891452789,584.9194891452789,594.6537835597992,1,9.877651691436768,None,,,,,,,,,,,,,,,,,,84,3,2025-02-21_14h55.28.022,comp,2024.2.4,60.091692646249776,2025-02-21 14h56.02.356918 -0500,
62,62,0,filler_random,None,None,None,None,None,None,None,None,None,None,1,1.1454308032989502,None,,,,,0,0,0,0,0,62,62,137,594.6696445941925,,,,,,,,,,,,,,,,,,,,,,,,,,,,,,,,,,,,,,,,,,,,,,,,,,,,,,,,,,,,,,,,,,,,,,,,,,,,,,,,,171.11780132954686,155.78408888421026,121.07888735004859,109.24615500139808,141.28885484886473,103.9575214318253,2.1,2.11,-229,260,0,287,203,-286,594.6546838283539,594.6547243595123,594.6568756103516,594.6696445941925,594.8196353912354,594.8196353912354,594.8196353912354,594.8196353912354,594.8196353912354,594.8196353912354,594.8196353912354,595.8207862377167,1,1.1454308032989502,None,,,,,,,,,,,,,,,,,,84,3,2025-02-21_14h55.28.022,comp,2024.2.4,60.091692646249776,2025-02-21 14h56.02.356918 -0500,
63,63,0,filler_square,None,None,None,None,None,None,None,None,None,None,2,1.15435791015625,None,,,,,0,0,0,0,0,63,63,187,595.8364818096161,,,,,,,,,,,,,,,,,,,,,,,,,,,,,,,,,,,,,,,,,,,,,,,,,,,,,,,,,,,,,,,,,,,,,,,,,,,,,,,,,103.51035240533808,74.39754473621431,174.40249080810537,174.40249080810537,84.39783726435273,92.84441269975584,2.2,2.21,-220,-274,0,268,230,287,595.8217544555664,595.8217961788177,595.8239345550537,595.8364818096161,595.9861459732056,595.9861459732056,595.9861459732056,595.9861459732056,595.9861459732056,595.9861459732056,595.9861459732056,597.0039384365082,2,1.15435791015625,None,,,,,,,,,,,,,,,,,,84,3,2025-02-21_14h55.28.022,comp,2024.2.4,60.091692646249776,2025-02-21 14h56.02.356918 -0500,
64,64,0,critical,dwh,35.0,4.0,upper,127.0,127.0,125.0,200.0,200.0,125.0,2,10.787099599838257,None,,,,,0,0,0,0,0,64,64,65,597.0192801952362,,,,,,,,,,,,,,,,,,,,,,,,,,,,,,,,,,,,,,,,,,,,,,,,,,,,,,,,,,,,,,,,,,,,,,,,,,,,,,,,,127.0,127.0,125.0,200.0,200.0,125.0,4.0,4.2,-260,-3,0,-276,258,11,597.0047254562378,597.0047645568848,597.0072772502899,597.0192801952362,597.1698274612427,597.1698274612427,597.1698274612427,597.1698274612427,597.1698274612427,597.1698274612427,597.1698274612427,607.8209762573242,2,10.787099599838257,None,,,,,,,,,,,,,,,,,,84,3,2025-02-21_14h55.28.022,comp,2024.2.4,60.091692646249776,2025-02-21 14h56.02.356918 -0500,
65,65,0,critical,hdw,20.0,3.0,upper,200.0,125.0,141.0,141.0,125.0,200.0,3,3.6270809173583984,None,,,,,0,0,0,0,0,65,65,117,607.8359799385071,,,,,,,,,,,,,,,,,,,,,,,,,,,,,,,,,,,,,,,,,,,,,,,,,,,,,,,,,,,,,,,,,,,,,,,,,,,,,,,,,200.0,125.0,141.0,141.0,125.0,200.0,3.0,3.1,-229,274,0,-16,266,-289,607.8218042850494,607.821843624115,607.8242907524109,607.8359799385071,607.986249923706,607.986249923706,607.986249923706,607.986249923706,607.986249923706,607.986249923706,607.986249923706,611.4706711769104,3,3.6270809173583984,None,,,,,,,,,,,,,,,,,,84,3,2025-02-21_14h55.28.022,comp,2024.2.4,60.091692646249776,2025-02-21 14h56.02.356918 -0500,
66,66,0,catch,None,None,None,None,None,None,None,None,None,None,2,1.7199046611785889,None,,,,,0,0,0,0,0,66,66,128,611.4862170219421,,,,,,,,,,,,,,,,,,,,,,,,,,,,,,,,,,,,,,,,,,,,,,,,,,,,,,,,,,,,,,,,,,,,,,,,,,,,,,,,,103,87,137,188,126,64,2.2,2.21,-234,-272,0,287,222,286,611.4717237949371,611.4717652797699,611.473929643631,611.4862170219421,611.6361339092255,611.6361339092255,611.6361339092255,611.6361339092255,611.6361339092255,611.6361339092255,611.6361339092255,613.2204878330231,2,1.7199046611785889,None,,,,,,,,,,,,,,,,,,84,3,2025-02-21_14h55.28.022,comp,2024.2.4,60.091692646249776,2025-02-21 14h56.02.356918 -0500,
67,67,0,critical,whd,20.0,2.1,lower,57.0,133.0,133.0,57.0,78.0,78.0,3,14.026972532272339,None,,,,,0,0,0,0,0,67,67,14,613.2358295917511,,,,,,,,,,,,,,,,,,,,,,,,,,,,,,,,,,,,,,,,,,,,,,,,,,,,,,,,,,,,,,,,,,,,,,,,,,,,,,,,,57.0,133.0,133.0,57.0,78.0,78.0,2.1,2.12,-191,-265,0,-266,164,274,613.2212867736816,613.2213263511658,613.2237050533295,613.2358295917511,613.3860585689545,613.3860585689545,613.3860585689545,613.3860585689545,613.3860585689545,613.3860585689545,613.3860585689545,627.2702925205231,3,14.026972532272339,None,,,,,,,,,,,,,,,,,,84,3,2025-02-21_14h55.28.022,comp,2024.2.4,60.091692646249776,2025-02-21 14h56.02.356918 -0500,
68,68,0,filler_square,None,None,None,None,None,None,None,None,None,None,3,1.152099847793579,None,,,,,0,0,0,0,0,68,68,178,627.2860689163208,,,,,,,,,,,,,,,,,,,,,,,,,,,,,,,,,,,,,,,,,,,,,,,,,,,,,,,,,,,,,,,,,,,,,,,,,,,,,,,,,182.32214602030427,81.21562464201168,100.08806286435906,78.52648728921689,184.84734832190992,184.84734832190992,2.1,2.11,-176,289,0,257,228,-251,627.2712278366089,627.2712664604187,627.2740576267242,627.2860689163208,627.4362325668335,627.4362325668335,627.4362325668335,627.4362325668335,627.4362325668335,627.4362325668335,627.4362325668335,628.4537258148193,3,1.152099847793579,None,,,,,,,,,,,,,,,,,,84,3,2025-02-21_14h55.28.022,comp,2024.2.4,60.091692646249776,2025-02-21 14h56.02.356918 -0500,
69,69,0,filler_square,None,None,None,None,None,None,None,None,None,None,1,2.1048405170440674,None,,,,,0,0,0,0,0,69,69,191,628.4690821170807,,,,,,,,,,,,,,,,,,,,,,,,,,,,,,,,,,,,,,,,,,,,,,,,,,,,,,,,,,,,,,,,,,,,,,,,,,,,,,,,,116.5397705605607,116.5397705605607,99.65132451178889,84.39059678547427,109.79850742084518,75.81720325180379,3.0,3.2,-196,-254,0,9,176,262,628.4546904563904,628.4547302722931,628.4571800231934,628.4690821170807,628.619332075119,628.619332075119,628.619332075119,628.619332075119,628.619332075119,628.619332075119,628.619332075119,630.5870151519775,1,2.1048405170440674,None,,,,,,,,,,,,,,,,,,84,3,2025-02-21_14h55.28.022,comp,2024.2.4,60.091692646249776,2025-02-21 14h56.02.356918 -0500,
70,70,0,filler_random,None,None,None,None,None,None,None,None,None,None,2,2.3658339977264404,None,,,,,0,0,0,0,0,70,70,134,630.6023788452148,,,,,,,,,,,,,,,,,,,,,,,,,,,,,,,,,,,,,,,,,,,,,,,,,,,,,,,,,,,,,,,,,,,,,,,,,,,,,,,,,103.03150615430167,110.1024575271638,133.5400224432747,197.18298885576735,184.0747867521147,58.33809400220802,4.0,4.2,-250,11,0,-255,224,8,630.587916135788,630.5879559516907,630.590494632721,630.6023788452148,630.7526445388794,630.7526445388794,630.7526445388794,630.7526445388794,630.7526445388794,630.7526445388794,630.7526445388794,632.9705436229706,2,2.3658339977264404,None,,,,,,,,,,,,,,,,,,84,3,2025-02-21_14h55.28.022,comp,2024.2.4,60.091692646249776,2025-02-21 14h56.02.356918 -0500,
71,71,0,filler_random,None,None,None,None,None,None,None,None,None,None,2,1.1088871955871582,None,,,,,0,0,0,0,0,71,71,136,632.9859714508057,,,,,,,,,,,,,,,,,,,,,,,,,,,,,,,,,,,,,,,,,,,,,,,,,,,,,,,,,,,,,,,,,,,,,,,,,,,,,,,,,157.9502681508572,71.35112903211375,178.07259389885536,171.89764782425735,155.48367389403953,110.8169800867619,2.1,2.12,-218,-277,0,-290,237,267,632.971432685852,632.9714732170105,632.9736661911011,632.9859714508057,633.1359860897064,633.1359860897064,633.1359860897064,633.1359860897064,633.1359860897064,633.1359860897064,633.1359860897064,634.1037623882294,2,1.1088871955871582,None,,,,,,,,,,,,,,,,,,84,3,2025-02-21_14h55.28.022,comp,2024.2.4,60.091692646249776,2025-02-21 14h56.02.356918 -0500,
72,72,0,filler_random,None,None,None,None,None,None,None,None,None,None,3,2.559448003768921,None,,,,,0,0,0,0,0,72,72,145,634.1193511486053,,,,,,,,,,,,,,,,,,,,,,,,,,,,,,,,,,,,,,,,,,,,,,,,,,,,,,,,,,,,,,,,,,,,,,,,,,,,,,,,,65.87226755100419,145.78912101756595,156.8565808600083,101.49744158323207,183.47988292961736,131.44761089669385,4.0,4.2,-220,-3,0,-278,212,0,634.1046483516693,634.104688167572,634.1068551540375,634.1193511486053,634.2692203521729,634.2692203521729,634.2692203521729,634.2692203521729,634.2692203521729,634.2692203521729,634.2692203521729,636.6870036125183,3,2.559448003768921,None,,,,,,,,,,,,,,,,,,84,3,2025-02-21_14h55.28.022,comp,2024.2.4,60.091692646249776,2025-02-21 14h56.02.356918 -0500,
73,73,0,critical,dhw,20.0,4.0,lower,78.0,78.0,133.0,57.0,57.0,133.0,1,3.8332905769348145,None,,,,,0,0,0,0,0,73,73,58,636.702642917633,,,,,,,,,,,,,,,,,,,,,,,,,,,,,,,,,,,,,,,,,,,,,,,,,,,,,,,,,,,,,,,,,,,,,,,,,,,,,,,,,78.0,78.0,133.0,57.0,57.0,133.0,4.0,4.1,-164,-285,0,19,191,-286,636.6877987384796,636.6878385543823,636.6903855800629,636.702642917633,636.8524341583252,636.8524341583252,636.8524341583252,636.8524341583252,636.8524341583252,636.8524341583252,636.8524341583252,640.5372245311737,1,3.8332905769348145,None,,,,,,,,,,,,,,,,,,84,3,2025-02-21_14h55.28.022,comp,2024.2.4,60.091692646249776,2025-02-21 14h56.02.356918 -0500,
74,74,0,filler_square,None,None,None,None,None,None,None,None,None,None,2,0.9743068218231201,None,,,,,0,0,0,0,0,74,74,172,640.5525913238525,,,,,,,,,,,,,,,,,,,,,,,,,,,,,,,,,,,,,,,,,,,,,,,,,,,,,,,,,,,,,,,,,,,,,,,,,,,,,,,,,117.1895030250692,146.34340929185282,157.31452103262703,157.31452103262703,61.648140511929846,81.65720778892336,2.2,2.22,-248,278,0,-267,215,-278,640.5381698608398,640.5382113456726,640.5407800674438,640.5525913238525,640.702924489975,640.702924489975,640.702924489975,640.702924489975,640.702924489975,640.702924489975,640.702924489975,641.5371463298798,2,0.9743068218231201,None,,,,,,,,,,,,,,,,,,84,3,2025-02-21_14h55.28.022,comp,2024.2.4,60.091692646249776,2025-02-21 14h56.02.356918 -0500,
75,75,0,critical,wdh,20.0,4.0,upper,125.0,200.0,141.0,141.0,200.0,125.0,3,12.253165483474731,None,,,,,0,0,0,0,0,75,75,83,641.5526220798492,,,,,,,,,,,,,,,,,,,,,,,,,,,,,,,,,,,,,,,,,,,,,,,,,,,,,,,,,,,,,,,,,,,,,,,,,,,,,,,,,125.0,200.0,141.0,141.0,200.0,125.0,4.0,4.2,-266,17,0,-256,229,-7,641.5379590988159,641.5379989147186,641.5405588150024,641.5526220798492,641.7026557922363,641.7026557922363,641.7026557922363,641.7026557922363,641.7026557922363,641.7026557922363,641.7026557922363,653.8203644752502,3,12.253165483474731,None,,,,,,,,,,,,,,,,,,84,3,2025-02-21_14h55.28.022,comp,2024.2.4,60.091692646249776,2025-02-21 14h56.02.356918 -0500,
76,76,0,critical,hdw,20.0,2.1,lower,133.0,57.0,78.0,78.0,57.0,133.0,3,9.050403118133545,None,,,,,0,0,0,0,0,76,76,46,653.8355760574341,,,,,,,,,,,,,,,,,,,,,,,,,,,,,,,,,,,,,,,,,,,,,,,,,,,,,,,,,,,,,,,,,,,,,,,,,,,,,,,,,133.0,57.0,78.0,78.0,57.0,133.0,2.1,2.12,-164,-263,0,-258,202,256,653.8211727142334,653.8212122917175,653.8238108158112,653.8355760574341,653.9857172966003,653.9857172966003,653.9857172966003,653.9857172966003,653.9857172966003,653.9857172966003,653.9857172966003,662.9036140441895,3,9.050403118133545,None,,,,,,,,,,,,,,,,,,84,3,2025-02-21_14h55.28.022,comp,2024.2.4,60.091692646249776,2025-02-21 14h56.02.356918 -0500,
77,77,0,filler_square,None,None,None,None,None,None,None,None,None,None,3,2.1115784645080566,None,,,,,0,0,0,0,0,77,77,203,662.9189686775208,,,,,,,,,,,,,,,,,,,,,,,,,,,,,,,,,,,,,,,,,,,,,,,,,,,,,,,,,,,,,,,,,,,,,,,,,,,,,,,,,63.319250748421986,58.43925613853582,62.38796843221447,57.82615495363487,68.02024693174714,68.02024693174714,2.1,2.11,-154,252,0,275,159,-265,662.9045646190643,662.9046049118042,662.9067471027374,662.9189686775208,663.0689914226532,663.0689914226532,663.0689914226532,663.0689914226532,663.0689914226532,663.0689914226532,663.0689914226532,665.0367424488068,3,2.1115784645080566,None,,,,,,,,,,,,,,,,,,84,3,2025-02-21_14h55.28.022,comp,2024.2.4,60.091692646249776,2025-02-21 14h56.02.356918 -0500,
78,78,0,filler_square,None,None,None,None,None,None,None,None,None,None,2,2.3621010780334473,None,,,,,0,0,0,0,0,78,78,196,665.052458524704,,,,,,,,,,,,,,,,,,,,,,,,,,,,,,,,,,,,,,,,,,,,,,,,,,,,,,,,,,,,,,,,,,,,,,,,,,,,,,,,,91.4415254240663,75.79649228708676,100.48321740840323,100.48321740840323,79.93883342314271,84.5711969319197,2.1,2.11,-184,284,0,283,189,-256,665.0376744270325,665.0377135276794,665.0401830673218,665.052458524704,665.2024290561676,665.2024290561676,665.2024290561676,665.2024290561676,665.2024290561676,665.2024290561676,665.2024290561676,667.4202044010162,2,2.3621010780334473,None,,,,,,,,,,,,,,,,,,84,3,2025-02-21_14h55.28.022,comp,2024.2.4,60.091692646249776,2025-02-21 14h56.02.356918 -0500,
79,79,0,filler_random,None,None,None,None,None,None,None,None,None,None,1,3.683417558670044,None,,,,,0,0,0,0,0,79,79,150,667.4358522891998,,,,,,,,,,,,,,,,,,,,,,,,,,,,,,,,,,,,,,,,,,,,,,,,,,,,,,,,,,,,,,,,,,,,,,,,,,,,,,,,,100.1940719443848,191.58734141804982,86.5899509791166,105.89714727734946,69.67391800818585,103.75318638890278,2.2,2.22,-245,255,0,-253,201,-272,667.4211142063141,667.4211549758911,667.423751115799,667.4358522891998,667.5856461524963,667.5856461524963,667.5856461524963,667.5856461524963,667.5856461524963,667.5856461524963,667.5856461524963,671.1367630958557,1,3.683417558670044,None,,,,,,,,,,,,,,,,,,84,3,2025-02-21_14h55.28.022,comp,2024.2.4,60.091692646249776,2025-02-21 14h56.02.356918 -0500,
80,80,0,filler_random,None,None,None,None,None,None,None,None,None,None,2,1.7837421894073486,None,,,,,0,0,0,0,0,80,80,168,671.1521134376526,,,,,,,,,,,,,,,,,,,,,,,,,,,,,,,,,,,,,,,,,,,,,,,,,,,,,,,,,,,,,,,,,,,,,,,,,,,,,,,,,69.09767836110166,69.48938783643574,112.85101536596827,178.35910330403988,89.21260486252368,119.09260255624547,2.2,2.22,-220,278,0,-261,245,-268,671.1376659870148,671.1377055644989,671.1401436328888,671.1521134376526,671.3024854660034,671.3024854660034,671.3024854660034,671.3024854660034,671.3024854660034,671.3024854660034,671.3024854660034,672.9371199607849,2,1.7837421894073486,None,,,,,,,,,,,,,,,,,,84,3,2025-02-21_14h55.28.022,comp,2024.2.4,60.091692646249776,2025-02-21 14h56.02.356918 -0500,
81,81,0,critical,dhw,20.0,2.1,upper,141.0,141.0,200.0,125.0,125.0,200.0,3,3.7100980281829834,None,,,,,0,0,0,0,0,81,81,3,672.9524750709534,,,,,,,,,,,,,,,,,,,,,,,,,,,,,,,,,,,,,,,,,,,,,,,,,,,,,,,,,,,,,,,,,,,,,,,,,,,,,,,,,141.0,141.0,200.0,125.0,125.0,200.0,2.1,2.11,-229,260,0,266,258,-256,672.9379479885101,672.9379901885986,672.9405274391174,672.9524750709534,673.1024899482727,673.1024899482727,673.1024899482727,673.1024899482727,673.1024899482727,673.1024899482727,673.1024899482727,676.6701936721802,3,3.7100980281829834,None,,,,,,,,,,,,,,,,,,84,3,2025-02-21_14h55.28.022,comp,2024.2.4,60.091692646249776,2025-02-21 14h56.02.356918 -0500,
82,82,0,filler_random,None,None,None,None,None,None,None,None,None,None,2,1.1679515838623047,None,,,,,0,0,0,0,0,82,82,161,676.6857504844666,,,,,,,,,,,,,,,,,,,,,,,,,,,,,,,,,,,,,,,,,,,,,,,,,,,,,,,,,,,,,,,,,,,,,,,,,,,,,,,,,107.69236339506261,161.22068747028752,178.85572870876612,185.70123431213253,167.76696339512978,167.35901150112005,4.0,4.2,-269,14,0,-268,273,12,676.6710648536682,676.6711056232452,676.673586845398,676.6857504844666,676.8357915878296,676.8357915878296,676.8357915878296,676.8357915878296,676.8357915878296,676.8357915878296,676.8357915878296,677.870228767395,2,1.1679515838623047,None,,,,,,,,,,,,,,,,,,84,3,2025-02-21_14h55.28.022,comp,2024.2.4,60.091692646249776,2025-02-21 14h56.02.356918 -0500,
83,83,0,filler_square,None,None,None,None,None,None,None,None,None,None,3,4.400623321533203,None,,,,,0,0,0,0,0,83,83,186,677.8854687213898,,,,,,,,,,,,,,,,,,,,,,,,,,,,,,,,,,,,,,,,,,,,,,,,,,,,,,,,,,,,,,,,,,,,,,,,,,,,,,,,,87.23774857207817,85.8549425976189,84.05600795684133,96.74443972874064,96.88441011474406,96.88441011474406,2.1,2.11,-187,288,0,280,193,-266,677.8711688518524,677.8712077140808,677.8737733364105,677.8854687213898,678.0355668067932,678.0355668067932,678.0355668067932,678.0355668067932,678.0355668067932,678.0355668067932,678.0355668067932,682.3033485412598,3,4.400623321533203,None,,,,,,,,,,,,,,,,,,84,3,2025-02-21_14h55.28.022,comp,2024.2.4,60.091692646249776,2025-02-21 14h56.02.356918 -0500,
84,84,0,filler_random,None,None,None,None,None,None,None,None,None,None,1,3.127633571624756,None,,,,,0,0,0,0,0,84,84,142,682.3187718391418,,,,,,,,,,,,,,,,,,,,,,,,,,,,,,,,,,,,,,,,,,,,,,,,,,,,,,,,,,,,,,,,,,,,,,,,,,,,,,,,,144.2833181100787,124.38364553274269,119.68019362588791,109.01155997283104,175.71105257362268,69.54692183085335,1.0,1.2,-213,-8,0,-6,185,19,682.3042171001434,682.3042576313019,682.306890964508,682.3187718391418,682.4690198898315,682.4690198898315,682.4690198898315,682.4690198898315,682.4690198898315,682.4690198898315,682.4690198898315,685.4533452987671,1,3.127633571624756,None,,,,,,,,,,,,,,,,,,84,3,2025-02-21_14h55.28.022,comp,2024.2.4,60.091692646249776,2025-02-21 14h56.02.356918 -0500,
85,85,0,critical,hdw,35.0,2.1,upper,200.0,125.0,127.0,127.0,125.0,200.0,3,6.457813501358032,None,,,,,0,0,0,0,0,85,85,45,685.469001531601,,,,,,,,,,,,,,,,,,,,,,,,,,,,,,,,,,,,,,,,,,,,,,,,,,,,,,,,,,,,,,,,,,,,,,,,,,,,,,,,,200.0,125.0,127.0,127.0,125.0,200.0,2.1,2.12,-222,-285,0,-264,260,269,685.4541263580322,685.4541659355164,685.4566683769226,685.469001531601,685.6191608905792,685.6191608905792,685.6191608905792,685.6191608905792,685.6191608905792,685.6191608905792,685.6191608905792,691.9368138313293,3,6.457813501358032,None,,,,,,,,,,,,,,,,,,84,3,2025-02-21_14h55.28.022,comp,2024.2.4,60.091692646249776,2025-02-21 14h56.02.356918 -0500,
86,86,0,critical,hdw,20.0,4.0,lower,133.0,57.0,78.0,78.0,57.0,133.0,2,8.637930870056152,None,,,,,0,0,0,0,0,86,86,118,691.9523000717163,,,,,,,,,,,,,,,,,,,,,,,,,,,,,,,,,,,,,,,,,,,,,,,,,,,,,,,,,,,,,,,,,,,,,,,,,,,,,,,,,133.0,57.0,78.0,78.0,57.0,133.0,4.0,4.1,-164,-270,0,9,202,-280,691.9375987052917,691.9376375675201,691.9397673606873,691.9523000717163,692.1021599769592,692.1021599769592,692.1021599769592,692.1021599769592,692.1021599769592,692.1021599769592,692.1021599769592,700.6032264232635,2,8.637930870056152,None,,,,,,,,,,,,,,,,,,84,3,2025-02-21_14h55.28.022,comp,2024.2.4,60.091692646249776,2025-02-21 14h56.02.356918 -0500,
87,87,0,critical,dhw,20.0,2.1,upper,141.0,141.0,200.0,125.0,125.0,200.0,3,6.380260467529297,None,,,,,0,0,0,0,0,87,87,27,700.6186301708221,,,,,,,,,,,,,,,,,,,,,,,,,,,,,,,,,,,,,,,,,,,,,,,,,,,,,,,,,,,,,,,,,,,,,,,,,,,,,,,,,141.0,141.0,200.0,125.0,125.0,200.0,2.1,2.11,-229,277,0,284,258,-268,700.6040120124817,700.6040511131287,700.6066212654114,700.6186301708221,700.7689113616943,700.7689113616943,700.7689113616943,700.7689113616943,700.7689113616943,700.7689113616943,700.7689113616943,707.0038328170776,3,6.380260467529297,None,,,,,,,,,,,,,,,,,,84,3,2025-02-21_14h55.28.022,comp,2024.2.4,60.091692646249776,2025-02-21 14h56.02.356918 -0500,
88,88,0,filler_random,None,None,None,None,None,None,None,None,None,None,3,3.0023839473724365,None,,,,,0,0,0,0,0,88,88,149,707.019052028656,,,,,,,,,,,,,,,,,,,,,,,,,,,,,,,,,,,,,,,,,,,,,,,,,,,,,,,,,,,,,,,,,,,,,,,,,,,,,,,,,101.51874975317494,78.90219332941551,76.8577411423464,173.04191916341128,83.6005873540905,195.01811260050656,2.1,2.12,-222,-254,0,-285,280,268,707.0048525333405,707.0048961639404,707.007036447525,707.019052028656,707.1687190532684,707.1687190532684,707.1687190532684,707.1687190532684,707.1687190532684,707.1687190532684,707.1687190532684,710.0364272594452,3,3.0023839473724365,None,,,,,,,,,,,,,,,,,,84,3,2025-02-21_14h55.28.022,comp,2024.2.4,60.091692646249776,2025-02-21 14h56.02.356918 -0500,
89,89,0,critical,dwh,20.0,1.0,lower,78.0,78.0,57.0,133.0,133.0,57.0,2,9.201556921005249,None,,,,,0,0,0,0,0,89,89,66,710.0518755912781,,,,,,,,,,,,,,,,,,,,,,,,,,,,,,,,,,,,,,,,,,,,,,,,,,,,,,,,,,,,,,,,,,,,,,,,,,,,,,,,,78.0,78.0,57.0,133.0,133.0,57.0,1.0,1.2,-202,17,0,0,191,15,710.037193775177,710.037232875824,710.0394480228424,710.0518755912781,710.2020201683044,710.2020201683044,710.2020201683044,710.2020201683044,710.2020201683044,710.2020201683044,710.2020201683044,719.2698132991791,2,9.201556921005249,None,,,,,,,,,,,,,,,,,,84,3,2025-02-21_14h55.28.022,comp,2024.2.4,60.091692646249776,2025-02-21 14h56.02.356918 -0500,
90,90,0,filler_square,None,None,None,None,None,None,None,None,None,None,3,1.566127061843872,None,,,,,0,0,0,0,0,90,90,207,719.2872085571289,,,,,,,,,,,,,,,,,,,,,,,,,,,,,,,,,,,,,,,,,,,,,,,,,,,,,,,,,,,,,,,,,,,,,,,,,,,,,,,,,84.00653296586992,64.81961585230266,111.58422432914625,162.4910892915641,183.59155639506068,183.59155639506068,3.0,3.2,-210,-256,0,15,269,254,719.2708835601807,719.2709267139435,719.2741551399231,719.2872085571289,719.4355025291443,719.4355025291443,719.4355025291443,719.4355025291443,719.4355025291443,719.4355025291443,719.4355025291443,720.8698754310608,3,1.566127061843872,None,,,,,,,,,,,,,,,,,,84,3,2025-02-21_14h55.28.022,comp,2024.2.4,60.091692646249776,2025-02-21 14h56.02.356918 -0500,
91,91,0,critical,dhw,35.0,3.0,upper,127.0,127.0,200.0,125.0,125.0,200.0,2,6.666643381118774,None,,,,,0,0,0,0,0,91,91,51,720.8852014541626,,,,,,,,,,,,,,,,,,,,,,,,,,,,,,,,,,,,,,,,,,,,,,,,,,,,,,,,,,,,,,,,,,,,,,,,,,,,,,,,,127.0,127.0,200.0,125.0,125.0,200.0,3.0,3.2,-222,-275,0,-19,258,273,720.8706588745117,720.870697259903,720.8731389045715,720.8852014541626,721.0355348587036,721.0355348587036,721.0355348587036,721.0355348587036,721.0355348587036,721.0355348587036,721.0355348587036,727.5534145832062,2,6.666643381118774,None,,,,,,,,,,,,,,,,,,84,3,2025-02-21_14h55.28.022,comp,2024.2.4,60.091692646249776,2025-02-21 14h56.02.356918 -0500,
92,92,0,critical,whd,35.0,3.0,lower,57.0,133.0,133.0,57.0,70.0,70.0,2,11.517037630081177,None,,,,,0,0,0,0,0,92,92,86,727.5686638355255,,,,,,,,,,,,,,,,,,,,,,,,,,,,,,,,,,,,,,,,,,,,,,,,,,,,,,,,,,,,,,,,,,,,,,,,,,,,,,,,,57.0,133.0,133.0,57.0,70.0,70.0,3.0,3.1,-191,259,0,0,160,-258,727.5541942119598,727.5542349815369,727.5563731193542,727.5686638355255,727.7185974121094,727.7185974121094,727.7185974121094,727.7185974121094,727.7185974121094,727.7185974121094,727.7185974121094,739.1029562950134,2,11.517037630081177,None,,,,,,,,,,,,,,,,,,84,3,2025-02-21_14h55.28.022,comp,2024.2.4,60.091692646249776,2025-02-21 14h56.02.356918 -0500,
93,93,0,filler_random,None,None,None,None,None,None,None,None,None,None,2,0.9189972877502441,None,,,,,0,0,0,0,0,93,93,154,739.1183748245239,,,,,,,,,,,,,,,,,,,,,,,,,,,,,,,,,,,,,,,,,,,,,,,,,,,,,,,,,,,,,,,,,,,,,,,,,,,,,,,,,69.96579238167865,65.87248085366598,172.6148248485604,174.7021799554276,94.46984692411257,146.6419389545839,4.0,4.1,-216,-288,0,9,257,-255,739.1038446426392,739.1038839817047,739.1063656806946,739.1183748245239,739.2685565948486,739.2685565948486,739.2685565948486,739.2685565948486,739.2685565948486,739.2685565948486,739.2685565948486,740.0530200004578,2,0.9189972877502441,None,,,,,,,,,,,,,,,,,,84,3,2025-02-21_14h55.28.022,comp,2024.2.4,60.091692646249776,2025-02-21 14h56.02.356918 -0500,
94,94,0,critical,hwd,20.0,2.1,lower,133.0,57.0,57.0,133.0,78.0,78.0,1,3.2504725456237793,None,,,,,0,0,0,0,0,94,94,18,740.0682284832001,,,,,,,,,,,,,,,,,,,,,,,,,,,,,,,,,,,,,,,,,,,,,,,,,,,,,,,,,,,,,,,,,,,,,,,,,,,,,,,,,133.0,57.0,57.0,133.0,78.0,78.0,2.1,2.12,-191,-256,0,-265,202,270,740.0538241863251,740.0538637638092,740.0563628673553,740.0682284832001,740.2184414863586,740.2184414863586,740.2184414863586,740.2184414863586,740.2184414863586,740.2184414863586,740.2184414863586,743.3361134529114,1,3.2504725456237793,None,,,,,,,,,,,,,,,,,,84,3,2025-02-21_14h55.28.022,comp,2024.2.4,60.091692646249776,2025-02-21 14h56.02.356918 -0500,
95,95,0,critical,hdw,20.0,1.0,lower,133.0,57.0,78.0,78.0,57.0,133.0,2,9.75847578048706,None,,,,,0,0,0,0,0,95,95,114,743.3516352176666,,,,,,,,,,,,,,,,,,,,,,,,,,,,,,,,,,,,,,,,,,,,,,,,,,,,,,,,,,,,,,,,,,,,,,,,,,,,,,,,,133.0,57.0,78.0,78.0,57.0,133.0,1.0,1.1,-644,257,-480,258,-278,270,743.3368577957153,743.3368966579437,743.3393878936768,743.3516352176666,743.5018317699432,743.5018317699432,743.5018317699432,743.5018317699432,743.5018317699432,743.5018317699432,743.5018317699432,753.1194155216217,2,9.75847578048706,None,,,,,,,,,,,,,,,,,,84,3,2025-02-21_14h55.28.022,comp,2024.2.4,60.091692646249776,2025-02-21 14h56.02.356918 -0500,
96,96,0,critical,wdh,20.0,2.1,lower,57.0,133.0,78.0,78.0,133.0,57.0,1,5.405768156051636,None,,,,,0,0,0,0,0,96,96,34,753.1351752281189,,,,,,,,,,,,,,,,,,,,,,,,,,,,,,,,,,,,,,,,,,,,,,,,,,,,,,,,,,,,,,,,,,,,,,,,,,,,,,,,,57.0,133.0,78.0,78.0,133.0,57.0,2.1,2.12,-202,-256,0,-257,164,270,753.1202178001404,753.1202573776245,753.1224493980408,753.1351752281189,753.2850480079651,753.2850480079651,753.2850480079651,753.2850480079651,753.2850480079651,753.2850480079651,753.2850480079651,758.5532717704773,1,5.405768156051636,None,,,,,,,,,,,,,,,,,,84,3,2025-02-21_14h55.28.022,comp,2024.2.4,60.091692646249776,2025-02-21 14h56.02.356918 -0500,
97,97,0,critical,dhw,35.0,2.1,lower,70.0,70.0,133.0,57.0,57.0,133.0,3,4.468789339065552,None,,,,,0,0,0,0,0,97,97,24,758.5682804584503,,,,,,,,,,,,,,,,,,,,,,,,,,,,,,,,,,,,,,,,,,,,,,,,,,,,,,,,,,,,,,,,,,,,,,,,,,,,,,,,,70.0,70.0,133.0,57.0,57.0,133.0,2.1,2.11,-160,283,0,290,191,-273,758.554080247879,758.5541200637817,758.55690741539,758.5682804584503,758.7185463905334,758.7185463905334,758.7185463905334,758.7185463905334,758.7185463905334,758.7185463905334,758.7185463905334,763.0527985095978,3,4.468789339065552,None,,,,,,,,,,,,,,,,,,84,3,2025-02-21_14h55.28.022,comp,2024.2.4,60.091692646249776,2025-02-21 14h56.02.356918 -0500,
98,98,0,critical,dhw,35.0,4.0,upper,127.0,127.0,200.0,125.0,125.0,200.0,3,5.521563529968262,None,,,,,0,0,0,0,0,98,98,53,763.068151473999,,,,,,,,,,,,,,,,,,,,,,,,,,,,,,,,,,,,,,,,,,,,,,,,,,,,,,,,,,,,,,,,,,,,,,,,,,,,,,,,,127.0,127.0,200.0,125.0,125.0,200.0,4.0,4.2,-222,5,0,-286,258,-18,763.0535881519318,763.0536279678345,763.0561249256134,763.068151473999,763.2185652256012,763.2185652256012,763.2185652256012,763.2185652256012,763.2185652256012,763.2185652256012,763.2185652256012,768.6028432846069,3,5.521563529968262,None,,,,,,,,,,,,,,,,,,84,3,2025-02-21_14h55.28.022,comp,2024.2.4,60.091692646249776,2025-02-21 14h56.02.356918 -0500,
99,99,0,critical,dhw,35.0,3.0,lower,70.0,70.0,133.0,57.0,57.0,133.0,3,10.138731002807617,None,,,,,0,0,0,0,0,99,99,50,768.6181316375732,,,,,,,,,,,,,,,,,,,,,,,,,,,,,,,,,,,,,,,,,,,,,,,,,,,,,,,,,,,,,,,,,,,,,,,,,,,,,,,,,70.0,70.0,133.0,57.0,57.0,133.0,3.0,3.1,-160,270,0,-10,191,-283,768.6036319732666,768.603673696518,768.606166601181,768.6181316375732,768.7683534622192,768.7683534622192,768.7683534622192,768.7683534622192,768.7683534622192,768.7683534622192,768.7683534622192,778.7694668769836,3,10.138731002807617,None,,,,,,,,,,,,,,,,,,84,3,2025-02-21_14h55.28.022,comp,2024.2.4,60.091692646249776,2025-02-21 14h56.02.356918 -0500,
100,100,0,critical,hwd,35.0,1.0,upper,200.0,125.0,125.0,200.0,127.0,127.0,1,9.382571935653687,None,,,,,0,0,0,0,0,100,100,97,778.7847981452942,,,,,,,,,,,,,,,,,,,,,,,,,,,,,,,,,,,,,,,,,,,,,,,,,,,,,,,,,,,,,,,,,,,,,,,,,,,,,,,,,200.0,125.0,125.0,200.0,127.0,127.0,1.0,1.3,222,-288,480,-253,740,-264,778.7702929973602,778.7703330516815,778.7729737758636,778.7847981452942,778.9350736141205,778.9350736141205,778.9350736141205,778.9350736141205,778.9350736141205,778.9350736141205,778.9350736141205,788.169816493988,1,9.382571935653687,None,,,,,,,,,,,,,,,,,,84,3,2025-02-21_14h55.28.022,comp,2024.2.4,60.091692646249776,2025-02-21 14h56.02.356918 -0500,
101,101,0,critical,wdh,35.0,4.0,lower,57.0,133.0,70.0,70.0,133.0,57.0,3,3.6678812503814697,None,,,,,0,0,0,0,0,101,101,76,788.1850638389587,,,,,,,,,,,,,,,,,,,,,,,,,,,,,,,,,,,,,,,,,,,,,,,,,,,,,,,,,,,,,,,,,,,,,,,,,,,,,,,,,57.0,133.0,70.0,70.0,133.0,57.0,4.0,4.1,-198,-261,0,-10,160,-274,788.1706097126007,788.1706500053406,788.172824382782,788.1850638389587,788.3347718715668,788.3347718715668,788.3347718715668,788.3347718715668,788.3347718715668,788.3347718715668,788.3347718715668,791.8692381381989,3,3.6678812503814697,None,,,,,,,,,,,,,,,,,,84,3,2025-02-21_14h55.28.022,comp,2024.2.4,60.091692646249776,2025-02-21 14h56.02.356918 -0500,
102,102,0,critical,whd,35.0,4.0,upper,125.0,200.0,200.0,125.0,127.0,127.0,2,6.00934910774231,None,,,,,0,0,0,0,0,102,102,89,791.8846843242645,,,,,,,,,,,,,,,,,,,,,,,,,,,,,,,,,,,,,,,,,,,,,,,,,,,,,,,,,,,,,,,,,,,,,,,,,,,,,,,,,125.0,200.0,200.0,125.0,127.0,127.0,4.0,4.2,-258,7,0,-276,222,5,791.8700156211853,791.8700549602509,791.8726632595062,791.8846843242645,792.0349628925323,792.0349628925323,792.0349628925323,792.0349628925323,792.0349628925323,792.0349628925323,792.0349628925323,797.9033463001251,2,6.00934910774231,None,,,,,,,,,,,,,,,,,,84,3,2025-02-21_14h55.28.022,comp,2024.2.4,60.091692646249776,2025-02-21 14h56.02.356918 -0500,
103,103,0,filler_square,None,None,None,None,None,None,None,None,None,None,2,1.7516679763793945,None,,,,,0,0,0,0,0,103,103,201,797.918338060379,,,,,,,,,,,,,,,,,,,,,,,,,,,,,,,,,,,,,,,,,,,,,,,,,,,,,,,,,,,,,,,,,,,,,,,,,,,,,,,,,74.1947138977635,60.70168184277036,82.45241041462572,82.45241041462572,72.503965298436,76.47264869265773,1.0,1.2,-168,-17,0,-13,175,16,797.9042830467224,797.9043235778809,797.9065811634064,797.918338060379,798.0680952072144,798.0680952072144,798.0680952072144,798.0680952072144,798.0680952072144,798.0680952072144,798.0680952072144,799.6857995986938,2,1.7516679763793945,None,,,,,,,,,,,,,,,,,,84,3,2025-02-21_14h55.28.022,comp,2024.2.4,60.091692646249776,2025-02-21 14h56.02.356918 -0500,
104,104,0,filler_square,None,None,None,None,None,None,None,None,None,None,2,1.4825913906097412,None,,,,,0,0,0,0,0,104,104,188,799.7012026309967,,,,,,,,,,,,,,,,,,,,,,,,,,,,,,,,,,,,,,,,,,,,,,,,,,,,,,,,,,,,,,,,,,,,,,,,,,,,,,,,,91.89181999894987,72.39242443716343,133.73975690458929,133.73975690458929,97.78336813303812,126.33000727333462,1.0,1.2,-199,-8,0,0,226,11,799.6867296695709,799.6867706775665,799.689305305481,799.7012026309967,799.8515751361847,799.8515751361847,799.8515751361847,799.8515751361847,799.8515751361847,799.8515751361847,799.8515751361847,801.1859607696533,2,1.4825913906097412,None,,,,,,,,,,,,,,,,,,84,3,2025-02-21_14h55.28.022,comp,2024.2.4,60.091692646249776,2025-02-21 14h56.02.356918 -0500,
105,105,0,critical,hwd,35.0,2.1,upper,200.0,125.0,125.0,200.0,127.0,127.0,2,8.01930856704712,None,,,,,0,0,0,0,0,105,105,17,801.2015752792358,,,,,,,,,,,,,,,,,,,,,,,,,,,,,,,,,,,,,,,,,,,,,,,,,,,,,,,,,,,,,,,,,,,,,,,,,,,,,,,,,200.0,125.0,125.0,200.0,127.0,127.0,2.1,2.11,-258,253,0,289,260,-250,801.1867587566376,801.1867978572845,801.1892800331116,801.2015752792358,801.3516037464142,801.3516037464142,801.3516037464142,801.3516037464142,801.3516037464142,801.3516037464142,801.3516037464142,809.236120223999,2,8.01930856704712,None,,,,,,,,,,,,,,,,,,84,3,2025-02-21_14h55.28.022,comp,2024.2.4,60.091692646249776,2025-02-21 14h56.02.356918 -0500,
106,106,0,critical,whd,35.0,2.1,upper,125.0,200.0,200.0,125.0,127.0,127.0,2,4.538104057312012,None,,,,,0,0,0,0,0,106,106,13,809.2512836456299,,,,,,,,,,,,,,,,,,,,,,,,,,,,,,,,,,,,,,,,,,,,,,,,,,,,,,,,,,,,,,,,,,,,,,,,,,,,,,,,,125.0,200.0,200.0,125.0,127.0,127.0,2.1,2.12,-258,-264,0,-278,222,253,809.2369294166565,809.2369694709778,809.2394552230835,809.2512836456299,809.4014785289764,809.4014785289764,809.4014785289764,809.4014785289764,809.4014785289764,809.4014785289764,809.4014785289764,813.8026204109192,2,4.538104057312012,None,,,,,,,,,,,,,,,,,,84,3,2025-02-21_14h55.28.022,comp,2024.2.4,60.091692646249776,2025-02-21 14h56.02.356918 -0500,
107,107,0,filler_square,None,None,None,None,None,None,None,None,None,None,2,1.7652812004089355,None,,,,,0,0,0,0,0,107,107,189,813.8179347515106,,,,,,,,,,,,,,,,,,,,,,,,,,,,,,,,,,,,,,,,,,,,,,,,,,,,,,,,,,,,,,,,,,,,,,,,,,,,,,,,,165.09730984377774,76.74613468683087,168.90570529163801,168.90570529163801,162.86381888763003,157.7916304104403,1.0,1.1,-699,255,-480,262,-221,274,813.8035991191864,813.8036391735077,813.8069665431976,813.8179347515106,813.968189239502,813.968189239502,813.968189239502,813.968189239502,813.968189239502,813.968189239502,813.968189239502,815.5860786437988,2,1.7652812004089355,None,,,,,,,,,,,,,,,,,,84,3,2025-02-21_14h55.28.022,comp,2024.2.4,60.091692646249776,2025-02-21 14h56.02.356918 -0500,
108,108,0,critical,dwh,35.0,2.1,lower,70.0,70.0,57.0,133.0,133.0,57.0,3,5.019446611404419,None,,,,,0,0,0,0,0,108,108,4,815.6014313697815,,,,,,,,,,,,,,,,,,,,,,,,,,,,,,,,,,,,,,,,,,,,,,,,,,,,,,,,,,,,,,,,,,,,,,,,,,,,,,,,,70.0,70.0,57.0,133.0,133.0,57.0,2.1,2.11,-198,285,0,251,191,-260,815.5868754386902,815.5869159698486,815.589081287384,815.6014313697815,815.7513859272003,815.7513859272003,815.7513859272003,815.7513859272003,815.7513859272003,815.7513859272003,815.7513859272003,820.635683298111,3,5.019446611404419,None,,,,,,,,,,,,,,,,,,84,3,2025-02-21_14h55.28.022,comp,2024.2.4,60.091692646249776,2025-02-21 14h56.02.356918 -0500,
109,109,0,critical,wdh,20.0,1.0,upper,125.0,200.0,141.0,141.0,200.0,125.0,3,5.716329097747803,None,,,,,0,0,0,0,0,109,109,79,820.6510093212128,,,,,,,,,,,,,,,,,,,,,,,,,,,,,,,,,,,,,,,,,,,,,,,,,,,,,,,,,,,,,,,,,,,,,,,,,,,,,,,,,125.0,200.0,141.0,141.0,200.0,125.0,1.0,1.2,-266,4,0,0,229,10,820.6364228725433,820.6364624500275,820.6387250423431,820.6510093212128,820.8014867305756,820.8014867305756,820.8014867305756,820.8014867305756,820.8014867305756,820.8014867305756,820.8014867305756,826.3693192005157,3,5.716329097747803,None,,,,,,,,,,,,,,,,,,84,3,2025-02-21_14h55.28.022,comp,2024.2.4,60.091692646249776,2025-02-21 14h56.02.356918 -0500,
110,110,0,critical,whd,20.0,4.0,lower,57.0,133.0,133.0,57.0,78.0,78.0,1,11.685169458389282,None,,,,,0,0,0,0,0,110,110,94,826.3846786022186,,,,,,,,,,,,,,,,,,,,,,,,,,,,,,,,,,,,,,,,,,,,,,,,,,,,,,,,,,,,,,,,,,,,,,,,,,,,,,,,,57.0,133.0,133.0,57.0,78.0,78.0,4.0,4.1,-191,-268,0,-10,164,-286,826.3701102733612,826.3701515197754,826.372391462326,826.3846786022186,826.5346028804779,826.5346028804779,826.5346028804779,826.5346028804779,826.5346028804779,826.5346028804779,826.5346028804779,838.0856394767761,1,11.685169458389282,None,,,,,,,,,,,,,,,,,,84,3,2025-02-21_14h55.28.022,comp,2024.2.4,60.091692646249776,2025-02-21 14h56.02.356918 -0500,
111,111,0,catch,None,None,None,None,None,None,None,None,None,None,2,1.2036705017089844,None,,,,,0,0,0,0,0,111,111,122,838.1009428501129,,,,,,,,,,,,,,,,,,,,,,,,,,,,,,,,,,,,,,,,,,,,,,,,,,,,,,,,,,,,,,,,,,,,,,,,,,,,,,,,,118,72,162,163,90,100,2.1,2.11,-214,266,0,286,228,-266,838.0866730213165,838.0867116451263,838.0891461372375,838.1009428501129,838.2511575222015,838.2511575222015,838.2511575222015,838.2511575222015,838.2511575222015,838.2511575222015,838.2511575222015,839.3189053535461,2,1.2036705017089844,None,,,,,,,,,,,,,,,,,,84,3,2025-02-21_14h55.28.022,comp,2024.2.4,60.091692646249776,2025-02-21 14h56.02.356918 -0500,
112,112,0,filler_random,None,None,None,None,None,None,None,None,None,None,3,6.0167882442474365,None,,,,,0,0,0,0,0,112,112,156,839.3343603610992,,,,,,,,,,,,,,,,,,,,,,,,,,,,,,,,,,,,,,,,,,,,,,,,,,,,,,,,,,,,,,,,,,,,,,,,,,,,,,,,,73.50628519207234,154.5679024434698,80.20920104537475,103.99254235632571,197.87545806732678,84.22381862128947,2.2,2.21,-225,-267,0,281,190,260,839.3198010921478,839.319842338562,839.3219745159149,839.3343603610992,839.4845571517944,839.4845571517944,839.4845571517944,839.4845571517944,839.4845571517944,839.4845571517944,839.4845571517944,845.368937253952,3,6.0167882442474365,None,,,,,,,,,,,,,,,,,,84,3,2025-02-21_14h55.28.022,comp,2024.2.4,60.091692646249776,2025-02-21 14h56.02.356918 -0500,
113,113,0,critical,hwd,35.0,1.0,lower,133.0,57.0,57.0,133.0,70.0,70.0,1,6.252183198928833,None,,,,,0,0,0,0,0,113,113,96,845.3843252658844,,,,,,,,,,,,,,,,,,,,,,,,,,,,,,,,,,,,,,,,,,,,,,,,,,,,,,,,,,,,,,,,,,,,,,,,,,,,,,,,,133.0,57.0,57.0,133.0,70.0,70.0,1.0,1.2,-191,-12,0,9,198,-10,845.3697023391724,845.3697423934937,845.3722343444824,845.3843252658844,845.5344865322113,845.5344865322113,845.5344865322113,845.5344865322113,845.5344865322113,845.5344865322113,845.5344865322113,851.6521956920624,1,6.252183198928833,None,,,,,,,,,,,,,,,,,,84,3,2025-02-21_14h55.28.022,comp,2024.2.4,60.091692646249776,2025-02-21 14h56.02.356918 -0500,
114,114,0,critical,wdh,35.0,4.0,upper,125.0,200.0,127.0,127.0,200.0,125.0,1,9.761521339416504,None,,,,,0,0,0,0,0,114,114,77,851.6676638126373,,,,,,,,,,,,,,,,,,,,,,,,,,,,,,,,,,,,,,,,,,,,,,,,,,,,,,,,,,,,,,,,,,,,,,,,,,,,,,,,,125.0,200.0,127.0,127.0,200.0,125.0,4.0,4.1,-260,-269,0,16,222,-280,851.6529879570007,851.6530289649963,851.6551365852356,851.6676638126373,851.8179187774658,851.8179187774658,851.8179187774658,851.8179187774658,851.8179187774658,851.8179187774658,851.8179187774658,861.4360933303833,1,9.761521339416504,None,,,,,,,,,,,,,,,,,,84,3,2025-02-21_14h55.28.022,comp,2024.2.4,60.091692646249776,2025-02-21 14h56.02.356918 -0500,
115,115,0,critical,dhw,35.0,1.0,upper,127.0,127.0,200.0,125.0,125.0,200.0,3,5.593963146209717,None,,,,,0,0,0,0,0,115,115,49,861.4511950016022,,,,,,,,,,,,,,,,,,,,,,,,,,,,,,,,,,,,,,,,,,,,,,,,,,,,,,,,,,,,,,,,,,,,,,,,,,,,,,,,,127.0,127.0,200.0,125.0,125.0,200.0,1.0,1.2,-222,9,0,8,258,-18,861.4368996620178,861.4369399547577,861.4394249916077,861.4511950016022,861.6011633872986,861.6011633872986,861.6011633872986,861.6011633872986,861.6011633872986,861.6011633872986,861.6011633872986,867.0522146224976,3,5.593963146209717,None,,,,,,,,,,,,,,,,,,84,3,2025-02-21_14h55.28.022,comp,2024.2.4,60.091692646249776,2025-02-21 14h56.02.356918 -0500,
116,116,0,critical,hwd,20.0,1.0,lower,133.0,57.0,57.0,133.0,78.0,78.0,2,13.009533643722534,None,,,,,0,0,0,0,0,116,116,102,867.0677738189697,,,,,,,,,,,,,,,,,,,,,,,,,,,,,,,,,,,,,,,,,,,,,,,,,,,,,,,,,,,,,,,,,,,,,,,,,,,,,,,,,133.0,57.0,57.0,133.0,78.0,78.0,1.0,1.2,-191,12,0,7,202,-9,867.0529763698578,867.0530154705048,867.0554821491241,867.0677738189697,867.2176158428192,867.2176158428192,867.2176158428192,867.2176158428192,867.2176158428192,867.2176158428192,867.2176158428192,880.085488319397,2,13.009533643722534,None,,,,,,,,,,,,,,,,,,84,3,2025-02-21_14h55.28.022,comp,2024.2.4,60.091692646249776,2025-02-21 14h56.02.356918 -0500,
117,117,0,critical,dwh,20.0,2.1,lower,78.0,78.0,57.0,133.0,133.0,57.0,2,14.0817289352417,None,,,,,0,0,0,0,0,117,117,30,880.1009614467621,,,,,,,,,,,,,,,,,,,,,,,,,,,,,,,,,,,,,,,,,,,,,,,,,,,,,,,,,,,,,,,,,,,,,,,,,,,,,,,,,78.0,78.0,57.0,133.0,133.0,57.0,2.1,2.11,-202,269,0,274,191,-263,880.0862853527069,880.0863254070282,880.0886816978455,880.1009614467621,880.2510259151459,880.2510259151459,880.2510259151459,880.2510259151459,880.2510259151459,880.2510259151459,880.2510259151459,894.1853482723236,2,14.0817289352417,None,,,,,,,,,,,,,,,,,,84,3,2025-02-21_14h55.28.022,comp,2024.2.4,60.091692646249776,2025-02-21 14h56.02.356918 -0500,
118,118,0,catch,None,None,None,None,None,None,None,None,None,None,1,1.1658406257629395,None,,,,,0,0,0,0,0,118,118,125,894.2009632587433,,,,,,,,,,,,,,,,,,,,,,,,,,,,,,,,,,,,,,,,,,,,,,,,,,,,,,,,,,,,,,,,,,,,,,,,,,,,,,,,,152,173,111,79,94,96,2.1,2.11,-222,278,0,271,184,-257,894.1864125728607,894.1864535808563,894.1886758804321,894.2009632587433,894.3510196208954,894.3510196208954,894.3510196208954,894.3510196208954,894.3510196208954,894.3510196208954,894.3510196208954,895.3689091205597,1,1.1658406257629395,None,,,,,,,,,,,,,,,,,,84,3,2025-02-21_14h55.28.022,comp,2024.2.4,60.091692646249776,2025-02-21 14h56.02.356918 -0500,
119,119,0,filler_square,None,None,None,None,None,None,None,None,None,None,3,1.4357764720916748,None,,,,,0,0,0,0,0,119,119,198,895.3843302726746,,,,,,,,,,,,,,,,,,,,,,,,,,,,,,,,,,,,,,,,,,,,,,,,,,,,,,,,,,,,,,,,,,,,,,,,,,,,,,,,,153.27619367786622,121.85301997460111,103.85825613994133,163.94764873626974,171.53180806192717,171.53180806192717,2.1,2.11,-239,263,0,283,264,-256,895.369865655899,895.3699083328247,895.3723430633545,895.3843302726746,895.5342853069305,895.5342853069305,895.5342853069305,895.5342853069305,895.5342853069305,895.5342853069305,895.5342853069305,896.8352925777435,3,1.4357764720916748,None,,,,,,,,,,,,,,,,,,84,3,2025-02-21_14h55.28.022,comp,2024.2.4,60.091692646249776,2025-02-21 14h56.02.356918 -0500,
120,120,0,filler_random,None,None,None,None,None,None,None,None,None,None,2,1.8175313472747803,None,,,,,0,0,0,0,0,120,120,157,896.8506314754486,,,,,,,,,,,,,,,,,,,,,,,,,,,,,,,,,,,,,,,,,,,,,,,,,,,,,,,,,,,,,,,,,,,,,,,,,,,,,,,,,72.76424966154447,66.81610781253956,149.07627199707525,114.85004719769898,88.00119598966245,145.1484306896429,3.0,3.1,-187,282,0,-17,226,-263,896.8362262248993,896.8362662792206,896.8388917446136,896.8506314754486,897.0007631778717,897.0007631778717,897.0007631778717,897.0007631778717,897.0007631778717,897.0007631778717,897.0007631778717,898.6851215362549,2,1.8175313472747803,None,,,,,,,,,,,,,,,,,,84,3,2025-02-21_14h55.28.022,comp,2024.2.4,60.091692646249776,2025-02-21 14h56.02.356918 -0500,
121,121,0,filler_square,None,None,None,None,None,None,None,None,None,None,2,5.016971826553345,None,,,,,0,0,0,0,0,121,121,171,898.7006437778473,,,,,,,,,,,,,,,,,,,,,,,,,,,,,,,,,,,,,,,,,,,,,,,,,,,,,,,,,,,,,,,,,,,,,,,,,,,,,,,,,61.13140741175066,65.2604193586703,71.61015025669057,76.50679020055196,76.72982833432675,76.72982833432675,3.0,3.2,-167,-254,0,16,173,261,898.6861140727997,898.6861553192139,898.6887798309326,898.7006437778473,898.8506162166595,898.8506162166595,898.8506162166595,898.8506162166595,898.8506162166595,898.8506162166595,898.8506162166595,903.7351441383362,2,5.016971826553345,None,,,,,,,,,,,,,,,,,,84,3,2025-02-21_14h55.28.022,comp,2024.2.4,60.091692646249776,2025-02-21 14h56.02.356918 -0500,
122,122,0,filler_square,None,None,None,None,None,None,None,None,None,None,3,4.438164234161377,None,,,,,0,0,0,0,0,122,122,177,903.7505989074707,,,,,,,,,,,,,,,,,,,,,,,,,,,,,,,,,,,,,,,,,,,,,,,,,,,,,,,,,,,,,,,,,,,,,,,,,,,,,,,,,57.37144002620439,57.37144002620439,57.123722048616656,57.03751346747199,57.23692417617707,57.05138255576021,1.0,1.2,-153,-16,0,11,153,18,903.7360806465149,903.7361223697662,903.7386894226074,903.7505989074707,903.900684595108,903.900684595108,903.900684595108,903.900684595108,903.900684595108,903.900684595108,903.900684595108,908.2017686367035,3,4.438164234161377,None,,,,,,,,,,,,,,,,,,84,3,2025-02-21_14h55.28.022,comp,2024.2.4,60.091692646249776,2025-02-21 14h56.02.356918 -0500,
123,123,0,critical,dhw,20.0,1.0,lower,78.0,78.0,133.0,57.0,57.0,133.0,1,21.11677122116089,None,,,,,0,0,0,0,0,123,123,54,908.217217206955,,,,,,,,,,,,,,,,,,,,,,,,,,,,,,,,,,,,,,,,,,,,,,,,,,,,,,,,,,,,,,,,,,,,,,,,,,,,,,,,,78.0,78.0,133.0,57.0,57.0,133.0,1.0,1.2,-164,-10,0,12,191,-15,908.2025504112244,908.2025902271271,908.2050585746765,908.217217206955,908.3674049377441,908.3674049377441,908.3674049377441,908.3674049377441,908.3674049377441,908.3674049377441,908.3674049377441,929.3516356945038,1,21.11677122116089,None,,,,,,,,,,,,,,,,,,84,3,2025-02-21_14h55.28.022,comp,2024.2.4,60.091692646249776,2025-02-21 14h56.02.356918 -0500,
124,124,0,filler_random,None,None,None,None,None,None,None,None,None,None,2,11.733736753463745,None,,,,,0,0,0,0,0,124,124,163,929.367104768753,,,,,,,,,,,,,,,,,,,,,,,,,,,,,,,,,,,,,,,,,,,,,,,,,,,,,,,,,,,,,,,,,,,,,,,,,,,,,,,,,164.85861202130337,58.60630872915185,165.2962162736267,105.2131513620386,172.1769555810825,111.1291170723128,4.0,4.2,-178,17,0,-284,204,-9,929.3525533676147,929.3525950908661,929.355063199997,929.367104768753,929.5176434516907,929.5176434516907,929.5176434516907,929.5176434516907,929.5176434516907,929.5176434516907,929.5176434516907,941.1019637584686,2,11.733736753463745,None,,,,,,,,,,,,,,,,,,84,3,2025-02-21_14h55.28.022,comp,2024.2.4,60.091692646249776,2025-02-21 14h56.02.356918 -0500,
125,125,0,critical,dhw,20.0,4.0,upper,141.0,141.0,200.0,125.0,125.0,200.0,3,4.607872724533081,None,,,,,0,0,0,0,0,125,125,59,941.1171996593475,,,,,,,,,,,,,,,,,,,,,,,,,,,,,,,,,,,,,,,,,,,,,,,,,,,,,,,,,,,,,,,,,,,,,,,,,,,,,,,,,141.0,141.0,200.0,125.0,125.0,200.0,4.0,4.2,-229,-5,0,-250,258,19,941.1027393341064,941.1027784347534,941.1051733493805,941.1171996593475,941.2673976421356,941.2673976421356,941.2673976421356,941.2673976421356,941.2673976421356,941.2673976421356,941.2673976421356,945.7351007461548,3,4.607872724533081,None,,,,,,,,,,,,,,,,,,84,3,2025-02-21_14h55.28.022,comp,2024.2.4,60.091692646249776,2025-02-21 14h56.02.356918 -0500,
126,126,0,critical,hwd,20.0,4.0,upper,200.0,125.0,125.0,200.0,141.0,141.0,2,7.117286443710327,None,,,,,0,0,0,0,0,126,126,107,945.7505829334259,,,,,,,,,,,,,,,,,,,,,,,,,,,,,,,,,,,,,,,,,,,,,,,,,,,,,,,,,,,,,,,,,,,,,,,,,,,,,,,,,200.0,125.0,125.0,200.0,141.0,141.0,4.0,4.1,-258,-279,0,-16,266,-254,945.735907793045,945.7359473705292,945.7381238937378,945.7505829334259,945.9008049964905,945.9008049964905,945.9008049964905,945.9008049964905,945.9008049964905,945.9008049964905,945.9008049964905,952.8850336074829,2,7.117286443710327,None,,,,,,,,,,,,,,,,,,84,3,2025-02-21_14h55.28.022,comp,2024.2.4,60.091692646249776,2025-02-21 14h56.02.356918 -0500,
127,127,0,critical,wdh,20.0,3.0,lower,57.0,133.0,78.0,78.0,133.0,57.0,2,4.751534700393677,None,,,,,0,0,0,0,0,127,127,80,952.900297164917,,,,,,,,,,,,,,,,,,,,,,,,,,,,,,,,,,,,,,,,,,,,,,,,,,,,,,,,,,,,,,,,,,,,,,,,,,,,,,,,,57.0,133.0,78.0,78.0,133.0,57.0,3.0,3.2,-202,-279,0,5,164,289,952.8858137130737,952.885853767395,952.8883194923401,952.900297164917,953.0503468513489,953.0503468513489,953.0503468513489,953.0503468513489,953.0503468513489,953.0503468513489,953.0503468513489,957.6683654785156,2,4.751534700393677,None,,,,,,,,,,,,,,,,,,84,3,2025-02-21_14h55.28.022,comp,2024.2.4,60.091692646249776,2025-02-21 14h56.02.356918 -0500,
128,128,0,critical,dwh,35.0,2.1,upper,127.0,127.0,125.0,200.0,200.0,125.0,2,8.177216291427612,None,,,,,0,0,0,0,0,128,128,5,957.6835408210754,,,,,,,,,,,,,,,,,,,,,,,,,,,,,,,,,,,,,,,,,,,,,,,,,,,,,,,,,,,,,,,,,,,,,,,,,,,,,,,,,127.0,127.0,125.0,200.0,200.0,125.0,2.1,2.12,-260,-253,0,-279,258,269,957.6691672801971,957.6692092418671,957.671929359436,957.6835408210754,957.8338749408722,957.8338749408722,957.8338749408722,957.8338749408722,957.8338749408722,957.8338749408722,957.8338749408722,965.8682768344879,2,8.177216291427612,None,,,,,,,,,,,,,,,,,,84,3,2025-02-21_14h55.28.022,comp,2024.2.4,60.091692646249776,2025-02-21 14h56.02.356918 -0500,
129,129,0,filler_random,None,None,None,None,None,None,None,None,None,None,1,1.7678661346435547,None,,,,,0,0,0,0,0,129,129,160,965.8838245868683,,,,,,,,,,,,,,,,,,,,,,,,,,,,,,,,,,,,,,,,,,,,,,,,,,,,,,,,,,,,,,,,,,,,,,,,,,,,,,,,,174.78287340175922,182.78003955611328,182.6165064475103,116.3028624342007,188.39886908853705,138.0975386968594,2.1,2.11,-246,277,0,283,223,-252,965.8691942691803,965.8692350387573,965.871964931488,965.8838245868683,966.0338473320007,966.0338473320007,966.0338473320007,966.0338473320007,966.0338473320007,966.0338473320007,966.0338473320007,967.6683464050293,1,1.7678661346435547,None,,,,,,,,,,,,,,,,,,84,3,2025-02-21_14h55.28.022,comp,2024.2.4,60.091692646249776,2025-02-21 14h56.02.356918 -0500,
130,130,0,filler_random,None,None,None,None,None,None,None,None,None,None,3,5.9137513637542725,None,,,,,0,0,0,0,0,130,130,158,967.6835763454437,,,,,,,,,,,,,,,,,,,,,,,,,,,,,,,,,,,,,,,,,,,,,,,,,,,,,,,,,,,,,,,,,,,,,,,,,,,,,,,,,71.50369438825089,173.85207633175477,67.016926072894,199.77598247342684,113.95681058567855,97.1527460371504,2.2,2.22,-283,283,0,-276,244,-253,967.669270992279,967.6693110466003,967.6714818477631,967.6835763454437,967.8336434364319,967.8336434364319,967.8336434364319,967.8336434364319,967.8336434364319,967.8336434364319,967.8336434364319,973.6015195846558,3,5.9137513637542725,None,,,,,,,,,,,,,,,,,,84,3,2025-02-21_14h55.28.022,comp,2024.2.4,60.091692646249776,2025-02-21 14h56.02.356918 -0500,
131,131,0,critical,hdw,20.0,2.1,upper,200.0,125.0,141.0,141.0,125.0,200.0,3,6.716843366622925,None,,,,,0,0,0,0,0,131,131,47,973.6170709133148,,,,,,,,,,,,,,,,,,,,,,,,,,,,,,,,,,,,,,,,,,,,,,,,,,,,,,,,,,,,,,,,,,,,,,,,,,,,,,,,,200.0,125.0,141.0,141.0,125.0,200.0,2.1,2.11,-229,273,0,269,266,-259,973.6022796630859,973.6023192405701,973.6045410633087,973.6170709133148,973.7671773433685,973.7671773433685,973.7671773433685,973.7671773433685,973.7671773433685,973.7671773433685,973.7671773433685,980.3514313697815,3,6.716843366622925,None,,,,,,,,,,,,,,,,,,84,3,2025-02-21_14h55.28.022,comp,2024.2.4,60.091692646249776,2025-02-21 14h56.02.356918 -0500,
132,132,0,filler_square,None,None,None,None,None,None,None,None,None,None,1,1.2305629253387451,None,,,,,0,0,0,0,0,132,132,200,980.3667557239532,,,,,,,,,,,,,,,,,,,,,,,,,,,,,,,,,,,,,,,,,,,,,,,,,,,,,,,,,,,,,,,,,,,,,,,,,,,,,,,,,141.17009403763052,141.17009403763052,72.20835557792925,139.51100025057303,83.58505699307203,78.28708685524623,2.2,2.22,-236,266,0,-261,205,-254,980.3523595333099,980.3523983955383,980.3544509410858,980.3667557239532,980.51691198349,980.51691198349,980.51691198349,980.51691198349,980.51691198349,980.51691198349,980.51691198349,981.6015403270721,1,1.2305629253387451,None,,,,,,,,,,,,,,,,,,84,3,2025-02-21_14h55.28.022,comp,2024.2.4,60.091692646249776,2025-02-21 14h56.02.356918 -0500,
133,133,0,critical,dwh,35.0,2.1,lower,70.0,70.0,57.0,133.0,133.0,57.0,2,4.307075023651123,None,,,,,0,0,0,0,0,133,133,28,981.6170296669006,,,,,,,,,,,,,,,,,,,,,,,,,,,,,,,,,,,,,,,,,,,,,,,,,,,,,,,,,,,,,,,,,,,,,,,,,,,,,,,,,70.0,70.0,57.0,133.0,133.0,57.0,2.1,2.11,-198,284,0,268,191,-267,981.6023156642914,981.6023552417755,981.6045415401459,981.6170296669006,981.7669124603271,981.7669124603271,981.7669124603271,981.7669124603271,981.7669124603271,981.7669124603271,981.7669124603271,985.9346044063568,2,4.307075023651123,None,,,,,,,,,,,,,,,,,,84,3,2025-02-21_14h55.28.022,comp,2024.2.4,60.091692646249776,2025-02-21 14h56.02.356918 -0500,
134,134,0,critical,wdh,20.0,2.1,lower,57.0,133.0,78.0,78.0,133.0,57.0,3,4.268635511398315,None,,,,,0,0,0,0,0,134,134,10,985.9670770168304,,,,,,,,,,,,,,,,,,,,,,,,,,,,,,,,,,,,,,,,,,,,,,,,,,,,,,,,,,,,,,,,,,,,,,,,,,,,,,,,,57.0,133.0,78.0,78.0,133.0,57.0,2.1,2.12,-202,-282,0,-262,164,269,985.9353909492493,985.9354321956635,985.9378852844238,985.9670770168304,986.1002671718597,986.1002671718597,986.1002671718597,986.1002671718597,986.1002671718597,986.1002671718597,986.1002671718597,990.2511444091797,3,4.268635511398315,None,,,,,,,,,,,,,,,,,,84,3,2025-02-21_14h55.28.022,comp,2024.2.4,60.091692646249776,2025-02-21 14h56.02.356918 -0500,
135,135,0,critical,wdh,35.0,3.0,lower,57.0,133.0,70.0,70.0,133.0,57.0,1,8.361611366271973,None,,,,,0,0,0,0,0,135,135,74,990.2666656970978,,,,,,,,,,,,,,,,,,,,,,,,,,,,,,,,,,,,,,,,,,,,,,,,,,,,,,,,,,,,,,,,,,,,,,,,,,,,,,,,,57.0,133.0,70.0,70.0,133.0,57.0,3.0,3.2,-198,-289,0,0,160,273,990.2519137859344,990.2519538402557,990.2545201778412,990.2666656970978,990.416720867157,990.416720867157,990.416720867157,990.416720867157,990.416720867157,990.416720867157,990.416720867157,998.6344523429871,1,8.361611366271973,None,,,,,,,,,,,,,,,,,,84,3,2025-02-21_14h55.28.022,comp,2024.2.4,60.091692646249776,2025-02-21 14h56.02.356918 -0500,
136,136,0,critical,hwd,35.0,4.0,lower,133.0,57.0,57.0,133.0,70.0,70.0,2,3.6501686573028564,None,,,,,0,0,0,0,0,136,136,100,998.650221824646,,,,,,,,,,,,,,,,,,,,,,,,,,,,,,,,,,,,,,,,,,,,,,,,,,,,,,,,,,,,,,,,,,,,,,,,,,,,,,,,,133.0,57.0,57.0,133.0,70.0,70.0,4.0,4.2,-191,8,0,-282,198,4,998.6352379322052,998.6352779865265,998.6375999450684,998.650221824646,998.8001353740692,998.8001353740692,998.8001353740692,998.8001353740692,998.8001353740692,998.8001353740692,998.8001353740692,1002.3179268836975,2,3.6501686573028564,None,,,,,,,,,,,,,,,,,,84,3,2025-02-21_14h55.28.022,comp,2024.2.4,60.091692646249776,2025-02-21 14h56.02.356918 -0500,
137,137,0,critical,whd,20.0,4.0,upper,125.0,200.0,200.0,125.0,141.0,141.0,1,2.2166359424591064,None,,,,,0,0,0,0,0,137,137,95,1002.3333311080933,,,,,,,,,,,,,,,,,,,,,,,,,,,,,,,,,,,,,,,,,,,,,,,,,,,,,,,,,,,,,,,,,,,,,,,,,,,,,,,,,125.0,200.0,200.0,125.0,141.0,141.0,4.0,4.1,-258,-270,0,10,229,-255,1002.3188388347626,1002.3188791275024,1002.3214721679688,1002.3333311080933,1002.4837658405304,1002.4837658405304,1002.4837658405304,1002.4837658405304,1002.4837658405304,1002.4837658405304,1002.4837658405304,1004.5517947673798,1,2.2166359424591064,None,,,,,,,,,,,,,,,,,,84,3,2025-02-21_14h55.28.022,comp,2024.2.4,60.091692646249776,2025-02-21 14h56.02.356918 -0500,
138,138,0,critical,hwd,20.0,3.0,upper,200.0,125.0,125.0,200.0,141.0,141.0,2,13.068944215774536,None,,,,,0,0,0,0,0,138,138,105,1004.5668711662292,,,,,,,,,,,,,,,,,,,,,,,,,,,,,,,,,,,,,,,,,,,,,,,,,,,,,,,,,,,,,,,,,,,,,,,,,,,,,,,,,200.0,125.0,125.0,200.0,141.0,141.0,3.0,3.2,-258,-284,0,-7,266,265,1004.5525748729706,1004.5526142120361,1004.5550322532654,1004.5668711662292,1004.7169723510742,1004.7169723510742,1004.7169723510742,1004.7169723510742,1004.7169723510742,1004.7169723510742,1004.7169723510742,1017.6513729095459,2,13.068944215774536,None,,,,,,,,,,,,,,,,,,84,3,2025-02-21_14h55.28.022,comp,2024.2.4,60.091692646249776,2025-02-21 14h56.02.356918 -0500,
139,139,0,critical,dhw,35.0,1.0,lower,70.0,70.0,133.0,57.0,57.0,133.0,3,10.577309608459473,None,,,,,0,0,0,0,0,139,139,48,1017.6667275428772,,,,,,,,,,,,,,,,,,,,,,,,,,,,,,,,,,,,,,,,,,,,,,,,,,,,,,,,,,,,,,,,,,,,,,,,,,,,,,,,,70.0,70.0,133.0,57.0,57.0,133.0,1.0,1.2,-160,16,0,-13,191,15,1017.6521511077881,1017.6521911621094,1017.6548118591309,1017.6667275428772,1017.8165905475616,1017.8165905475616,1017.8165905475616,1017.8165905475616,1017.8165905475616,1017.8165905475616,1017.8165905475616,1028.2508521080017,3,10.577309608459473,None,,,,,,,,,,,,,,,,,,84,3,2025-02-21_14h55.28.022,comp,2024.2.4,60.091692646249776,2025-02-21 14h56.02.356918 -0500,
140,140,0,critical,whd,20.0,3.0,lower,57.0,133.0,133.0,57.0,78.0,78.0,3,10.857748985290527,None,,,,,0,0,0,0,0,140,140,92,1028.266620874405,,,,,,,,,,,,,,,,,,,,,,,,,,,,,,,,,,,,,,,,,,,,,,,,,,,,,,,,,,,,,,,,,,,,,,,,,,,,,,,,,57.0,133.0,133.0,57.0,78.0,78.0,3.0,3.1,-191,259,0,-11,164,-268,1028.2516403198242,1028.251680612564,1028.2541031837463,1028.266620874405,1028.4165561199188,1028.4165561199188,1028.4165561199188,1028.4165561199188,1028.4165561199188,1028.4165561199188,1028.4165561199188,1039.134259223938,3,10.857748985290527,None,,,,,,,,,,,,,,,,,,84,3,2025-02-21_14h55.28.022,comp,2024.2.4,60.091692646249776,2025-02-21 14h56.02.356918 -0500,
