thisN,thisTrialN,thisRepN,effect,order,distance,config,diag,h_1,w_1,h_2,w_2,h_3,w_3,rect_choice.keys,rect_choice.rt,rect_choice.duration,instructions_loop.thisRepN,instructions_loop.thisTrialN,instructions_loop.thisN,instructions_loop.thisIndex,blocks.thisRepN,blocks.thisTrialN,blocks.thisN,blocks.thisIndex,trials.thisRepN,trials.thisTrialN,trials.thisN,trials.thisIndex,thisRow.t,notes,consent.started,agree_button.started,decline_button.started,consent_img.started,mouse.started,consent.stopped,agree_button.numClicks,agree_button.timesOn,agree_button.timesOff,decline_button.numClicks,decline_button.timesOn,decline_button.timesOff,mouse.x,mouse.y,mouse.leftButton,mouse.midButton,mouse.rightButton,mouse.time,mouse.clicked_name,exp_params.started,exp_params.stopped,welcome.started,welcome_text.started,welcome_text.stopped,welcome.stopped,instructions_1.started,instructions_1_text_1.started,instructions_1_text_2.started,key_resp.started,instructions_1.stopped,instructions_loop.key_resp.keys,instructions_loop.key_resp.rt,instructions_loop.key_resp.duration,instructions_2.started,instructions_2_text_1.started,instructions_2_text_2.started,key_resp_2.started,instructions_2.stopped,instructions_loop.key_resp_2.keys,instructions_loop.key_resp_2.rt,instructions_loop.key_resp_2.duration,instructions_3.started,instructions_3_text_1.started,r1_instr3.started,r2_instr3.started,r3_instr3.started,r1_instr3_label.started,r2_instr3_label.started,r3_instr3_label.started,instructions_3_text_3.started,instructions_3_text_4.started,key_resp_3.started,instructions_3.stopped,instructions_loop.key_resp_3.keys,instructions_loop.key_resp_3.rt,instructions_loop.key_resp_3.duration,instructions_4.started,instructions_4_text_1.started,instructions_4_text_3.started,instructions_4_text_2.started,key_resp_4.started,instructions_4.stopped,instructions_loop.key_resp_4.keys,instructions_loop.key_resp_4.rt,instructions_loop.key_resp_4.duration,instructions_5.started,instructions_5_text_1.started,instructions_5_text_2.started,key_resp_5.started,instructions_5.stopped,instructions_loop.key_resp_5.keys,instructions_loop.key_resp_5.rt,instructions_loop.key_resp_5.duration,start_exp.started,start_exp_text.started,key_resp_6.started,start_exp.stopped,key_resp_6.keys,key_resp_6.rt,key_resp_6.duration,h_1_tmp,w_1_tmp,h_2_tmp,w_2_tmp,h_3_tmp,w_3_tmp,config_tmp,config_tmp_1,r_1_x,r_1_y,r_2_x,r_2_y,r_3_x,r_3_y,pre_trial.started,pre_trial.stopped,choice_trial.started,rect_choice.started,r_1.started,r_2.started,r_3.started,r_1_label.started,r_2_label.started,r_3_label.started,prompt.started,choice_trial.stopped,trials.rect_choice.keys,trials.rect_choice.rt,trials.rect_choice.duration,end_block.started,end_block_text.started,end_block.stopped,end.started,end_text.started,key_resp_7.started,end.stopped,key_resp_7.keys,key_resp_7.rt,key_resp_7.duration,debriefing.started,debrief_form.started,end_debrief.started,debriefing.stopped,end_debrief.keys,end_debrief.rt,end_debrief.duration,participant,computer,date,expName,psychopyVersion,frameRate,expStart,
,,,,,,,,,,,,,,,,,,,,,,,,,,,,,,,0.014962911605834961,0.036330223083496094,0.036330223083496094,0.036330223083496094,0.014737129211425781,6.728943347930908,1,[6.690462827682495],[6.69048547744751],0,,,[-76.0],[-499.0],[1],[0],[0],[6.713428258895874],['agree_button'],,,,,,,,,,,,,,,,,,,,,,,,,,,,,,,,,,,,,,,,,,,,,,,,,,,,,,,,,,,,,,,,,,,,,,,,,,,,,,,,,,,,,,,,,,,,,,,,,,,,,,,,,,,,85,4,2025-02-21_14h58.47.699,comp,2024.2.4,58.08376251362321,2025-02-21 14h59.00.644594 -0500,
,,,,,,,,,,,,,,,,,,,,,,,,,,,,,,,,,,,,,,,,,,,,,,,,,,6.729410171508789,6.729475498199463,,,,,,,,,,,,,,,,,,,,,,,,,,,,,,,,,,,,,,,,,,,,,,,,,,,,,,,,,,,,,,,,,,,,,,,,,,,,,,,,,,,,,,,,,,,,,,,,,,,,,,,,,,85,4,2025-02-21_14h58.47.699,comp,2024.2.4,58.08376251362321,2025-02-21 14h59.00.644594 -0500,
,,,,,,,,,,,,,,,,,,,,,,,,,,,,,,,,,,,,,,,,,,,,,,,,,,,,6.729519605636597,6.744509220123291,8.747941970825195,8.727640390396118,,,,,,,,,,,,,,,,,,,,,,,,,,,,,,,,,,,,,,,,,,,,,,,,,,,,,,,,,,,,,,,,,,,,,,,,,,,,,,,,,,,,,,,,,,,,,,,,,,,,,,85,4,2025-02-21_14h58.47.699,comp,2024.2.4,58.08376251362321,2025-02-21 14h59.00.644594 -0500,
0,0,0,,,,,,,,,,,,,,,0,0,0,0,,,,,,,,,8.747941970825195,,,,,,,,,,,,,,,,,,,,,,,,,,,8.728517770767212,8.747941970825195,8.747941970825195,10.244772672653198,11.812685012817383,space,1.5500550270080566,None,11.812866449356079,11.828141689300537,11.828141689300537,13.313458681106567,16.55026078224182,space,3.217575788497925,None,16.550410509109497,16.58449149131775,16.58449149131775,16.58449149131775,16.58449149131775,16.58449149131775,16.58449149131775,16.58449149131775,16.58449149131775,16.58449149131775,18.066286087036133,22.778825044631958,space,4.696614742279053,None,22.77899932861328,22.798186540603638,22.798186540603638,22.798186540603638,24.283429622650146,27.801637172698975,space,3.5120770931243896,None,27.801825046539307,27.820642232894897,27.820642232894897,29.315879344940186,29.385417461395264,space,0.06354665756225586,None,29.38561463356018,29.398756980895996,29.398756980895996,30.085405349731445,space,0.6759297847747803,None,,,,,,,,,,,,,,,,,,,,,,,,,,,,,,,,,,,,,,,,,,,,,,,85,4,2025-02-21_14h58.47.699,comp,2024.2.4,58.08376251362321,2025-02-21 14h59.00.644594 -0500,
0,0,0,critical,wdh,20.0,2.1,upper,125.0,200.0,141.0,141.0,200.0,125.0,3,7.581692695617676,None,,,,,0,0,0,0,0,0,0,11,30.165557861328125,,,,,,,,,,,,,,,,,,,,,,,,,,,,,,,,,,,,,,,,,,,,,,,,,,,,,,,,,,,,,,,,,,,,,,,,,,,,,,,,,,125.0,200.0,141.0,141.0,200.0,125.0,2.1,2.11,-266,251,0,270,229,-272,30.14822220802307,30.148256540298462,30.14958119392395,30.165557861328125,30.311668157577515,30.311668157577515,30.311668157577515,30.311668157577515,30.311668157577515,30.311668157577515,30.311668157577515,37.75766372680664,3,7.581692695617676,None,,,,,,,,,,,,,,,,,,85,4,2025-02-21_14h58.47.699,comp,2024.2.4,58.08376251362321,2025-02-21 14h59.00.644594 -0500,
1,1,0,filler_random,None,None,None,None,None,None,None,None,None,None,2,1.696899652481079,None,,,,,0,0,0,0,0,1,1,149,37.7783100605011,,,,,,,,,,,,,,,,,,,,,,,,,,,,,,,,,,,,,,,,,,,,,,,,,,,,,,,,,,,,,,,,,,,,,,,,,,,,,,,,,,102.19626819478034,129.42824067098886,132.20965108204027,199.63991712646902,69.92591919429661,178.8928760561339,3.0,3.2,-261,-252,0,3,285,256,37.75944209098816,37.759528398513794,37.76259636878967,37.7783100605011,37.92105841636658,37.92105841636658,37.92105841636658,37.92105841636658,37.92105841636658,37.92105841636658,37.92105841636658,39.489359617233276,2,1.696899652481079,None,,,,,,,,,,,,,,,,,,85,4,2025-02-21_14h58.47.699,comp,2024.2.4,58.08376251362321,2025-02-21 14h59.00.644594 -0500,
2,2,0,filler_random,None,None,None,None,None,None,None,None,None,None,2,3.7221062183380127,None,,,,,0,0,0,0,0,2,2,163,39.50479078292847,,,,,,,,,,,,,,,,,,,,,,,,,,,,,,,,,,,,,,,,,,,,,,,,,,,,,,,,,,,,,,,,,,,,,,,,,,,,,,,,,,136.0256520577768,156.91425908574547,177.18466881664415,145.54465198599712,188.97421865143244,83.01733386667064,2.1,2.11,-247,265,0,267,210,-280,39.491066217422485,39.49115705490112,39.49430799484253,39.50479078292847,39.65903401374817,39.65903401374817,39.65903401374817,39.65903401374817,39.65903401374817,39.65903401374817,39.65903401374817,43.23989701271057,2,3.7221062183380127,None,,,,,,,,,,,,,,,,,,85,4,2025-02-21_14h58.47.699,comp,2024.2.4,58.08376251362321,2025-02-21 14h59.00.644594 -0500,
3,3,0,critical,hwd,20.0,4.0,upper,200.0,125.0,125.0,200.0,141.0,141.0,1,7.435195684432983,None,,,,,0,0,0,0,0,3,3,107,43.25577473640442,,,,,,,,,,,,,,,,,,,,,,,,,,,,,,,,,,,,,,,,,,,,,,,,,,,,,,,,,,,,,,,,,,,,,,,,,,,,,,,,,,200.0,125.0,125.0,200.0,141.0,141.0,4.0,4.1,-258,-264,0,-10,266,-271,43.24143147468567,43.24151372909546,43.24447202682495,43.25577473640442,43.41385102272034,43.41385102272034,43.41385102272034,43.41385102272034,43.41385102272034,43.41385102272034,43.41385102272034,50.69497489929199,1,7.435195684432983,None,,,,,,,,,,,,,,,,,,85,4,2025-02-21_14h58.47.699,comp,2024.2.4,58.08376251362321,2025-02-21 14h59.00.644594 -0500,
4,4,0,critical,hwd,35.0,4.0,lower,133.0,57.0,57.0,133.0,70.0,70.0,2,3.0414412021636963,None,,,,,0,0,0,0,0,4,4,100,50.71375036239624,,,,,,,,,,,,,,,,,,,,,,,,,,,,,,,,,,,,,,,,,,,,,,,,,,,,,,,,,,,,,,,,,,,,,,,,,,,,,,,,,,133.0,57.0,57.0,133.0,70.0,70.0,4.0,4.1,-191,-252,0,-7,198,-261,50.69659423828125,50.696677684783936,50.69995403289795,50.71375036239624,50.86720585823059,50.86720585823059,50.86720585823059,50.86720585823059,50.86720585823059,50.86720585823059,50.86720585823059,53.759363412857056,2,3.0414412021636963,None,,,,,,,,,,,,,,,,,,85,4,2025-02-21_14h58.47.699,comp,2024.2.4,58.08376251362321,2025-02-21 14h59.00.644594 -0500,
5,5,0,filler_random,None,None,None,None,None,None,None,None,None,None,1,2.619103193283081,None,,,,,0,0,0,0,0,5,5,142,53.775768995285034,,,,,,,,,,,,,,,,,,,,,,,,,,,,,,,,,,,,,,,,,,,,,,,,,,,,,,,,,,,,,,,,,,,,,,,,,,,,,,,,,,166.0426862706152,169.4719526379503,139.2749695156641,169.70950326215706,196.5366564341791,76.81666443688432,3.0,3.2,-266,-268,0,17,219,266,53.76101231575012,53.76109528541565,53.76500868797302,53.775768995285034,53.92690944671631,53.92690944671631,53.92690944671631,53.92690944671631,53.92690944671631,53.92690944671631,53.92690944671631,56.410600662231445,1,2.619103193283081,None,,,,,,,,,,,,,,,,,,85,4,2025-02-21_14h58.47.699,comp,2024.2.4,58.08376251362321,2025-02-21 14h59.00.644594 -0500,
6,6,0,critical,hwd,20.0,3.0,lower,133.0,57.0,57.0,133.0,78.0,78.0,2,6.176709413528442,None,,,,,0,0,0,0,0,6,6,104,56.426271200180054,,,,,,,,,,,,,,,,,,,,,,,,,,,,,,,,,,,,,,,,,,,,,,,,,,,,,,,,,,,,,,,,,,,,,,,,,,,,,,,,,,133.0,57.0,57.0,133.0,78.0,78.0,3.0,3.2,-191,-264,0,-15,202,276,56.41229820251465,56.412381172180176,56.41583847999573,56.426271200180054,56.57634615898132,56.57634615898132,56.57634615898132,56.57634615898132,56.57634615898132,56.57634615898132,56.57634615898132,62.620922327041626,2,6.176709413528442,None,,,,,,,,,,,,,,,,,,85,4,2025-02-21_14h58.47.699,comp,2024.2.4,58.08376251362321,2025-02-21 14h59.00.644594 -0500,
7,7,0,critical,dhw,20.0,1.0,lower,78.0,78.0,133.0,57.0,57.0,133.0,1,6.826310634613037,None,,,,,0,0,0,0,0,7,7,54,62.640549421310425,,,,,,,,,,,,,,,,,,,,,,,,,,,,,,,,,,,,,,,,,,,,,,,,,,,,,,,,,,,,,,,,,,,,,,,,,,,,,,,,,,78.0,78.0,133.0,57.0,57.0,133.0,1.0,1.3,316,-273,480,-275,671,-265,62.62243843078613,62.622519969940186,62.62534284591675,62.640549421310425,62.78077435493469,62.78077435493469,62.78077435493469,62.78077435493469,62.78077435493469,62.78077435493469,62.78077435493469,69.4841775894165,1,6.826310634613037,None,,,,,,,,,,,,,,,,,,85,4,2025-02-21_14h58.47.699,comp,2024.2.4,58.08376251362321,2025-02-21 14h59.00.644594 -0500,
8,8,0,critical,wdh,20.0,4.0,lower,57.0,133.0,78.0,78.0,133.0,57.0,3,3.0380218029022217,None,,,,,0,0,0,0,0,8,8,82,69.5015754699707,,,,,,,,,,,,,,,,,,,,,,,,,,,,,,,,,,,,,,,,,,,,,,,,,,,,,,,,,,,,,,,,,,,,,,,,,,,,,,,,,,57.0,133.0,78.0,78.0,133.0,57.0,4.0,4.1,-202,-285,0,18,164,-283,69.48575830459595,69.48584246635437,69.48874497413635,69.5015754699707,69.64792895317078,69.64792895317078,69.64792895317078,69.64792895317078,69.64792895317078,69.64792895317078,69.64792895317078,72.5489399433136,3,3.0380218029022217,None,,,,,,,,,,,,,,,,,,85,4,2025-02-21_14h58.47.699,comp,2024.2.4,58.08376251362321,2025-02-21 14h59.00.644594 -0500,
9,9,0,filler_square,None,None,None,None,None,None,None,None,None,None,1,1.7107417583465576,None,,,,,0,0,0,0,0,9,9,171,72.56583166122437,,,,,,,,,,,,,,,,,,,,,,,,,,,,,,,,,,,,,,,,,,,,,,,,,,,,,,,,,,,,,,,,,,,,,,,,,,,,,,,,,,110.17246184482386,110.17246184482386,63.59156279371745,95.88988826287722,66.96376683981737,80.35172450372687,4.0,4.2,-199,11,0,-255,184,-14,72.55101108551025,72.55109310150146,72.5550606250763,72.56583166122437,72.715487241745,72.715487241745,72.715487241745,72.715487241745,72.715487241745,72.715487241745,72.715487241745,74.28154754638672,1,1.7107417583465576,None,,,,,,,,,,,,,,,,,,85,4,2025-02-21_14h58.47.699,comp,2024.2.4,58.08376251362321,2025-02-21 14h59.00.644594 -0500,
10,10,0,filler_random,None,None,None,None,None,None,None,None,None,None,2,1.3973913192749023,None,,,,,0,0,0,0,0,10,10,169,74.30198454856873,,,,,,,,,,,,,,,,,,,,,,,,,,,,,,,,,,,,,,,,,,,,,,,,,,,,,,,,,,,,,,,,,,,,,,,,,,,,,,,,,,194.8807456708646,98.38282379612517,117.37684420767593,158.23532666443782,95.09130536735726,101.66419940843713,3.0,3.1,-224,279,0,-7,226,-285,74.2832658290863,74.28334903717041,74.2863712310791,74.30198454856873,74.44893527030945,74.44893527030945,74.44893527030945,74.44893527030945,74.44893527030945,74.44893527030945,74.44893527030945,75.70878624916077,2,1.3973913192749023,None,,,,,,,,,,,,,,,,,,85,4,2025-02-21_14h58.47.699,comp,2024.2.4,58.08376251362321,2025-02-21 14h59.00.644594 -0500,
11,11,0,critical,hwd,20.0,4.0,lower,133.0,57.0,57.0,133.0,78.0,78.0,2,2.5089612007141113,None,,,,,0,0,0,0,0,11,11,106,75.72618412971497,,,,,,,,,,,,,,,,,,,,,,,,,,,,,,,,,,,,,,,,,,,,,,,,,,,,,,,,,,,,,,,,,,,,,,,,,,,,,,,,,,133.0,57.0,57.0,133.0,78.0,78.0,4.0,4.1,-191,-285,0,7,202,-250,75.7102780342102,75.71035981178284,75.7132077217102,75.72618412971497,75.86687302589417,75.86687302589417,75.86687302589417,75.86687302589417,75.86687302589417,75.86687302589417,75.86687302589417,78.25144290924072,2,2.5089612007141113,None,,,,,,,,,,,,,,,,,,85,4,2025-02-21_14h58.47.699,comp,2024.2.4,58.08376251362321,2025-02-21 14h59.00.644594 -0500,
12,12,0,critical,hwd,35.0,2.1,lower,133.0,57.0,57.0,133.0,70.0,70.0,1,2.2969698905944824,None,,,,,0,0,0,0,0,12,12,16,78.26654577255249,,,,,,,,,,,,,,,,,,,,,,,,,,,,,,,,,,,,,,,,,,,,,,,,,,,,,,,,,,,,,,,,,,,,,,,,,,,,,,,,,,133.0,57.0,57.0,133.0,70.0,70.0,2.1,2.11,-191,256,0,277,198,-254,78.25297260284424,78.2530517578125,78.25623369216919,78.26654577255249,78.41908097267151,78.41908097267151,78.41908097267151,78.41908097267151,78.41908097267151,78.41908097267151,78.41908097267151,80.56788468360901,1,2.2969698905944824,None,,,,,,,,,,,,,,,,,,85,4,2025-02-21_14h58.47.699,comp,2024.2.4,58.08376251362321,2025-02-21 14h59.00.644594 -0500,
13,13,0,filler_random,None,None,None,None,None,None,None,None,None,None,2,2.36372709274292,None,,,,,0,0,0,0,0,13,13,153,80.58389949798584,,,,,,,,,,,,,,,,,,,,,,,,,,,,,,,,,,,,,,,,,,,,,,,,,,,,,,,,,,,,,,,,,,,,,,,,,,,,,,,,,,185.83809267083853,168.50989148375663,194.7366171903432,176.4338920552663,148.71447160893734,115.11799905264031,4.0,4.1,-268,-254,0,8,242,-287,80.56960129737854,80.56968545913696,80.57295966148376,80.58389949798584,80.73150086402893,80.73150086402893,80.73150086402893,80.73150086402893,80.73150086402893,80.73150086402893,80.73150086402893,82.952064037323,2,2.36372709274292,None,,,,,,,,,,,,,,,,,,85,4,2025-02-21_14h58.47.699,comp,2024.2.4,58.08376251362321,2025-02-21 14h59.00.644594 -0500,
14,14,0,filler_random,None,None,None,None,None,None,None,None,None,None,2,4.506581544876099,None,,,,,0,0,0,0,0,14,14,155,82.96878457069397,,,,,,,,,,,,,,,,,,,,,,,,,,,,,,,,,,,,,,,,,,,,,,,,,,,,,,,,,,,,,,,,,,,,,,,,,,,,,,,,,,113.4855831738695,106.16953779874362,183.59016740662156,99.74345770119595,152.453794585193,100.29170681735509,2.1,2.11,-199,276,0,283,196,-267,82.95381355285645,82.9538984298706,82.95721530914307,82.96878457069397,83.11689758300781,83.11689758300781,83.11689758300781,83.11689758300781,83.11689758300781,83.11689758300781,83.11689758300781,87.47739171981812,2,4.506581544876099,None,,,,,,,,,,,,,,,,,,85,4,2025-02-21_14h58.47.699,comp,2024.2.4,58.08376251362321,2025-02-21 14h59.00.644594 -0500,
15,15,0,critical,wdh,35.0,2.1,lower,57.0,133.0,70.0,70.0,133.0,57.0,3,2.026531934738159,None,,,,,0,0,0,0,0,15,15,32,87.49634742736816,,,,,,,,,,,,,,,,,,,,,,,,,,,,,,,,,,,,,,,,,,,,,,,,,,,,,,,,,,,,,,,,,,,,,,,,,,,,,,,,,,57.0,133.0,70.0,70.0,133.0,57.0,2.1,2.11,-198,285,0,272,160,-272,87.47890996932983,87.47899222373962,87.48176980018616,87.49634742736816,87.63665843009949,87.63665843009949,87.63665843009949,87.63665843009949,87.63665843009949,87.63665843009949,87.63665843009949,89.53719162940979,3,2.026531934738159,None,,,,,,,,,,,,,,,,,,85,4,2025-02-21_14h58.47.699,comp,2024.2.4,58.08376251362321,2025-02-21 14h59.00.644594 -0500,
16,16,0,critical,whd,20.0,2.1,upper,125.0,200.0,200.0,125.0,141.0,141.0,2,2.6838150024414062,None,,,,,0,0,0,0,0,16,16,39,89.55146074295044,,,,,,,,,,,,,,,,,,,,,,,,,,,,,,,,,,,,,,,,,,,,,,,,,,,,,,,,,,,,,,,,,,,,,,,,,,,,,,,,,,125.0,200.0,200.0,125.0,141.0,141.0,2.1,2.11,-258,282,0,264,229,-265,89.53878092765808,89.53886127471924,89.54236769676208,89.55146074295044,89.70148015022278,89.70148015022278,89.70148015022278,89.70148015022278,89.70148015022278,89.70148015022278,89.70148015022278,92.23741316795349,2,2.6838150024414062,None,,,,,,,,,,,,,,,,,,85,4,2025-02-21_14h58.47.699,comp,2024.2.4,58.08376251362321,2025-02-21 14h59.00.644594 -0500,
17,17,0,filler_random,None,None,None,None,None,None,None,None,None,None,2,1.555830955505371,None,,,,,0,0,0,0,0,17,17,136,92.25526976585388,,,,,,,,,,,,,,,,,,,,,,,,,,,,,,,,,,,,,,,,,,,,,,,,,,,,,,,,,,,,,,,,,,,,,,,,,,,,,,,,,,77.25815110403462,104.17889426306155,68.63582162264328,165.20253314846678,88.97199427992484,73.56121796548932,2.1,2.12,-231,-277,0,-252,215,280,92.2391209602356,92.23920106887817,92.24217677116394,92.25526976585388,92.4054024219513,92.4054024219513,92.4054024219513,92.4054024219513,92.4054024219513,92.4054024219513,92.4054024219513,93.82058882713318,2,1.555830955505371,None,,,,,,,,,,,,,,,,,,85,4,2025-02-21_14h58.47.699,comp,2024.2.4,58.08376251362321,2025-02-21 14h59.00.644594 -0500,
18,18,0,critical,dwh,20.0,2.1,upper,141.0,141.0,125.0,200.0,200.0,125.0,3,5.502093315124512,None,,,,,0,0,0,0,0,18,18,7,93.83679270744324,,,,,,,,,,,,,,,,,,,,,,,,,,,,,,,,,,,,,,,,,,,,,,,,,,,,,,,,,,,,,,,,,,,,,,,,,,,,,,,,,,141.0,141.0,125.0,200.0,200.0,125.0,2.1,2.11,-266,257,0,253,258,-289,93.8221287727356,93.82221055030823,93.82508420944214,93.83679270744324,93.97664403915405,93.97664403915405,93.97664403915405,93.97664403915405,93.97664403915405,93.97664403915405,93.97664403915405,99.34113550186157,3,5.502093315124512,None,,,,,,,,,,,,,,,,,,85,4,2025-02-21_14h58.47.699,comp,2024.2.4,58.08376251362321,2025-02-21 14h59.00.644594 -0500,
19,19,0,filler_random,None,None,None,None,None,None,None,None,None,None,2,3.2853450775146484,None,,,,,0,0,0,0,0,19,19,145,99.3576512336731,,,,,,,,,,,,,,,,,,,,,,,,,,,,,,,,,,,,,,,,,,,,,,,,,,,,,,,,,,,,,,,,,,,,,,,,,,,,,,,,,,135.16534092258888,95.35037324620839,120.15531936596173,129.98239069794298,125.23814457791694,77.65495633501243,3.0,3.2,-209,-252,0,5,200,251,99.34301948547363,99.3431646823883,99.346755027771,99.3576512336731,99.50818729400635,99.50818729400635,99.50818729400635,99.50818729400635,99.50818729400635,99.50818729400635,99.50818729400635,102.65816473960876,2,3.2853450775146484,None,,,,,,,,,,,,,,,,,,85,4,2025-02-21_14h58.47.699,comp,2024.2.4,58.08376251362321,2025-02-21 14h59.00.644594 -0500,
20,20,0,critical,hdw,35.0,1.0,lower,133.0,57.0,70.0,70.0,57.0,133.0,1,2.4893958568573,None,,,,,0,0,0,0,0,20,20,108,102.6735827922821,,,,,,,,,,,,,,,,,,,,,,,,,,,,,,,,,,,,,,,,,,,,,,,,,,,,,,,,,,,,,,,,,,,,,,,,,,,,,,,,,,133.0,57.0,70.0,70.0,57.0,133.0,1.0,1.3,320,-283,480,-265,678,-270,102.65967893600464,102.6597945690155,102.6632628440857,102.6735827922821,102.82231664657593,102.82231664657593,102.82231664657593,102.82231664657593,102.82231664657593,102.82231664657593,102.82231664657593,105.17442440986633,1,2.4893958568573,None,,,,,,,,,,,,,,,,,,85,4,2025-02-21_14h58.47.699,comp,2024.2.4,58.08376251362321,2025-02-21 14h59.00.644594 -0500,
21,21,0,critical,dhw,35.0,2.1,lower,70.0,70.0,133.0,57.0,57.0,133.0,3,3.2491579055786133,None,,,,,0,0,0,0,0,21,21,0,105.19385361671448,,,,,,,,,,,,,,,,,,,,,,,,,,,,,,,,,,,,,,,,,,,,,,,,,,,,,,,,,,,,,,,,,,,,,,,,,,,,,,,,,,70.0,70.0,133.0,57.0,57.0,133.0,2.1,2.11,-160,287,0,255,191,-251,105.17595291137695,105.17603373527527,105.17910075187683,105.19385361671448,105.34212398529053,105.34212398529053,105.34212398529053,105.34212398529053,105.34212398529053,105.34212398529053,105.34212398529053,108.45959615707397,3,3.2491579055786133,None,,,,,,,,,,,,,,,,,,85,4,2025-02-21_14h58.47.699,comp,2024.2.4,58.08376251362321,2025-02-21 14h59.00.644594 -0500,
22,22,0,critical,whd,20.0,3.0,lower,57.0,133.0,133.0,57.0,78.0,78.0,1,2.144162654876709,None,,,,,0,0,0,0,0,22,22,92,108.47536110877991,,,,,,,,,,,,,,,,,,,,,,,,,,,,,,,,,,,,,,,,,,,,,,,,,,,,,,,,,,,,,,,,,,,,,,,,,,,,,,,,,,57.0,133.0,133.0,57.0,78.0,78.0,3.0,3.2,-191,-252,0,-18,164,252,108.46125864982605,108.46136593818665,108.46492385864258,108.47536110877991,108.62702703475952,108.62702703475952,108.62702703475952,108.62702703475952,108.62702703475952,108.62702703475952,108.62702703475952,110.62603306770325,1,2.144162654876709,None,,,,,,,,,,,,,,,,,,85,4,2025-02-21_14h58.47.699,comp,2024.2.4,58.08376251362321,2025-02-21 14h59.00.644594 -0500,
23,23,0,filler_square,None,None,None,None,None,None,None,None,None,None,1,3.2736425399780273,None,,,,,0,0,0,0,0,23,23,185,110.64136600494385,,,,,,,,,,,,,,,,,,,,,,,,,,,,,,,,,,,,,,,,,,,,,,,,,,,,,,,,,,,,,,,,,,,,,,,,,,,,,,,,,,96.7419984798441,99.06949829960716,105.08668365766434,105.08668365766434,83.36375802043926,69.56535867057637,2.1,2.11,-198,284,0,275,183,-290,110.62741589546204,110.62747597694397,110.62954449653625,110.64136600494385,110.79456448554993,110.79456448554993,110.79456448554993,110.79456448554993,110.79456448554993,110.79456448554993,110.79456448554993,113.92767143249512,1,3.2736425399780273,None,,,,,,,,,,,,,,,,,,85,4,2025-02-21_14h58.47.699,comp,2024.2.4,58.08376251362321,2025-02-21 14h59.00.644594 -0500,
24,24,0,filler_square,None,None,None,None,None,None,None,None,None,None,1,1.4267802238464355,None,,,,,0,0,0,0,0,24,24,203,113.94428968429565,,,,,,,,,,,,,,,,,,,,,,,,,,,,,,,,,,,,,,,,,,,,,,,,,,,,,,,,,,,,,,,,,,,,,,,,,,,,,,,,,,198.8254641056077,198.8254641056077,135.88075375226168,73.88227873642315,84.15817110029491,184.98389410604346,4.0,4.2,-232,18,0,-260,225,16,113.92957973480225,113.92973470687866,113.93288254737854,113.94428968429565,114.09935712814331,114.09935712814331,114.09935712814331,114.09935712814331,114.09935712814331,114.09935712814331,114.09935712814331,115.38344168663025,1,1.4267802238464355,None,,,,,,,,,,,,,,,,,,85,4,2025-02-21_14h58.47.699,comp,2024.2.4,58.08376251362321,2025-02-21 14h59.00.644594 -0500,
25,25,0,filler_random,None,None,None,None,None,None,None,None,None,None,2,3.417036533355713,None,,,,,0,0,0,0,0,25,25,131,115.40205311775208,,,,,,,,,,,,,,,,,,,,,,,,,,,,,,,,,,,,,,,,,,,,,,,,,,,,,,,,,,,,,,,,,,,,,,,,,,,,,,,,,,93.29807499616356,94.17757517645373,197.68668261479112,67.27568729754803,110.3471391417378,92.71681955967594,4.0,4.2,-177,1,0,-284,176,-7,115.38511157035828,115.38519382476807,115.38805532455444,115.40205311775208,115.54643940925598,115.54643940925598,115.54643940925598,115.54643940925598,115.54643940925598,115.54643940925598,115.54643940925598,118.82892346382141,2,3.417036533355713,None,,,,,,,,,,,,,,,,,,85,4,2025-02-21_14h58.47.699,comp,2024.2.4,58.08376251362321,2025-02-21 14h59.00.644594 -0500,
26,26,0,filler_random,None,None,None,None,None,None,None,None,None,None,3,2.637446880340576,None,,,,,0,0,0,0,0,26,26,160,118.84551763534546,,,,,,,,,,,,,,,,,,,,,,,,,,,,,,,,,,,,,,,,,,,,,,,,,,,,,,,,,,,,,,,,,,,,,,,,,,,,,,,,,,70.31242793877263,188.31704880411414,143.9331928224359,113.32439929305335,117.53024614337086,163.57755307770944,4.0,4.1,-247,-266,0,-14,234,-283,118.83066034317017,118.83077478408813,118.83381533622742,118.84551763534546,118.99269318580627,118.99269318580627,118.99269318580627,118.99269318580627,118.99269318580627,118.99269318580627,118.99269318580627,121.49569344520569,3,2.637446880340576,None,,,,,,,,,,,,,,,,,,85,4,2025-02-21_14h58.47.699,comp,2024.2.4,58.08376251362321,2025-02-21 14h59.00.644594 -0500,
27,27,0,filler_random,None,None,None,None,None,None,None,None,None,None,2,4.5667548179626465,None,,,,,0,0,0,0,0,27,27,134,121.5162000656128,,,,,,,,,,,,,,,,,,,,,,,,,,,,,,,,,,,,,,,,,,,,,,,,,,,,,,,,,,,,,,,,,,,,,,,,,,,,,,,,,,57.40247488812301,77.14342809982799,121.54578703854803,129.0960429215026,74.83218540546989,175.10753262523895,4.0,4.1,-199,-270,0,7,248,-290,121.49747657775879,121.49759149551392,121.50100493431091,121.5162000656128,121.66395688056946,121.66395688056946,121.66395688056946,121.66395688056946,121.66395688056946,121.66395688056946,121.66395688056946,126.09764385223389,2,4.5667548179626465,None,,,,,,,,,,,,,,,,,,85,4,2025-02-21_14h58.47.699,comp,2024.2.4,58.08376251362321,2025-02-21 14h59.00.644594 -0500,
28,28,0,filler_square,None,None,None,None,None,None,None,None,None,None,3,4.584728717803955,None,,,,,0,0,0,0,0,28,28,186,126.11428666114807,,,,,,,,,,,,,,,,,,,,,,,,,,,,,,,,,,,,,,,,,,,,,,,,,,,,,,,,,,,,,,,,,,,,,,,,,,,,,,,,,,63.089221734423106,57.82886299218492,57.53359719401332,63.5503228719749,65.45039467775585,65.45039467775585,2.1,2.11,-157,257,0,251,161,-280,126.09962844848633,126.09973740577698,126.10286283493042,126.11428666114807,126.2684714794159,126.2684714794159,126.2684714794159,126.2684714794159,126.2684714794159,126.2684714794159,126.2684714794159,130.71555733680725,3,4.584728717803955,None,,,,,,,,,,,,,,,,,,85,4,2025-02-21_14h58.47.699,comp,2024.2.4,58.08376251362321,2025-02-21 14h59.00.644594 -0500,
29,29,0,critical,dhw,35.0,3.0,lower,70.0,70.0,133.0,57.0,57.0,133.0,3,3.3677711486816406,None,,,,,0,0,0,0,0,29,29,50,130.7320671081543,,,,,,,,,,,,,,,,,,,,,,,,,,,,,,,,,,,,,,,,,,,,,,,,,,,,,,,,,,,,,,,,,,,,,,,,,,,,,,,,,,70.0,70.0,133.0,57.0,57.0,133.0,3.0,3.2,-160,-269,0,1,191,258,130.71721029281616,130.7173330783844,130.72081875801086,130.7320671081543,130.88082480430603,130.88082480430603,130.88082480430603,130.88082480430603,130.88082480430603,130.88082480430603,130.88082480430603,134.10740733146667,3,3.3677711486816406,None,,,,,,,,,,,,,,,,,,85,4,2025-02-21_14h58.47.699,comp,2024.2.4,58.08376251362321,2025-02-21 14h59.00.644594 -0500,
30,30,0,filler_random,None,None,None,None,None,None,None,None,None,None,2,6.168442010879517,None,,,,,0,0,0,0,0,30,30,151,134.12286162376404,,,,,,,,,,,,,,,,,,,,,,,,,,,,,,,,,,,,,,,,,,,,,,,,,,,,,,,,,,,,,,,,,,,,,,,,,,,,,,,,,,194.43585563007036,138.7394703042146,194.4399036149186,193.95205067102802,108.31720562062688,194.36613621394952,3.0,3.1,-262,250,0,16,290,-265,134.10913705825806,134.1092188358307,134.11208391189575,134.12286162376404,134.27515363693237,134.27515363693237,134.27515363693237,134.27515363693237,134.27515363693237,134.27515363693237,134.27515363693237,140.3083415031433,2,6.168442010879517,None,,,,,,,,,,,,,,,,,,85,4,2025-02-21_14h58.47.699,comp,2024.2.4,58.08376251362321,2025-02-21 14h59.00.644594 -0500,
31,31,0,filler_square,None,None,None,None,None,None,None,None,None,None,2,4.253498315811157,None,,,,,0,0,0,0,0,31,31,189,140.32759928703308,,,,,,,,,,,,,,,,,,,,,,,,,,,,,,,,,,,,,,,,,,,,,,,,,,,,,,,,,,,,,,,,,,,,,,,,,,,,,,,,,,80.26721434734186,134.7622094345292,135.3591289832861,135.3591289832861,73.5366701234951,70.04006055984804,4.0,4.1,-231,-279,0,11,199,-256,140.31025171279907,140.31035232543945,140.31349277496338,140.32759928703308,140.46993207931519,140.46993207931519,140.46993207931519,140.46993207931519,140.46993207931519,140.46993207931519,140.46993207931519,144.58623838424683,2,4.253498315811157,None,,,,,,,,,,,,,,,,,,85,4,2025-02-21_14h58.47.699,comp,2024.2.4,58.08376251362321,2025-02-21 14h59.00.644594 -0500,
32,32,0,filler_random,None,None,None,None,None,None,None,None,None,None,3,1.5214061737060547,None,,,,,0,0,0,0,0,32,32,139,144.60197114944458,,,,,,,,,,,,,,,,,,,,,,,,,,,,,,,,,,,,,,,,,,,,,,,,,,,,,,,,,,,,,,,,,,,,,,,,,,,,,,,,,,185.55486800942467,146.05557859330236,143.85697957602565,81.93603556768025,184.62277086772275,182.65480744552414,2.1,2.11,-210,272,0,274,228,-255,144.5879328250885,144.58801555633545,144.5908501148224,144.60197114944458,144.7615509033203,144.7615509033203,144.7615509033203,144.7615509033203,144.7615509033203,144.7615509033203,144.7615509033203,146.14111161231995,3,1.5214061737060547,None,,,,,,,,,,,,,,,,,,85,4,2025-02-21_14h58.47.699,comp,2024.2.4,58.08376251362321,2025-02-21 14h59.00.644594 -0500,
33,33,0,filler_square,None,None,None,None,None,None,None,None,None,None,2,1.4617650508880615,None,,,,,0,0,0,0,0,33,33,182,146.15716934204102,,,,,,,,,,,,,,,,,,,,,,,,,,,,,,,,,,,,,,,,,,,,,,,,,,,,,,,,,,,,,,,,,,,,,,,,,,,,,,,,,,112.93245402809211,136.11433069291053,170.19170892586178,170.19170892586178,113.13414115622159,118.92538942187609,2.2,2.22,-249,288,0,-279,241,-278,146.14325714111328,146.14333987236023,146.14686632156372,146.15716934204102,146.30374383926392,146.30374383926392,146.30374383926392,146.30374383926392,146.30374383926392,146.30374383926392,146.30374383926392,147.6283175945282,2,1.4617650508880615,None,,,,,,,,,,,,,,,,,,85,4,2025-02-21_14h58.47.699,comp,2024.2.4,58.08376251362321,2025-02-21 14h59.00.644594 -0500,
34,34,0,critical,wdh,20.0,2.1,lower,57.0,133.0,78.0,78.0,133.0,57.0,3,1.6953189373016357,None,,,,,0,0,0,0,0,34,34,34,147.64362263679504,,,,,,,,,,,,,,,,,,,,,,,,,,,,,,,,,,,,,,,,,,,,,,,,,,,,,,,,,,,,,,,,,,,,,,,,,,,,,,,,,,57.0,133.0,78.0,78.0,133.0,57.0,2.1,2.11,-202,259,0,259,164,-283,147.6298794746399,147.6299605369568,147.6328158378601,147.64362263679504,147.78855419158936,147.78855419158936,147.78855419158936,147.78855419158936,147.78855419158936,147.78855419158936,147.78855419158936,149.35834169387817,3,1.6953189373016357,None,,,,,,,,,,,,,,,,,,85,4,2025-02-21_14h58.47.699,comp,2024.2.4,58.08376251362321,2025-02-21 14h59.00.644594 -0500,
35,35,0,critical,hdw,35.0,2.1,lower,133.0,57.0,70.0,70.0,57.0,133.0,1,3.8441011905670166,None,,,,,0,0,0,0,0,35,35,44,149.37555050849915,,,,,,,,,,,,,,,,,,,,,,,,,,,,,,,,,,,,,,,,,,,,,,,,,,,,,,,,,,,,,,,,,,,,,,,,,,,,,,,,,,133.0,57.0,70.0,70.0,57.0,133.0,2.1,2.11,-160,286,0,256,198,-269,149.36004400253296,149.36012506484985,149.3631134033203,149.37555050849915,149.5222771167755,149.5222771167755,149.5222771167755,149.5222771167755,149.5222771167755,149.5222771167755,149.5222771167755,153.22292590141296,1,3.8441011905670166,None,,,,,,,,,,,,,,,,,,85,4,2025-02-21_14h58.47.699,comp,2024.2.4,58.08376251362321,2025-02-21 14h59.00.644594 -0500,
36,36,0,filler_random,None,None,None,None,None,None,None,None,None,None,1,1.6166837215423584,None,,,,,0,0,0,0,0,36,36,164,153.24244379997253,,,,,,,,,,,,,,,,,,,,,,,,,,,,,,,,,,,,,,,,,,,,,,,,,,,,,,,,,,,,,,,,,,,,,,,,,,,,,,,,,,183.77863184928614,139.56434183418844,140.6915022368087,105.94056695635416,133.66916737664263,174.7397622067174,1.0,1.3,261,-273,480,-263,716,-262,153.22455143928528,153.22463202476501,153.22772336006165,153.24244379997253,153.39178824424744,153.39178824424744,153.39178824424744,153.39178824424744,153.39178824424744,153.39178824424744,153.39178824424744,154.87319469451904,1,1.6166837215423584,None,,,,,,,,,,,,,,,,,,85,4,2025-02-21_14h58.47.699,comp,2024.2.4,58.08376251362321,2025-02-21 14h59.00.644594 -0500,
37,37,0,critical,hwd,20.0,1.0,lower,133.0,57.0,57.0,133.0,78.0,78.0,1,2.346381425857544,None,,,,,0,0,0,0,0,37,37,102,154.88946509361267,,,,,,,,,,,,,,,,,,,,,,,,,,,,,,,,,,,,,,,,,,,,,,,,,,,,,,,,,,,,,,,,,,,,,,,,,,,,,,,,,,133.0,57.0,57.0,133.0,78.0,78.0,1.0,1.1,-671,262,-480,266,-278,288,154.87480854988098,154.87488746643066,154.87817192077637,154.88946509361267,155.04266929626465,155.04266929626465,155.04266929626465,155.04266929626465,155.04266929626465,155.04266929626465,155.04266929626465,157.24197387695312,1,2.346381425857544,None,,,,,,,,,,,,,,,,,,85,4,2025-02-21_14h58.47.699,comp,2024.2.4,58.08376251362321,2025-02-21 14h59.00.644594 -0500,
38,38,0,filler_square,None,None,None,None,None,None,None,None,None,None,1,1.5770246982574463,None,,,,,0,0,0,0,0,38,38,187,157.25837922096252,,,,,,,,,,,,,,,,,,,,,,,,,,,,,,,,,,,,,,,,,,,,,,,,,,,,,,,,,,,,,,,,,,,,,,,,,,,,,,,,,,137.83155457125446,137.83155457125446,117.01136789058148,103.53182357765704,95.06413226354807,61.978313323328834,2.2,2.21,-217,-256,0,254,179,290,157.24400353431702,157.2440881729126,157.24747014045715,157.25837922096252,157.40551948547363,157.40551948547363,157.40551948547363,157.40551948547363,157.40551948547363,157.40551948547363,157.40551948547363,158.84294295310974,1,1.5770246982574463,None,,,,,,,,,,,,,,,,,,85,4,2025-02-21_14h58.47.699,comp,2024.2.4,58.08376251362321,2025-02-21 14h59.00.644594 -0500,
39,39,0,critical,dwh,20.0,1.0,lower,78.0,78.0,57.0,133.0,133.0,57.0,3,1.7317376136779785,None,,,,,0,0,0,0,0,39,39,66,158.86322689056396,,,,,,,,,,,,,,,,,,,,,,,,,,,,,,,,,,,,,,,,,,,,,,,,,,,,,,,,,,,,,,,,,,,,,,,,,,,,,,,,,,78.0,78.0,57.0,133.0,133.0,57.0,1.0,1.2,-202,16,0,0,191,13,158.84450101852417,158.84458303451538,158.84779381752014,158.86322689056396,159.00924444198608,159.00924444198608,159.00924444198608,159.00924444198608,159.00924444198608,159.00924444198608,159.00924444198608,160.61051654815674,3,1.7317376136779785,None,,,,,,,,,,,,,,,,,,85,4,2025-02-21_14h58.47.699,comp,2024.2.4,58.08376251362321,2025-02-21 14h59.00.644594 -0500,
40,40,0,filler_square,None,None,None,None,None,None,None,None,None,None,2,2.4746227264404297,None,,,,,0,0,0,0,0,40,40,184,160.62546300888062,,,,,,,,,,,,,,,,,,,,,,,,,,,,,,,,,,,,,,,,,,,,,,,,,,,,,,,,,,,,,,,,,,,,,,,,,,,,,,,,,,121.10171785993269,86.41712267203172,122.53425946097535,122.53425946097535,102.59361287093003,95.8087357754344,1.0,1.1,-680,263,-480,274,-275,278,160.6123239994049,160.6124575138092,160.61586546897888,160.62546300888062,160.7641487121582,160.7641487121582,160.7641487121582,160.7641487121582,160.7641487121582,160.7641487121582,160.7641487121582,163.11051559448242,2,2.4746227264404297,None,,,,,,,,,,,,,,,,,,85,4,2025-02-21_14h58.47.699,comp,2024.2.4,58.08376251362321,2025-02-21 14h59.00.644594 -0500,
41,41,0,filler_random,None,None,None,None,None,None,None,None,None,None,3,1.2044126987457275,None,,,,,0,0,0,0,0,41,41,167,163.1268150806427,,,,,,,,,,,,,,,,,,,,,,,,,,,,,,,,,,,,,,,,,,,,,,,,,,,,,,,,,,,,,,,,,,,,,,,,,,,,,,,,,,72.6380373106928,86.05382392717652,111.28485387321766,85.7774018367446,145.31335506812735,170.3705112707134,1.0,1.3,298,-255,480,-289,704,-261,163.1122715473175,163.11235427856445,163.11578845977783,163.1268150806427,163.2746388912201,163.2746388912201,163.2746388912201,163.2746388912201,163.2746388912201,163.2746388912201,163.2746388912201,164.3441722393036,3,1.2044126987457275,None,,,,,,,,,,,,,,,,,,85,4,2025-02-21_14h58.47.699,comp,2024.2.4,58.08376251362321,2025-02-21 14h59.00.644594 -0500,
42,42,0,filler_random,None,None,None,None,None,None,None,None,None,None,3,1.771573543548584,None,,,,,0,0,0,0,0,42,42,135,164.35945844650269,,,,,,,,,,,,,,,,,,,,,,,,,,,,,,,,,,,,,,,,,,,,,,,,,,,,,,,,,,,,,,,,,,,,,,,,,,,,,,,,,,104.51449783825407,109.99666115009799,102.63441346933945,93.56003833584666,154.90588270463414,113.71458318191257,2.1,2.11,-198,250,0,272,200,-256,164.34583687782288,164.3459188938141,164.34923243522644,164.35945844650269,164.5140061378479,164.5140061378479,164.5140061378479,164.5140061378479,164.5140061378479,164.5140061378479,164.5140061378479,166.1491515636444,3,1.771573543548584,None,,,,,,,,,,,,,,,,,,85,4,2025-02-21_14h58.47.699,comp,2024.2.4,58.08376251362321,2025-02-21 14h59.00.644594 -0500,
43,43,0,filler_square,None,None,None,None,None,None,None,None,None,None,3,1.2526729106903076,None,,,,,0,0,0,0,0,43,43,196,166.16712951660156,,,,,,,,,,,,,,,,,,,,,,,,,,,,,,,,,,,,,,,,,,,,,,,,,,,,,,,,,,,,,,,,,,,,,,,,,,,,,,,,,,73.0127463565549,62.71929179142393,64.06719584327497,87.28615783543736,107.50045363267903,107.50045363267903,2.1,2.12,-171,-270,0,-253,193,284,166.1511721611023,166.1512553691864,166.15439534187317,166.16712951660156,166.3118200302124,166.3118200302124,166.3118200302124,166.3118200302124,166.3118200302124,166.3118200302124,166.3118200302124,167.42849850654602,3,1.2526729106903076,None,,,,,,,,,,,,,,,,,,85,4,2025-02-21_14h58.47.699,comp,2024.2.4,58.08376251362321,2025-02-21 14h59.00.644594 -0500,
44,44,0,critical,wdh,20.0,2.1,lower,57.0,133.0,78.0,78.0,133.0,57.0,1,1.7608106136322021,None,,,,,0,0,0,0,0,44,44,10,167.4423975944519,,,,,,,,,,,,,,,,,,,,,,,,,,,,,,,,,,,,,,,,,,,,,,,,,,,,,,,,,,,,,,,,,,,,,,,,,,,,,,,,,,57.0,133.0,78.0,78.0,133.0,57.0,2.1,2.12,-202,-255,0,-280,164,272,167.4300093650818,167.4300925731659,167.43299317359924,167.4423975944519,167.5970642566681,167.5970642566681,167.5970642566681,167.5970642566681,167.5970642566681,167.5970642566681,167.5970642566681,169.21782684326172,1,1.7608106136322021,None,,,,,,,,,,,,,,,,,,85,4,2025-02-21_14h58.47.699,comp,2024.2.4,58.08376251362321,2025-02-21 14h59.00.644594 -0500,
45,45,0,filler_random,None,None,None,None,None,None,None,None,None,None,2,3.6425838470458984,None,,,,,0,0,0,0,0,45,45,147,169.23313546180725,,,,,,,,,,,,,,,,,,,,,,,,,,,,,,,,,,,,,,,,,,,,,,,,,,,,,,,,,,,,,,,,,,,,,,,,,,,,,,,,,,146.6455746894208,106.566689813017,97.95337671316497,194.53365022710247,93.36913263618243,164.7727988289555,1.0,1.2,-247,12,0,18,276,12,169.21949434280396,169.21957874298096,169.222403049469,169.23313546180725,169.3793318271637,169.3793318271637,169.3793318271637,169.3793318271637,169.3793318271637,169.3793318271637,169.3793318271637,172.88013195991516,2,3.6425838470458984,None,,,,,,,,,,,,,,,,,,85,4,2025-02-21_14h58.47.699,comp,2024.2.4,58.08376251362321,2025-02-21 14h59.00.644594 -0500,
46,46,0,filler_square,None,None,None,None,None,None,None,None,None,None,3,2.9241795539855957,None,,,,,0,0,0,0,0,46,46,195,172.89511466026306,,,,,,,,,,,,,,,,,,,,,,,,,,,,,,,,,,,,,,,,,,,,,,,,,,,,,,,,,,,,,,,,,,,,,,,,,,,,,,,,,,59.72889792690886,62.000803152420715,57.13512828178742,62.95905282699314,64.04934442780183,64.04934442780183,1.0,1.3,322,-281,480,-258,640,-279,172.88199186325073,172.882075548172,172.88521432876587,172.89511466026306,173.0432231426239,173.0432231426239,173.0432231426239,173.0432231426239,173.0432231426239,173.0432231426239,173.0432231426239,175.83391165733337,3,2.9241795539855957,None,,,,,,,,,,,,,,,,,,85,4,2025-02-21_14h58.47.699,comp,2024.2.4,58.08376251362321,2025-02-21 14h59.00.644594 -0500,
47,47,0,filler_square,None,None,None,None,None,None,None,None,None,None,2,1.3213191032409668,None,,,,,0,0,0,0,0,47,47,205,175.85039067268372,,,,,,,,,,,,,,,,,,,,,,,,,,,,,,,,,,,,,,,,,,,,,,,,,,,,,,,,,,,,,,,,,,,,,,,,,,,,,,,,,,57.54887050776403,59.749092090848826,92.67957476935933,92.67957476935933,78.26978757585957,76.6637261961625,1.0,1.1,-652,263,-480,265,-299,272,175.83595085144043,175.83603620529175,175.83912634849548,175.85039067268372,175.9986217021942,175.9986217021942,175.9986217021942,175.9986217021942,175.9986217021942,175.9986217021942,175.9986217021942,177.17853045463562,2,1.3213191032409668,None,,,,,,,,,,,,,,,,,,85,4,2025-02-21_14h58.47.699,comp,2024.2.4,58.08376251362321,2025-02-21 14h59.00.644594 -0500,
48,48,0,critical,dhw,35.0,2.1,upper,127.0,127.0,200.0,125.0,125.0,200.0,3,1.3518238067626953,None,,,,,0,0,0,0,0,48,48,1,177.1956570148468,,,,,,,,,,,,,,,,,,,,,,,,,,,,,,,,,,,,,,,,,,,,,,,,,,,,,,,,,,,,,,,,,,,,,,,,,,,,,,,,,,127.0,127.0,200.0,125.0,125.0,200.0,2.1,2.12,-222,-271,0,-263,258,271,177.18014430999756,177.18022561073303,177.1834192276001,177.1956570148468,177.33275938034058,177.33275938034058,177.33275938034058,177.33275938034058,177.33275938034058,177.33275938034058,177.33275938034058,178.55131793022156,3,1.3518238067626953,None,,,,,,,,,,,,,,,,,,85,4,2025-02-21_14h58.47.699,comp,2024.2.4,58.08376251362321,2025-02-21 14h59.00.644594 -0500,
49,49,0,critical,wdh,20.0,2.1,upper,125.0,200.0,141.0,141.0,200.0,125.0,1,2.068279504776001,None,,,,,0,0,0,0,0,49,49,35,178.56668043136597,,,,,,,,,,,,,,,,,,,,,,,,,,,,,,,,,,,,,,,,,,,,,,,,,,,,,,,,,,,,,,,,,,,,,,,,,,,,,,,,,,125.0,200.0,141.0,141.0,200.0,125.0,2.1,2.11,-266,253,0,275,229,-272,178.55307340621948,178.55315899848938,178.55599689483643,178.56668043136597,178.71326112747192,178.71326112747192,178.71326112747192,178.71326112747192,178.71326112747192,178.71326112747192,178.71326112747192,180.64895343780518,1,2.068279504776001,None,,,,,,,,,,,,,,,,,,85,4,2025-02-21_14h58.47.699,comp,2024.2.4,58.08376251362321,2025-02-21 14h59.00.644594 -0500,
50,50,0,critical,hwd,20.0,2.1,lower,133.0,57.0,57.0,133.0,78.0,78.0,3,3.4268903732299805,None,,,,,0,0,0,0,0,50,50,42,180.6647973060608,,,,,,,,,,,,,,,,,,,,,,,,,,,,,,,,,,,,,,,,,,,,,,,,,,,,,,,,,,,,,,,,,,,,,,,,,,,,,,,,,,133.0,57.0,57.0,133.0,78.0,78.0,2.1,2.11,-191,276,0,273,202,-267,180.65050673484802,180.65058612823486,180.65393328666687,180.6647973060608,180.81662774085999,180.81662774085999,180.81662774085999,180.81662774085999,180.81662774085999,180.81662774085999,180.81662774085999,184.10059070587158,3,3.4268903732299805,None,,,,,,,,,,,,,,,,,,85,4,2025-02-21_14h58.47.699,comp,2024.2.4,58.08376251362321,2025-02-21 14h59.00.644594 -0500,
51,51,0,filler_square,None,None,None,None,None,None,None,None,None,None,2,1.3187568187713623,None,,,,,0,0,0,0,0,51,51,197,184.1164689064026,,,,,,,,,,,,,,,,,,,,,,,,,,,,,,,,,,,,,,,,,,,,,,,,,,,,,,,,,,,,,,,,,,,,,,,,,,,,,,,,,,58.65880192177163,106.06267291224066,113.16514574183742,113.16514574183742,75.24013352775746,72.83577403034562,4.0,4.2,-206,-6,0,-269,189,-18,184.10239171981812,184.10247564315796,184.10578107833862,184.1164689064026,184.27084302902222,184.27084302902222,184.27084302902222,184.27084302902222,184.27084302902222,184.27084302902222,184.27084302902222,185.43767714500427,2,1.3187568187713623,None,,,,,,,,,,,,,,,,,,85,4,2025-02-21_14h58.47.699,comp,2024.2.4,58.08376251362321,2025-02-21 14h59.00.644594 -0500,
52,52,0,critical,wdh,20.0,1.0,lower,57.0,133.0,78.0,78.0,133.0,57.0,3,4.585692644119263,None,,,,,0,0,0,0,0,52,52,78,185.45807814598083,,,,,,,,,,,,,,,,,,,,,,,,,,,,,,,,,,,,,,,,,,,,,,,,,,,,,,,,,,,,,,,,,,,,,,,,,,,,,,,,,,57.0,133.0,78.0,78.0,133.0,57.0,1.0,1.2,-202,18,0,-10,164,-2,185.4392228126526,185.43930530548096,185.44261169433594,185.45807814598083,185.60238218307495,185.60238218307495,185.60238218307495,185.60238218307495,185.60238218307495,185.60238218307495,185.60238218307495,190.05130004882812,3,4.585692644119263,None,,,,,,,,,,,,,,,,,,85,4,2025-02-21_14h58.47.699,comp,2024.2.4,58.08376251362321,2025-02-21 14h59.00.644594 -0500,
53,53,0,critical,dwh,20.0,2.1,upper,141.0,141.0,125.0,200.0,200.0,125.0,3,3.550748109817505,None,,,,,0,0,0,0,0,53,53,31,190.0682623386383,,,,,,,,,,,,,,,,,,,,,,,,,,,,,,,,,,,,,,,,,,,,,,,,,,,,,,,,,,,,,,,,,,,,,,,,,,,,,,,,,,141.0,141.0,125.0,200.0,200.0,125.0,2.1,2.11,-266,281,0,275,258,-262,190.05292916297913,190.05301213264465,190.05649971961975,190.0682623386383,190.21874594688416,190.21874594688416,190.21874594688416,190.21874594688416,190.21874594688416,190.21874594688416,190.21874594688416,193.63525319099426,3,3.550748109817505,None,,,,,,,,,,,,,,,,,,85,4,2025-02-21_14h58.47.699,comp,2024.2.4,58.08376251362321,2025-02-21 14h59.00.644594 -0500,
54,54,0,critical,whd,35.0,2.1,upper,125.0,200.0,200.0,125.0,127.0,127.0,2,4.1924872398376465,None,,,,,0,0,0,0,0,54,54,13,193.65144085884094,,,,,,,,,,,,,,,,,,,,,,,,,,,,,,,,,,,,,,,,,,,,,,,,,,,,,,,,,,,,,,,,,,,,,,,,,,,,,,,,,,125.0,200.0,200.0,125.0,127.0,127.0,2.1,2.11,-258,284,0,259,222,-266,193.63686871528625,193.63695526123047,193.64025402069092,193.65144085884094,193.7916567325592,193.7916567325592,193.7916567325592,193.7916567325592,193.7916567325592,193.7916567325592,193.7916567325592,197.85588335990906,2,4.1924872398376465,None,,,,,,,,,,,,,,,,,,85,4,2025-02-21_14h58.47.699,comp,2024.2.4,58.08376251362321,2025-02-21 14h59.00.644594 -0500,
55,55,0,critical,hwd,35.0,1.0,lower,133.0,57.0,57.0,133.0,70.0,70.0,1,1.5800175666809082,None,,,,,0,0,0,0,0,55,55,96,197.87188148498535,,,,,,,,,,,,,,,,,,,,,,,,,,,,,,,,,,,,,,,,,,,,,,,,,,,,,,,,,,,,,,,,,,,,,,,,,,,,,,,,,,133.0,57.0,57.0,133.0,70.0,70.0,1.0,1.3,289,-261,480,-271,678,-277,197.85750913619995,197.85763716697693,197.86107730865479,197.87188148498535,198.02119612693787,198.02119612693787,198.02119612693787,198.02119612693787,198.02119612693787,198.02119612693787,198.02119612693787,199.45853662490845,1,1.5800175666809082,None,,,,,,,,,,,,,,,,,,85,4,2025-02-21_14h58.47.699,comp,2024.2.4,58.08376251362321,2025-02-21 14h59.00.644594 -0500,
56,56,0,critical,whd,35.0,2.1,lower,57.0,133.0,133.0,57.0,70.0,70.0,1,3.552881956100464,None,,,,,0,0,0,0,0,56,56,12,199.47497296333313,,,,,,,,,,,,,,,,,,,,,,,,,,,,,,,,,,,,,,,,,,,,,,,,,,,,,,,,,,,,,,,,,,,,,,,,,,,,,,,,,,57.0,133.0,133.0,57.0,70.0,70.0,2.1,2.12,-191,-270,0,-288,160,267,199.460510969162,199.46059370040894,199.4634394645691,199.47497296333313,199.62296843528748,199.62296843528748,199.62296843528748,199.62296843528748,199.62296843528748,199.62296843528748,199.62296843528748,203.03933835029602,1,3.552881956100464,None,,,,,,,,,,,,,,,,,,85,4,2025-02-21_14h58.47.699,comp,2024.2.4,58.08376251362321,2025-02-21 14h59.00.644594 -0500,
57,57,0,filler_square,None,None,None,None,None,None,None,None,None,None,1,1.8597335815429688,None,,,,,0,0,0,0,0,57,57,183,203.05579042434692,,,,,,,,,,,,,,,,,,,,,,,,,,,,,,,,,,,,,,,,,,,,,,,,,,,,,,,,,,,,,,,,,,,,,,,,,,,,,,,,,,173.65574812033242,173.65574812033242,161.31143659030073,60.94022606449679,171.85366550473663,158.83979159726817,1.0,1.2,-213,12,0,19,206,14,203.04104828834534,203.04113101959229,203.04432821273804,203.05579042434692,203.2032709121704,203.2032709121704,203.2032709121704,203.2032709121704,203.2032709121704,203.2032709121704,203.2032709121704,204.9209587574005,1,1.8597335815429688,None,,,,,,,,,,,,,,,,,,85,4,2025-02-21_14h58.47.699,comp,2024.2.4,58.08376251362321,2025-02-21 14h59.00.644594 -0500,
58,58,0,critical,hdw,20.0,4.0,lower,133.0,57.0,78.0,78.0,57.0,133.0,1,2.257941722869873,None,,,,,0,0,0,0,0,58,58,118,204.9371464252472,,,,,,,,,,,,,,,,,,,,,,,,,,,,,,,,,,,,,,,,,,,,,,,,,,,,,,,,,,,,,,,,,,,,,,,,,,,,,,,,,,133.0,57.0,78.0,78.0,57.0,133.0,4.0,4.2,-164,-16,0,-276,202,2,204.9224569797516,204.92254209518433,204.9254219532013,204.9371464252472,205.0787537097931,205.0787537097931,205.0787537097931,205.0787537097931,205.0787537097931,205.0787537097931,205.0787537097931,207.20648407936096,1,2.257941722869873,None,,,,,,,,,,,,,,,,,,85,4,2025-02-21_14h58.47.699,comp,2024.2.4,58.08376251362321,2025-02-21 14h59.00.644594 -0500,
59,59,0,critical,hdw,35.0,1.0,upper,200.0,125.0,127.0,127.0,125.0,200.0,1,1.3410654067993164,None,,,,,0,0,0,0,0,59,59,109,207.22295141220093,,,,,,,,,,,,,,,,,,,,,,,,,,,,,,,,,,,,,,,,,,,,,,,,,,,,,,,,,,,,,,,,,,,,,,,,,,,,,,,,,,200.0,125.0,127.0,127.0,125.0,200.0,1.0,1.1,-702,253,-480,275,-220,262,207.20806217193604,207.20814394950867,207.21115064620972,207.22295141220093,207.3739128112793,207.3739128112793,207.3739128112793,207.3739128112793,207.3739128112793,207.3739128112793,207.3739128112793,208.57521414756775,1,1.3410654067993164,None,,,,,,,,,,,,,,,,,,85,4,2025-02-21_14h58.47.699,comp,2024.2.4,58.08376251362321,2025-02-21 14h59.00.644594 -0500,
60,60,0,critical,hwd,35.0,2.1,upper,200.0,125.0,125.0,200.0,127.0,127.0,2,2.4376473426818848,None,,,,,0,0,0,0,0,60,60,41,208.5894660949707,,,,,,,,,,,,,,,,,,,,,,,,,,,,,,,,,,,,,,,,,,,,,,,,,,,,,,,,,,,,,,,,,,,,,,,,,,,,,,,,,,200.0,125.0,125.0,200.0,127.0,127.0,2.1,2.11,-258,259,0,266,260,-253,208.57671928405762,208.57681727409363,208.5800051689148,208.5894660949707,208.74241375923157,208.74241375923157,208.74241375923157,208.74241375923157,208.74241375923157,208.74241375923157,208.74241375923157,211.02908658981323,2,2.4376473426818848,None,,,,,,,,,,,,,,,,,,85,4,2025-02-21_14h58.47.699,comp,2024.2.4,58.08376251362321,2025-02-21 14h59.00.644594 -0500,
61,61,0,critical,dwh,20.0,3.0,upper,141.0,141.0,125.0,200.0,200.0,125.0,2,1.734034776687622,None,,,,,0,0,0,0,0,61,61,69,211.04510235786438,,,,,,,,,,,,,,,,,,,,,,,,,,,,,,,,,,,,,,,,,,,,,,,,,,,,,,,,,,,,,,,,,,,,,,,,,,,,,,,,,,141.0,141.0,125.0,200.0,200.0,125.0,3.0,3.2,-266,-254,0,8,258,250,211.03079414367676,211.03092980384827,211.03426480293274,211.04510235786438,211.1977937221527,211.1977937221527,211.1977937221527,211.1977937221527,211.1977937221527,211.1977937221527,211.1977937221527,212.79384326934814,2,1.734034776687622,None,,,,,,,,,,,,,,,,,,85,4,2025-02-21_14h58.47.699,comp,2024.2.4,58.08376251362321,2025-02-21 14h59.00.644594 -0500,
62,62,0,critical,whd,20.0,2.1,lower,57.0,133.0,133.0,57.0,78.0,78.0,2,2.292858600616455,None,,,,,0,0,0,0,0,62,62,38,212.8140938282013,,,,,,,,,,,,,,,,,,,,,,,,,,,,,,,,,,,,,,,,,,,,,,,,,,,,,,,,,,,,,,,,,,,,,,,,,,,,,,,,,,57.0,133.0,133.0,57.0,78.0,78.0,2.1,2.11,-191,269,0,251,164,-276,212.79529118537903,212.79537439346313,212.79840326309204,212.8140938282013,212.95944595336914,212.95944595336914,212.95944595336914,212.95944595336914,212.95944595336914,212.95944595336914,212.95944595336914,215.1190483570099,2,2.292858600616455,None,,,,,,,,,,,,,,,,,,85,4,2025-02-21_14h58.47.699,comp,2024.2.4,58.08376251362321,2025-02-21 14h59.00.644594 -0500,
63,63,0,critical,hwd,35.0,3.0,lower,133.0,57.0,57.0,133.0,70.0,70.0,1,1.7000055313110352,None,,,,,0,0,0,0,0,63,63,98,215.13507723808289,,,,,,,,,,,,,,,,,,,,,,,,,,,,,,,,,,,,,,,,,,,,,,,,,,,,,,,,,,,,,,,,,,,,,,,,,,,,,,,,,,133.0,57.0,57.0,133.0,70.0,70.0,3.0,3.2,-191,-271,0,0,198,287,215.12049531936646,215.1205768585205,215.1234061717987,215.13507723808289,215.27765679359436,215.27765679359436,215.27765679359436,215.27765679359436,215.27765679359436,215.27765679359436,215.27765679359436,216.83719158172607,1,1.7000055313110352,None,,,,,,,,,,,,,,,,,,85,4,2025-02-21_14h58.47.699,comp,2024.2.4,58.08376251362321,2025-02-21 14h59.00.644594 -0500,
64,64,0,filler_square,None,None,None,None,None,None,None,None,None,None,1,1.3164422512054443,None,,,,,0,0,0,0,0,64,64,191,216.85569643974304,,,,,,,,,,,,,,,,,,,,,,,,,,,,,,,,,,,,,,,,,,,,,,,,,,,,,,,,,,,,,,,,,,,,,,,,,,,,,,,,,,123.25783893610932,123.25783893610932,66.0597967081673,60.319195056207015,72.07276829239703,116.89118528035961,2.1,2.11,-188,255,0,287,185,-274,216.83920669555664,216.8392882347107,216.84242057800293,216.85569643974304,217.00036144256592,217.00036144256592,217.00036144256592,217.00036144256592,217.00036144256592,217.00036144256592,217.00036144256592,218.17810702323914,1,1.3164422512054443,None,,,,,,,,,,,,,,,,,,85,4,2025-02-21_14h58.47.699,comp,2024.2.4,58.08376251362321,2025-02-21 14h59.00.644594 -0500,
65,65,0,critical,hdw,20.0,2.1,lower,133.0,57.0,78.0,78.0,57.0,133.0,3,2.5683202743530273,None,,,,,0,0,0,0,0,65,65,22,218.19464349746704,,,,,,,,,,,,,,,,,,,,,,,,,,,,,,,,,,,,,,,,,,,,,,,,,,,,,,,,,,,,,,,,,,,,,,,,,,,,,,,,,,133.0,57.0,78.0,78.0,57.0,133.0,2.1,2.11,-164,262,0,268,202,-278,218.1797535419464,218.17985939979553,218.18390893936157,218.19464349746704,218.35229516029358,218.35229516029358,218.35229516029358,218.35229516029358,218.35229516029358,218.35229516029358,218.35229516029358,220.7783453464508,3,2.5683202743530273,None,,,,,,,,,,,,,,,,,,85,4,2025-02-21_14h58.47.699,comp,2024.2.4,58.08376251362321,2025-02-21 14h59.00.644594 -0500,
66,66,0,filler_random,None,None,None,None,None,None,None,None,None,None,3,1.4012904167175293,None,,,,,0,0,0,0,0,66,66,165,220.79373264312744,,,,,,,,,,,,,,,,,,,,,,,,,,,,,,,,,,,,,,,,,,,,,,,,,,,,,,,,,,,,,,,,,,,,,,,,,,,,,,,,,,183.4241280686801,115.8299226262278,61.71712459980988,190.34515899010933,120.12408354900066,188.88419688692233,2.1,2.12,-249,-277,0,-273,286,280,220.78005194664001,220.7801332473755,220.7834575176239,220.79373264312744,220.94528150558472,220.94528150558472,220.94528150558472,220.94528150558472,220.94528150558472,220.94528150558472,220.94528150558472,222.21177983283997,3,1.4012904167175293,None,,,,,,,,,,,,,,,,,,85,4,2025-02-21_14h58.47.699,comp,2024.2.4,58.08376251362321,2025-02-21 14h59.00.644594 -0500,
67,67,0,filler_square,None,None,None,None,None,None,None,None,None,None,1,1.1483738422393799,None,,,,,0,0,0,0,0,67,67,202,222.23064184188843,,,,,,,,,,,,,,,,,,,,,,,,,,,,,,,,,,,,,,,,,,,,,,,,,,,,,,,,,,,,,,,,,,,,,,,,,,,,,,,,,,178.10095102204752,178.10095102204752,81.05321877532039,84.36532645130984,96.47067821946885,137.63932212789777,1.0,1.2,-227,11,0,5,207,19,222.21372628211975,222.21381211280823,222.2169554233551,222.23064184188843,222.37979769706726,222.37979769706726,222.37979769706726,222.37979769706726,222.37979769706726,222.37979769706726,222.37979769706726,223.39707970619202,1,1.1483738422393799,None,,,,,,,,,,,,,,,,,,85,4,2025-02-21_14h58.47.699,comp,2024.2.4,58.08376251362321,2025-02-21 14h59.00.644594 -0500,
68,68,0,critical,dhw,20.0,4.0,lower,78.0,78.0,133.0,57.0,57.0,133.0,2,1.33408784866333,None,,,,,0,0,0,0,0,68,68,58,223.4129228591919,,,,,,,,,,,,,,,,,,,,,,,,,,,,,,,,,,,,,,,,,,,,,,,,,,,,,,,,,,,,,,,,,,,,,,,,,,,,,,,,,,78.0,78.0,133.0,57.0,57.0,133.0,4.0,4.1,-164,-263,0,5,191,-267,223.39876294136047,223.3989017009735,223.40234208106995,223.4129228591919,223.56391859054565,223.56391859054565,223.56391859054565,223.56391859054565,223.56391859054565,223.56391859054565,223.56391859054565,224.76215934753418,2,1.33408784866333,None,,,,,,,,,,,,,,,,,,85,4,2025-02-21_14h58.47.699,comp,2024.2.4,58.08376251362321,2025-02-21 14h59.00.644594 -0500,
69,69,0,critical,dwh,35.0,2.1,lower,70.0,70.0,57.0,133.0,133.0,57.0,3,2.745384693145752,None,,,,,0,0,0,0,0,69,69,28,224.7779576778412,,,,,,,,,,,,,,,,,,,,,,,,,,,,,,,,,,,,,,,,,,,,,,,,,,,,,,,,,,,,,,,,,,,,,,,,,,,,,,,,,,70.0,70.0,57.0,133.0,133.0,57.0,2.1,2.11,-198,269,0,253,191,-254,224.76363062858582,224.76372981071472,224.76672101020813,224.7779576778412,224.91676425933838,224.91676425933838,224.91676425933838,224.91676425933838,224.91676425933838,224.91676425933838,224.91676425933838,227.5314712524414,3,2.745384693145752,None,,,,,,,,,,,,,,,,,,85,4,2025-02-21_14h58.47.699,comp,2024.2.4,58.08376251362321,2025-02-21 14h59.00.644594 -0500,
70,70,0,critical,dwh,20.0,1.0,upper,141.0,141.0,125.0,200.0,200.0,125.0,3,1.0857672691345215,None,,,,,0,0,0,0,0,70,70,67,227.54953742027283,,,,,,,,,,,,,,,,,,,,,,,,,,,,,,,,,,,,,,,,,,,,,,,,,,,,,,,,,,,,,,,,,,,,,,,,,,,,,,,,,,141.0,141.0,125.0,200.0,200.0,125.0,1.0,1.1,-746,259,-480,274,-222,267,227.53304076194763,227.53312182426453,227.53637075424194,227.54953742027283,227.6962604522705,227.6962604522705,227.6962604522705,227.6962604522705,227.6962604522705,227.6962604522705,227.6962604522705,228.65237760543823,3,1.0857672691345215,None,,,,,,,,,,,,,,,,,,85,4,2025-02-21_14h58.47.699,comp,2024.2.4,58.08376251362321,2025-02-21 14h59.00.644594 -0500,
71,71,0,filler_square,None,None,None,None,None,None,None,None,None,None,3,2.1087136268615723,None,,,,,0,0,0,0,0,71,71,190,228.67032527923584,,,,,,,,,,,,,,,,,,,,,,,,,,,,,,,,,,,,,,,,,,,,,,,,,,,,,,,,,,,,,,,,,,,,,,,,,,,,,,,,,,60.745973982987145,85.85110546766228,88.46679341670188,60.07797331182209,93.63208465937785,93.63208465937785,3.0,3.2,-169,-279,0,-12,173,252,228.65433478355408,228.65441966056824,228.65753531455994,228.67032527923584,228.8149664402008,228.8149664402008,228.8149664402008,228.8149664402008,228.8149664402008,228.8149664402008,228.8149664402008,230.7830934524536,3,2.1087136268615723,None,,,,,,,,,,,,,,,,,,85,4,2025-02-21_14h58.47.699,comp,2024.2.4,58.08376251362321,2025-02-21 14h59.00.644594 -0500,
72,72,0,critical,dhw,20.0,3.0,lower,78.0,78.0,133.0,57.0,57.0,133.0,3,2.275846481323242,None,,,,,0,0,0,0,0,72,72,56,230.79921627044678,,,,,,,,,,,,,,,,,,,,,,,,,,,,,,,,,,,,,,,,,,,,,,,,,,,,,,,,,,,,,,,,,,,,,,,,,,,,,,,,,,78.0,78.0,133.0,57.0,57.0,133.0,3.0,3.1,-164,276,0,-9,191,-271,230.7847445011139,230.78482937812805,230.78828024864197,230.79921627044678,230.95361018180847,230.95361018180847,230.95361018180847,230.95361018180847,230.95361018180847,230.95361018180847,230.95361018180847,233.09319591522217,3,2.275846481323242,None,,,,,,,,,,,,,,,,,,85,4,2025-02-21_14h58.47.699,comp,2024.2.4,58.08376251362321,2025-02-21 14h59.00.644594 -0500,
73,73,0,critical,whd,35.0,3.0,upper,125.0,200.0,200.0,125.0,127.0,127.0,1,2.167078733444214,None,,,,,0,0,0,0,0,73,73,87,233.10987067222595,,,,,,,,,,,,,,,,,,,,,,,,,,,,,,,,,,,,,,,,,,,,,,,,,,,,,,,,,,,,,,,,,,,,,,,,,,,,,,,,,,125.0,200.0,200.0,125.0,127.0,127.0,3.0,3.2,-258,-284,0,17,222,266,233.09458470344543,233.09466361999512,233.0974383354187,233.10987067222595,233.2504756450653,233.2504756450653,233.2504756450653,233.2504756450653,233.2504756450653,233.2504756450653,233.2504756450653,235.28221011161804,1,2.167078733444214,None,,,,,,,,,,,,,,,,,,85,4,2025-02-21_14h58.47.699,comp,2024.2.4,58.08376251362321,2025-02-21 14h59.00.644594 -0500,
74,74,0,critical,hdw,35.0,2.1,lower,133.0,57.0,70.0,70.0,57.0,133.0,3,5.719737768173218,None,,,,,0,0,0,0,0,74,74,20,235.30011820793152,,,,,,,,,,,,,,,,,,,,,,,,,,,,,,,,,,,,,,,,,,,,,,,,,,,,,,,,,,,,,,,,,,,,,,,,,,,,,,,,,,133.0,57.0,70.0,70.0,57.0,133.0,2.1,2.12,-160,-272,0,-284,198,261,235.28371381759644,235.28379797935486,235.28687500953674,235.30011820793152,235.45047211647034,235.45047211647034,235.45047211647034,235.45047211647034,235.45047211647034,235.45047211647034,235.45047211647034,241.02503871917725,3,5.719737768173218,None,,,,,,,,,,,,,,,,,,85,4,2025-02-21_14h58.47.699,comp,2024.2.4,58.08376251362321,2025-02-21 14h59.00.644594 -0500,
75,75,0,critical,hwd,35.0,2.1,upper,200.0,125.0,125.0,200.0,127.0,127.0,2,1.0110111236572266,None,,,,,0,0,0,0,0,75,75,17,241.0401108264923,,,,,,,,,,,,,,,,,,,,,,,,,,,,,,,,,,,,,,,,,,,,,,,,,,,,,,,,,,,,,,,,,,,,,,,,,,,,,,,,,,200.0,125.0,125.0,200.0,127.0,127.0,2.1,2.11,-258,288,0,284,260,-268,241.0265109539032,241.02659368515015,241.02938032150269,241.0401108264923,241.18334293365479,241.18334293365479,241.18334293365479,241.18334293365479,241.18334293365479,241.18334293365479,241.18334293365479,242.06784558296204,2,1.0110111236572266,None,,,,,,,,,,,,,,,,,,85,4,2025-02-21_14h58.47.699,comp,2024.2.4,58.08376251362321,2025-02-21 14h59.00.644594 -0500,
76,76,0,filler_random,None,None,None,None,None,None,None,None,None,None,3,1.1243503093719482,None,,,,,0,0,0,0,0,76,76,166,242.08691430091858,,,,,,,,,,,,,,,,,,,,,,,,,,,,,,,,,,,,,,,,,,,,,,,,,,,,,,,,,,,,,,,,,,,,,,,,,,,,,,,,,,69.90169676173552,165.8990436461914,116.97876644722308,79.69830258951316,143.70243270182007,159.49729715320984,4.0,4.1,-219,-258,0,-17,216,-261,242.06942439079285,242.06950330734253,242.07229042053223,242.08691430091858,242.2353594303131,242.2353594303131,242.2353594303131,242.2353594303131,242.2353594303131,242.2353594303131,242.2353594303131,243.2155830860138,3,1.1243503093719482,None,,,,,,,,,,,,,,,,,,85,4,2025-02-21_14h58.47.699,comp,2024.2.4,58.08376251362321,2025-02-21 14h59.00.644594 -0500,
77,77,0,filler_square,None,None,None,None,None,None,None,None,None,None,1,1.6952710151672363,None,,,,,0,0,0,0,0,77,77,177,243.23609137535095,,,,,,,,,,,,,,,,,,,,,,,,,,,,,,,,,,,,,,,,,,,,,,,,,,,,,,,,,,,,,,,,,,,,,,,,,,,,,,,,,,82.24422000819379,68.8001325903843,71.28009255114482,80.14547977202533,86.08007602107872,86.08007602107872,3.0,3.2,-170,-274,0,-4,179,272,243.2174367904663,243.217520236969,243.22034072875977,243.23609137535095,243.3690700531006,243.3690700531006,243.3690700531006,243.3690700531006,243.3690700531006,243.3690700531006,243.3690700531006,244.93328976631165,1,1.6952710151672363,None,,,,,,,,,,,,,,,,,,85,4,2025-02-21_14h58.47.699,comp,2024.2.4,58.08376251362321,2025-02-21 14h59.00.644594 -0500,
78,78,0,filler_random,None,None,None,None,None,None,None,None,None,None,1,1.7726898193359375,None,,,,,0,0,0,0,0,78,78,130,244.9505615234375,,,,,,,,,,,,,,,,,,,,,,,,,,,,,,,,,,,,,,,,,,,,,,,,,,,,,,,,,,,,,,,,,,,,,,,,,,,,,,,,,,171.44695237092336,118.70024248158553,171.71893563835442,61.651678643749065,117.61110975580658,122.55699562497045,2.1,2.12,-186,-259,0,-258,188,276,244.93517065048218,244.9353096485138,244.93845677375793,244.9505615234375,245.0886824131012,245.0886824131012,245.0886824131012,245.0886824131012,245.0886824131012,245.0886824131012,245.0886824131012,246.73406529426575,1,1.7726898193359375,None,,,,,,,,,,,,,,,,,,85,4,2025-02-21_14h58.47.699,comp,2024.2.4,58.08376251362321,2025-02-21 14h59.00.644594 -0500,
79,79,0,critical,dwh,20.0,2.1,lower,78.0,78.0,57.0,133.0,133.0,57.0,3,2.764594078063965,None,,,,,0,0,0,0,0,79,79,6,246.75069522857666,,,,,,,,,,,,,,,,,,,,,,,,,,,,,,,,,,,,,,,,,,,,,,,,,,,,,,,,,,,,,,,,,,,,,,,,,,,,,,,,,,78.0,78.0,57.0,133.0,133.0,57.0,2.1,2.12,-202,-255,0,-289,191,262,246.73557925224304,246.7356595993042,246.73845505714417,246.75069522857666,246.88650369644165,246.88650369644165,246.88650369644165,246.88650369644165,246.88650369644165,246.88650369644165,246.88650369644165,249.53124332427979,3,2.764594078063965,None,,,,,,,,,,,,,,,,,,85,4,2025-02-21_14h58.47.699,comp,2024.2.4,58.08376251362321,2025-02-21 14h59.00.644594 -0500,
80,80,0,critical,hwd,35.0,1.0,upper,200.0,125.0,125.0,200.0,127.0,127.0,1,1.2568776607513428,None,,,,,0,0,0,0,0,80,80,97,249.5468201637268,,,,,,,,,,,,,,,,,,,,,,,,,,,,,,,,,,,,,,,,,,,,,,,,,,,,,,,,,,,,,,,,,,,,,,,,,,,,,,,,,,200.0,125.0,125.0,200.0,127.0,127.0,1.0,1.3,222,-264,480,-289,740,-275,249.53272008895874,249.53280425071716,249.53557991981506,249.5468201637268,249.6863625049591,249.6863625049591,249.6863625049591,249.6863625049591,249.6863625049591,249.6863625049591,249.6863625049591,250.81282496452332,1,1.2568776607513428,None,,,,,,,,,,,,,,,,,,85,4,2025-02-21_14h58.47.699,comp,2024.2.4,58.08376251362321,2025-02-21 14h59.00.644594 -0500,
81,81,0,critical,hdw,35.0,3.0,lower,133.0,57.0,70.0,70.0,57.0,133.0,3,1.417076587677002,None,,,,,0,0,0,0,0,81,81,110,250.82779455184937,,,,,,,,,,,,,,,,,,,,,,,,,,,,,,,,,,,,,,,,,,,,,,,,,,,,,,,,,,,,,,,,,,,,,,,,,,,,,,,,,,133.0,57.0,70.0,70.0,57.0,133.0,3.0,3.2,-160,-276,0,-17,198,257,250.814270734787,250.81435298919678,250.81715202331543,250.82779455184937,250.97768306732178,250.97768306732178,250.97768306732178,250.97768306732178,250.97768306732178,250.97768306732178,250.97768306732178,252.25545239448547,3,1.417076587677002,None,,,,,,,,,,,,,,,,,,85,4,2025-02-21_14h58.47.699,comp,2024.2.4,58.08376251362321,2025-02-21 14h59.00.644594 -0500,
82,82,0,catch,None,None,None,None,None,None,None,None,None,None,1,1.1247663497924805,None,,,,,0,0,0,0,0,82,82,123,252.27156949043274,,,,,,,,,,,,,,,,,,,,,,,,,,,,,,,,,,,,,,,,,,,,,,,,,,,,,,,,,,,,,,,,,,,,,,,,,,,,,,,,,,143,182,112,78,106,84,3.0,3.1,-226,289,0,10,177,-258,252.25739240646362,252.2574770450592,252.26084208488464,252.27156949043274,252.42008805274963,252.42008805274963,252.42008805274963,252.42008805274963,252.42008805274963,252.42008805274963,252.42008805274963,253.40644598007202,1,1.1247663497924805,None,,,,,,,,,,,,,,,,,,85,4,2025-02-21_14h58.47.699,comp,2024.2.4,58.08376251362321,2025-02-21 14h59.00.644594 -0500,
83,83,0,catch,None,None,None,None,None,None,None,None,None,None,1,1.156526803970337,None,,,,,0,0,0,0,0,83,83,126,253.42323637008667,,,,,,,,,,,,,,,,,,,,,,,,,,,,,,,,,,,,,,,,,,,,,,,,,,,,,,,,,,,,,,,,,,,,,,,,,,,,,,,,,,166,159,87,103,79,111,2.2,2.21,-227,-279,0,287,203,263,253.4085648059845,253.40873527526855,253.41254663467407,253.42323637008667,253.56107664108276,253.56107664108276,253.56107664108276,253.56107664108276,253.56107664108276,253.56107664108276,253.56107664108276,254.58828687667847,1,1.156526803970337,None,,,,,,,,,,,,,,,,,,85,4,2025-02-21_14h58.47.699,comp,2024.2.4,58.08376251362321,2025-02-21 14h59.00.644594 -0500,
84,84,0,critical,whd,20.0,4.0,upper,125.0,200.0,200.0,125.0,141.0,141.0,1,3.0680227279663086,None,,,,,0,0,0,0,0,84,84,95,254.60792541503906,,,,,,,,,,,,,,,,,,,,,,,,,,,,,,,,,,,,,,,,,,,,,,,,,,,,,,,,,,,,,,,,,,,,,,,,,,,,,,,,,,125.0,200.0,200.0,125.0,141.0,141.0,4.0,4.1,-258,-275,0,-2,229,-282,254.58979988098145,254.58988237380981,254.593341588974,254.60792541503906,254.75600910186768,254.75600910186768,254.75600910186768,254.75600910186768,254.75600910186768,254.75600910186768,254.75600910186768,257.6824221611023,1,3.0680227279663086,None,,,,,,,,,,,,,,,,,,85,4,2025-02-21_14h58.47.699,comp,2024.2.4,58.08376251362321,2025-02-21 14h59.00.644594 -0500,
85,85,0,critical,dwh,20.0,2.1,lower,78.0,78.0,57.0,133.0,133.0,57.0,2,2.6894192695617676,None,,,,,0,0,0,0,0,85,85,30,257.6983540058136,,,,,,,,,,,,,,,,,,,,,,,,,,,,,,,,,,,,,,,,,,,,,,,,,,,,,,,,,,,,,,,,,,,,,,,,,,,,,,,,,,78.0,78.0,57.0,133.0,133.0,57.0,2.1,2.12,-202,-250,0,-275,191,287,257.6840305328369,257.68411326408386,257.68740606307983,257.6983540058136,257.8406126499176,257.8406126499176,257.8406126499176,257.8406126499176,257.8406126499176,257.8406126499176,257.8406126499176,260.390656709671,2,2.6894192695617676,None,,,,,,,,,,,,,,,,,,85,4,2025-02-21_14h58.47.699,comp,2024.2.4,58.08376251362321,2025-02-21 14h59.00.644594 -0500,
86,86,0,critical,dhw,35.0,4.0,upper,127.0,127.0,200.0,125.0,125.0,200.0,2,2.5482981204986572,None,,,,,0,0,0,0,0,86,86,53,260.40713834762573,,,,,,,,,,,,,,,,,,,,,,,,,,,,,,,,,,,,,,,,,,,,,,,,,,,,,,,,,,,,,,,,,,,,,,,,,,,,,,,,,,127.0,127.0,200.0,125.0,125.0,200.0,4.0,4.2,-222,-18,0,-279,258,11,260.3923923969269,260.3924753665924,260.3959929943085,260.40713834762573,260.56054520606995,260.56054520606995,260.56054520606995,260.56054520606995,260.56054520606995,260.56054520606995,260.56054520606995,262.95981335639954,2,2.5482981204986572,None,,,,,,,,,,,,,,,,,,85,4,2025-02-21_14h58.47.699,comp,2024.2.4,58.08376251362321,2025-02-21 14h59.00.644594 -0500,
87,87,0,critical,dwh,35.0,3.0,lower,70.0,70.0,57.0,133.0,133.0,57.0,2,1.9454119205474854,None,,,,,0,0,0,0,0,87,87,62,262.97767663002014,,,,,,,,,,,,,,,,,,,,,,,,,,,,,,,,,,,,,,,,,,,,,,,,,,,,,,,,,,,,,,,,,,,,,,,,,,,,,,,,,,70.0,70.0,57.0,133.0,133.0,57.0,3.0,3.2,-198,-259,0,-12,191,266,262.9613285064697,262.9614591598511,262.9643745422363,262.97767663002014,263.1238811016083,263.1238811016083,263.1238811016083,263.1238811016083,263.1238811016083,263.1238811016083,263.1238811016083,264.9410021305084,2,1.9454119205474854,None,,,,,,,,,,,,,,,,,,85,4,2025-02-21_14h58.47.699,comp,2024.2.4,58.08376251362321,2025-02-21 14h59.00.644594 -0500,
88,88,0,critical,wdh,20.0,3.0,upper,125.0,200.0,141.0,141.0,200.0,125.0,1,1.3669171333312988,None,,,,,0,0,0,0,0,88,88,81,264.9567458629608,,,,,,,,,,,,,,,,,,,,,,,,,,,,,,,,,,,,,,,,,,,,,,,,,,,,,,,,,,,,,,,,,,,,,,,,,,,,,,,,,,125.0,200.0,141.0,141.0,200.0,125.0,3.0,3.2,-266,-269,0,6,229,273,264.9424412250519,264.94252157211304,264.9453728199005,264.9567458629608,265.10923314094543,265.10923314094543,265.10923314094543,265.10923314094543,265.10923314094543,265.10923314094543,265.10923314094543,266.32772493362427,1,1.3669171333312988,None,,,,,,,,,,,,,,,,,,85,4,2025-02-21_14h58.47.699,comp,2024.2.4,58.08376251362321,2025-02-21 14h59.00.644594 -0500,
89,89,0,catch,None,None,None,None,None,None,None,None,None,None,1,1.1229352951049805,None,,,,,0,0,0,0,0,89,89,125,266.3442585468292,,,,,,,,,,,,,,,,,,,,,,,,,,,,,,,,,,,,,,,,,,,,,,,,,,,,,,,,,,,,,,,,,,,,,,,,,,,,,,,,,,185,140,128,62,65,125,3.0,3.2,-197,-251,0,16,190,278,266.3298645019531,266.32995319366455,266.3333237171173,266.3442585468292,266.49551248550415,266.49551248550415,266.49551248550415,266.49551248550415,266.49551248550415,266.49551248550415,266.49551248550415,267.47930932044983,1,1.1229352951049805,None,,,,,,,,,,,,,,,,,,85,4,2025-02-21_14h58.47.699,comp,2024.2.4,58.08376251362321,2025-02-21 14h59.00.644594 -0500,
90,90,0,filler_random,None,None,None,None,None,None,None,None,None,None,1,2.11338472366333,None,,,,,0,0,0,0,0,90,90,162,267.4978218078613,,,,,,,,,,,,,,,,,,,,,,,,,,,,,,,,,,,,,,,,,,,,,,,,,,,,,,,,,,,,,,,,,,,,,,,,,,,,,,,,,,197.15229235735373,120.4633866064058,163.74880093221287,68.56784625636065,122.47164363767115,57.73335055496744,2.2,2.21,-191,-275,0,264,159,281,267.48137855529785,267.48146390914917,267.48464035987854,267.4978218078613,267.6434016227722,267.6434016227722,267.6434016227722,267.6434016227722,267.6434016227722,267.6434016227722,267.6434016227722,269.6269509792328,1,2.11338472366333,None,,,,,,,,,,,,,,,,,,85,4,2025-02-21_14h58.47.699,comp,2024.2.4,58.08376251362321,2025-02-21 14h59.00.644594 -0500,
91,91,0,critical,hdw,35.0,2.1,upper,200.0,125.0,127.0,127.0,125.0,200.0,3,3.8731579780578613,None,,,,,0,0,0,0,0,91,91,21,269.6421663761139,,,,,,,,,,,,,,,,,,,,,,,,,,,,,,,,,,,,,,,,,,,,,,,,,,,,,,,,,,,,,,,,,,,,,,,,,,,,,,,,,,200.0,125.0,127.0,127.0,125.0,200.0,2.1,2.11,-222,289,0,254,260,-250,269.62845945358276,269.6285402774811,269.63184118270874,269.6421663761139,269.7907211780548,269.7907211780548,269.7907211780548,269.7907211780548,269.7907211780548,269.7907211780548,269.7907211780548,273.5285482406616,3,3.8731579780578613,None,,,,,,,,,,,,,,,,,,85,4,2025-02-21_14h58.47.699,comp,2024.2.4,58.08376251362321,2025-02-21 14h59.00.644594 -0500,
92,92,0,critical,hdw,20.0,2.1,upper,200.0,125.0,141.0,141.0,125.0,200.0,1,2.3082423210144043,None,,,,,0,0,0,0,0,92,92,47,273.5436372756958,,,,,,,,,,,,,,,,,,,,,,,,,,,,,,,,,,,,,,,,,,,,,,,,,,,,,,,,,,,,,,,,,,,,,,,,,,,,,,,,,,200.0,125.0,141.0,141.0,125.0,200.0,2.1,2.11,-229,274,0,253,266,-287,273.5300235748291,273.5301032066345,273.5333642959595,273.5436372756958,273.6938421726227,273.6938421726227,273.6938421726227,273.6938421726227,273.6938421726227,273.6938421726227,273.6938421726227,275.86262798309326,1,2.3082423210144043,None,,,,,,,,,,,,,,,,,,85,4,2025-02-21_14h58.47.699,comp,2024.2.4,58.08376251362321,2025-02-21 14h59.00.644594 -0500,
93,93,0,filler_square,None,None,None,None,None,None,None,None,None,None,2,1.6359190940856934,None,,,,,0,0,0,0,0,93,93,201,275.8792552947998,,,,,,,,,,,,,,,,,,,,,,,,,,,,,,,,,,,,,,,,,,,,,,,,,,,,,,,,,,,,,,,,,,,,,,,,,,,,,,,,,,81.62211478890698,134.83688408499955,149.79895556566157,149.79895556566157,83.18448074165218,118.82268425528775,4.0,4.2,-238,4,0,-287,230,2,275.86441826820374,275.8645009994507,275.86851596832275,275.8792552947998,276.0303792953491,276.0303792953491,276.0303792953491,276.0303792953491,276.0303792953491,276.0303792953491,276.0303792953491,277.528324842453,2,1.6359190940856934,None,,,,,,,,,,,,,,,,,,85,4,2025-02-21_14h58.47.699,comp,2024.2.4,58.08376251362321,2025-02-21 14h59.00.644594 -0500,
94,94,0,critical,dhw,20.0,2.1,upper,141.0,141.0,200.0,125.0,125.0,200.0,2,2.4029219150543213,None,,,,,0,0,0,0,0,94,94,27,277.5442564487457,,,,,,,,,,,,,,,,,,,,,,,,,,,,,,,,,,,,,,,,,,,,,,,,,,,,,,,,,,,,,,,,,,,,,,,,,,,,,,,,,,141.0,141.0,200.0,125.0,125.0,200.0,2.1,2.12,-229,-258,0,-274,258,278,277.5298011302948,277.52987909317017,277.5329329967499,277.5442564487457,277.6936731338501,277.6936731338501,277.6936731338501,277.6936731338501,277.6936731338501,277.6936731338501,277.6936731338501,279.9633412361145,2,2.4029219150543213,None,,,,,,,,,,,,,,,,,,85,4,2025-02-21_14h58.47.699,comp,2024.2.4,58.08376251362321,2025-02-21 14h59.00.644594 -0500,
95,95,0,critical,dhw,35.0,1.0,lower,70.0,70.0,133.0,57.0,57.0,133.0,2,2.3043298721313477,None,,,,,0,0,0,0,0,95,95,48,279.9789779186249,,,,,,,,,,,,,,,,,,,,,,,,,,,,,,,,,,,,,,,,,,,,,,,,,,,,,,,,,,,,,,,,,,,,,,,,,,,,,,,,,,70.0,70.0,133.0,57.0,57.0,133.0,1.0,1.1,-640,265,-480,250,-289,253,279.9648230075836,279.9649031162262,279.96804547309875,279.9789779186249,280.12709879875183,280.12709879875183,280.12709879875183,280.12709879875183,280.12709879875183,280.12709879875183,280.12709879875183,282.2979304790497,2,2.3043298721313477,None,,,,,,,,,,,,,,,,,,85,4,2025-02-21_14h58.47.699,comp,2024.2.4,58.08376251362321,2025-02-21 14h59.00.644594 -0500,
96,96,0,critical,whd,35.0,1.0,lower,57.0,133.0,133.0,57.0,70.0,70.0,1,3.14555287361145,None,,,,,0,0,0,0,0,96,96,84,282.31399369239807,,,,,,,,,,,,,,,,,,,,,,,,,,,,,,,,,,,,,,,,,,,,,,,,,,,,,,,,,,,,,,,,,,,,,,,,,,,,,,,,,,57.0,133.0,133.0,57.0,70.0,70.0,1.0,1.3,289,-284,480,-282,640,-261,282.29954290390015,282.29962635040283,282.30366945266724,282.31399369239807,282.46235632896423,282.46235632896423,282.46235632896423,282.46235632896423,282.46235632896423,282.46235632896423,282.46235632896423,285.46437668800354,1,3.14555287361145,None,,,,,,,,,,,,,,,,,,85,4,2025-02-21_14h58.47.699,comp,2024.2.4,58.08376251362321,2025-02-21 14h59.00.644594 -0500,
97,97,0,critical,hdw,20.0,4.0,upper,200.0,125.0,141.0,141.0,125.0,200.0,1,1.5456840991973877,None,,,,,0,0,0,0,0,97,97,119,285.4823360443115,,,,,,,,,,,,,,,,,,,,,,,,,,,,,,,,,,,,,,,,,,,,,,,,,,,,,,,,,,,,,,,,,,,,,,,,,,,,,,,,,,200.0,125.0,141.0,141.0,125.0,200.0,4.0,4.1,-229,-250,0,-3,266,-269,285.4659790992737,285.46606040000916,285.4692552089691,285.4823360443115,285.6375741958618,285.6375741958618,285.6375741958618,285.6375741958618,285.6375741958618,285.6375741958618,285.6375741958618,287.03495168685913,1,1.5456840991973877,None,,,,,,,,,,,,,,,,,,85,4,2025-02-21_14h58.47.699,comp,2024.2.4,58.08376251362321,2025-02-21 14h59.00.644594 -0500,
98,98,0,critical,hdw,20.0,2.1,upper,200.0,125.0,141.0,141.0,125.0,200.0,1,3.2558863162994385,None,,,,,0,0,0,0,0,98,98,23,287.05128288269043,,,,,,,,,,,,,,,,,,,,,,,,,,,,,,,,,,,,,,,,,,,,,,,,,,,,,,,,,,,,,,,,,,,,,,,,,,,,,,,,,,200.0,125.0,141.0,141.0,125.0,200.0,2.1,2.12,-229,-258,0,-274,266,281,287.03661346435547,287.0367262363434,287.03971219062805,287.05128288269043,287.1996283531189,287.1996283531189,287.1996283531189,287.1996283531189,287.1996283531189,287.1996283531189,287.1996283531189,290.32424092292786,1,3.2558863162994385,None,,,,,,,,,,,,,,,,,,85,4,2025-02-21_14h58.47.699,comp,2024.2.4,58.08376251362321,2025-02-21 14h59.00.644594 -0500,
99,99,0,critical,whd,20.0,3.0,upper,125.0,200.0,200.0,125.0,141.0,141.0,2,3.9178714752197266,None,,,,,0,0,0,0,0,99,99,93,290.3412344455719,,,,,,,,,,,,,,,,,,,,,,,,,,,,,,,,,,,,,,,,,,,,,,,,,,,,,,,,,,,,,,,,,,,,,,,,,,,,,,,,,,125.0,200.0,200.0,125.0,141.0,141.0,3.0,3.1,-258,259,0,-13,229,-252,290.32576274871826,290.3258419036865,290.3285942077637,290.3412344455719,290.4844000339508,290.4844000339508,290.4844000339508,290.4844000339508,290.4844000339508,290.4844000339508,290.4844000339508,294.2784740924835,2,3.9178714752197266,None,,,,,,,,,,,,,,,,,,85,4,2025-02-21_14h58.47.699,comp,2024.2.4,58.08376251362321,2025-02-21 14h59.00.644594 -0500,
100,100,0,critical,hwd,20.0,2.1,upper,200.0,125.0,125.0,200.0,141.0,141.0,2,7.355959415435791,None,,,,,0,0,0,0,0,100,100,43,294.29583263397217,,,,,,,,,,,,,,,,,,,,,,,,,,,,,,,,,,,,,,,,,,,,,,,,,,,,,,,,,,,,,,,,,,,,,,,,,,,,,,,,,,200.0,125.0,125.0,200.0,141.0,141.0,2.1,2.11,-258,271,0,286,266,-273,294.28006529808044,294.2801456451416,294.28332448005676,294.29583263397217,294.43514752388,294.43514752388,294.43514752388,294.43514752388,294.43514752388,294.43514752388,294.43514752388,301.6598038673401,2,7.355959415435791,None,,,,,,,,,,,,,,,,,,85,4,2025-02-21_14h58.47.699,comp,2024.2.4,58.08376251362321,2025-02-21 14h59.00.644594 -0500,
101,101,0,filler_square,None,None,None,None,None,None,None,None,None,None,1,1.1962599754333496,None,,,,,0,0,0,0,0,101,101,200,301.6808671951294,,,,,,,,,,,,,,,,,,,,,,,,,,,,,,,,,,,,,,,,,,,,,,,,,,,,,,,,,,,,,,,,,,,,,,,,,,,,,,,,,,184.83159670587054,184.83159670587054,167.0920605830131,144.56901064086358,74.67243309450126,173.23464191354935,1.0,1.3,219,-280,480,-269,735,-257,301.6617603302002,301.66184639930725,301.66495060920715,301.6808671951294,301.82062554359436,301.82062554359436,301.82062554359436,301.82062554359436,301.82062554359436,301.82062554359436,301.82062554359436,302.8879346847534,1,1.1962599754333496,None,,,,,,,,,,,,,,,,,,85,4,2025-02-21_14h58.47.699,comp,2024.2.4,58.08376251362321,2025-02-21 14h59.00.644594 -0500,
102,102,0,filler_square,None,None,None,None,None,None,None,None,None,None,3,1.19588041305542,None,,,,,0,0,0,0,0,102,102,193,302.9036817550659,,,,,,,,,,,,,,,,,,,,,,,,,,,,,,,,,,,,,,,,,,,,,,,,,,,,,,,,,,,,,,,,,,,,,,,,,,,,,,,,,,166.87458354891658,122.7336935024522,117.78445559644707,193.61697048459516,196.77664892255828,196.77664892255828,4.0,4.2,-254,-7,0,-272,291,2,302.88967967033386,302.88978457450867,302.89307975769043,302.9036817550659,303.05501914024353,303.05501914024353,303.05501914024353,303.05501914024353,303.05501914024353,303.05501914024353,303.05501914024353,304.1024401187897,3,1.19588041305542,None,,,,,,,,,,,,,,,,,,85,4,2025-02-21_14h58.47.699,comp,2024.2.4,58.08376251362321,2025-02-21 14h59.00.644594 -0500,
103,103,0,critical,wdh,35.0,2.1,lower,57.0,133.0,70.0,70.0,133.0,57.0,3,1.7566323280334473,None,,,,,0,0,0,0,0,103,103,8,304.11929392814636,,,,,,,,,,,,,,,,,,,,,,,,,,,,,,,,,,,,,,,,,,,,,,,,,,,,,,,,,,,,,,,,,,,,,,,,,,,,,,,,,,57.0,133.0,70.0,70.0,133.0,57.0,2.1,2.12,-198,-287,0,-288,160,265,304.1041028499603,304.10420656204224,304.10740089416504,304.11929392814636,304.27141404151917,304.27141404151917,304.27141404151917,304.27141404151917,304.27141404151917,304.27141404151917,304.27141404151917,305.88793301582336,3,1.7566323280334473,None,,,,,,,,,,,,,,,,,,85,4,2025-02-21_14h58.47.699,comp,2024.2.4,58.08376251362321,2025-02-21 14h59.00.644594 -0500,
104,104,0,critical,dhw,20.0,2.1,lower,78.0,78.0,133.0,57.0,57.0,133.0,3,1.5603256225585938,None,,,,,0,0,0,0,0,104,104,2,305.90723299980164,,,,,,,,,,,,,,,,,,,,,,,,,,,,,,,,,,,,,,,,,,,,,,,,,,,,,,,,,,,,,,,,,,,,,,,,,,,,,,,,,,78.0,78.0,133.0,57.0,57.0,133.0,2.1,2.11,-164,264,0,251,191,-287,305.88942408561707,305.8895049095154,305.8924822807312,305.90723299980164,306.0553481578827,306.0553481578827,306.0553481578827,306.0553481578827,306.0553481578827,306.0553481578827,306.0553481578827,307.4707758426666,3,1.5603256225585938,None,,,,,,,,,,,,,,,,,,85,4,2025-02-21_14h58.47.699,comp,2024.2.4,58.08376251362321,2025-02-21 14h59.00.644594 -0500,
105,105,0,filler_square,None,None,None,None,None,None,None,None,None,None,1,1.355694055557251,None,,,,,0,0,0,0,0,105,105,208,307.4874336719513,,,,,,,,,,,,,,,,,,,,,,,,,,,,,,,,,,,,,,,,,,,,,,,,,,,,,,,,,,,,,,,,,,,,,,,,,,,,,,,,,,154.37467482407507,154.37467482407507,145.11926194562122,108.35707309392664,100.14815853644303,95.30130149307021,2.1,2.11,-227,261,0,277,198,-271,307.4725649356842,307.47264790534973,307.4756190776825,307.4874336719513,307.64281821250916,307.64281821250916,307.64281821250916,307.64281821250916,307.64281821250916,307.64281821250916,307.64281821250916,308.85833072662354,1,1.355694055557251,None,,,,,,,,,,,,,,,,,,85,4,2025-02-21_14h58.47.699,comp,2024.2.4,58.08376251362321,2025-02-21 14h59.00.644594 -0500,
106,106,0,critical,dwh,35.0,1.0,upper,127.0,127.0,125.0,200.0,200.0,125.0,3,1.5998544692993164,None,,,,,0,0,0,0,0,106,106,61,308.8753488063812,,,,,,,,,,,,,,,,,,,,,,,,,,,,,,,,,,,,,,,,,,,,,,,,,,,,,,,,,,,,,,,,,,,,,,,,,,,,,,,,,,127.0,127.0,125.0,200.0,200.0,125.0,1.0,1.1,-740,260,-480,269,-222,287,308.85993695259094,308.8600170612335,308.8629434108734,308.8753488063812,309.0234179496765,309.0234179496765,309.0234179496765,309.0234179496765,309.0234179496765,309.0234179496765,309.0234179496765,310.4889614582062,3,1.5998544692993164,None,,,,,,,,,,,,,,,,,,85,4,2025-02-21_14h58.47.699,comp,2024.2.4,58.08376251362321,2025-02-21 14h59.00.644594 -0500,
107,107,0,critical,hwd,20.0,2.1,upper,200.0,125.0,125.0,200.0,141.0,141.0,1,10.921947240829468,None,,,,,0,0,0,0,0,107,107,19,310.5053901672363,,,,,,,,,,,,,,,,,,,,,,,,,,,,,,,,,,,,,,,,,,,,,,,,,,,,,,,,,,,,,,,,,,,,,,,,,,,,,,,,,,200.0,125.0,125.0,200.0,141.0,141.0,2.1,2.11,-258,272,0,256,266,-272,310.4905228614807,310.49060320854187,310.4941055774689,310.5053901672363,310.6429307460785,310.6429307460785,310.6429307460785,310.6429307460785,310.6429307460785,310.6429307460785,310.6429307460785,321.44393610954285,1,10.921947240829468,None,,,,,,,,,,,,,,,,,,85,4,2025-02-21_14h58.47.699,comp,2024.2.4,58.08376251362321,2025-02-21 14h59.00.644594 -0500,
108,108,0,filler_random,None,None,None,None,None,None,None,None,None,None,2,1.1113405227661133,None,,,,,0,0,0,0,0,108,108,159,321.4599380493164,,,,,,,,,,,,,,,,,,,,,,,,,,,,,,,,,,,,,,,,,,,,,,,,,,,,,,,,,,,,,,,,,,,,,,,,,,,,,,,,,,135.4843800906782,173.03671265521905,185.06505400628708,152.8369670888211,110.06336016880282,191.70657354813716,2.1,2.12,-259,-264,0,-285,268,261,321.44562673568726,321.4457380771637,321.4496512413025,321.4599380493164,321.6091458797455,321.6091458797455,321.6091458797455,321.6091458797455,321.6091458797455,321.6091458797455,321.6091458797455,322.5819489955902,2,1.1113405227661133,None,,,,,,,,,,,,,,,,,,85,4,2025-02-21_14h58.47.699,comp,2024.2.4,58.08376251362321,2025-02-21 14h59.00.644594 -0500,
109,109,0,critical,dhw,35.0,2.1,upper,127.0,127.0,200.0,125.0,125.0,200.0,2,0.9338972568511963,None,,,,,0,0,0,0,0,109,109,25,322.59725737571716,,,,,,,,,,,,,,,,,,,,,,,,,,,,,,,,,,,,,,,,,,,,,,,,,,,,,,,,,,,,,,,,,,,,,,,,,,,,,,,,,,127.0,127.0,200.0,125.0,125.0,200.0,2.1,2.12,-222,-274,0,-280,258,274,322.583459854126,322.58353996276855,322.5863218307495,322.59725737571716,322.7442274093628,322.7442274093628,322.7442274093628,322.7442274093628,322.7442274093628,322.7442274093628,322.7442274093628,323.5438961982727,2,0.9338972568511963,None,,,,,,,,,,,,,,,,,,85,4,2025-02-21_14h58.47.699,comp,2024.2.4,58.08376251362321,2025-02-21 14h59.00.644594 -0500,
110,110,0,filler_random,None,None,None,None,None,None,None,None,None,None,2,0.8935484886169434,None,,,,,0,0,0,0,0,110,110,144,323.5604794025421,,,,,,,,,,,,,,,,,,,,,,,,,,,,,,,,,,,,,,,,,,,,,,,,,,,,,,,,,,,,,,,,,,,,,,,,,,,,,,,,,,84.83785580349407,77.58755103637068,189.2707786826244,112.41355940037027,78.63680273564856,106.10033654360896,3.0,3.2,-191,-276,0,-12,205,276,323.5456819534302,323.54580187797546,323.5491907596588,323.5604794025421,323.71380949020386,323.71380949020386,323.71380949020386,323.71380949020386,323.71380949020386,323.71380949020386,323.71380949020386,324.45946049690247,2,0.8935484886169434,None,,,,,,,,,,,,,,,,,,85,4,2025-02-21_14h58.47.699,comp,2024.2.4,58.08376251362321,2025-02-21 14h59.00.644594 -0500,
111,111,0,critical,hwd,20.0,2.1,lower,133.0,57.0,57.0,133.0,78.0,78.0,1,1.767613410949707,None,,,,,0,0,0,0,0,111,111,18,324.4756863117218,,,,,,,,,,,,,,,,,,,,,,,,,,,,,,,,,,,,,,,,,,,,,,,,,,,,,,,,,,,,,,,,,,,,,,,,,,,,,,,,,,133.0,57.0,57.0,133.0,78.0,78.0,2.1,2.12,-191,-288,0,-288,202,272,324.461008310318,324.46108961105347,324.4640157222748,324.4756863117218,324.63012433052063,324.63012433052063,324.63012433052063,324.63012433052063,324.63012433052063,324.63012433052063,324.63012433052063,326.26260447502136,1,1.767613410949707,None,,,,,,,,,,,,,,,,,,85,4,2025-02-21_14h58.47.699,comp,2024.2.4,58.08376251362321,2025-02-21 14h59.00.644594 -0500,
112,112,0,filler_random,None,None,None,None,None,None,None,None,None,None,3,1.091294527053833,None,,,,,0,0,0,0,0,112,112,132,326.2804071903229,,,,,,,,,,,,,,,,,,,,,,,,,,,,,,,,,,,,,,,,,,,,,,,,,,,,,,,,,,,,,,,,,,,,,,,,,,,,,,,,,,88.09421500301941,101.5805833324344,166.0219810581774,93.3722954646493,189.99029219363777,141.2248357302372,3.0,3.1,-193,255,0,-13,213,-264,326.26432394981384,326.2644588947296,326.2676246166229,326.2804071903229,326.4270212650299,326.4270212650299,326.4270212650299,326.4270212650299,326.4270212650299,326.4270212650299,326.4270212650299,327.3792715072632,3,1.091294527053833,None,,,,,,,,,,,,,,,,,,85,4,2025-02-21_14h58.47.699,comp,2024.2.4,58.08376251362321,2025-02-21 14h59.00.644594 -0500,
113,113,0,critical,dwh,20.0,3.0,lower,78.0,78.0,57.0,133.0,133.0,57.0,2,1.8378446102142334,None,,,,,0,0,0,0,0,113,113,68,327.3973560333252,,,,,,,,,,,,,,,,,,,,,,,,,,,,,,,,,,,,,,,,,,,,,,,,,,,,,,,,,,,,,,,,,,,,,,,,,,,,,,,,,,78.0,78.0,57.0,133.0,133.0,57.0,3.0,3.2,-202,-281,0,-15,191,251,327.38081455230713,327.3808958530426,327.38419580459595,327.3973560333252,327.5441381931305,327.5441381931305,327.5441381931305,327.5441381931305,327.5441381931305,327.5441381931305,327.5441381931305,329.25009989738464,2,1.8378446102142334,None,,,,,,,,,,,,,,,,,,85,4,2025-02-21_14h58.47.699,comp,2024.2.4,58.08376251362321,2025-02-21 14h59.00.644594 -0500,
114,114,0,filler_random,None,None,None,None,None,None,None,None,None,None,2,1.5291192531585693,None,,,,,0,0,0,0,0,114,114,158,329.2660217285156,,,,,,,,,,,,,,,,,,,,,,,,,,,,,,,,,,,,,,,,,,,,,,,,,,,,,,,,,,,,,,,,,,,,,,,,,,,,,,,,,,135.51534707857405,127.80666849257894,161.00955671785385,161.7178991204612,91.00141583853888,141.93385797669356,2.2,2.22,-241,258,0,-255,248,-264,329.2519545555115,329.2520387172699,329.25495290756226,329.2660217285156,329.41757011413574,329.41757011413574,329.41757011413574,329.41757011413574,329.41757011413574,329.41757011413574,329.41757011413574,330.7971999645233,2,1.5291192531585693,None,,,,,,,,,,,,,,,,,,85,4,2025-02-21_14h58.47.699,comp,2024.2.4,58.08376251362321,2025-02-21 14h59.00.644594 -0500,
115,115,0,critical,wdh,35.0,3.0,upper,125.0,200.0,127.0,127.0,200.0,125.0,3,0.9905164241790771,None,,,,,0,0,0,0,0,115,115,75,330.8136839866638,,,,,,,,,,,,,,,,,,,,,,,,,,,,,,,,,,,,,,,,,,,,,,,,,,,,,,,,,,,,,,,,,,,,,,,,,,,,,,,,,,125.0,200.0,127.0,127.0,200.0,125.0,3.0,3.1,-260,285,0,-13,222,-286,330.79880714416504,330.7989010810852,330.802321434021,330.8136839866638,330.95631527900696,330.95631527900696,330.95631527900696,330.95631527900696,330.95631527900696,330.95631527900696,330.95631527900696,331.8101177215576,3,0.9905164241790771,None,,,,,,,,,,,,,,,,,,85,4,2025-02-21_14h58.47.699,comp,2024.2.4,58.08376251362321,2025-02-21 14h59.00.644594 -0500,
116,116,0,filler_random,None,None,None,None,None,None,None,None,None,None,3,0.9195237159729004,None,,,,,0,0,0,0,0,116,116,137,331.8278045654297,,,,,,,,,,,,,,,,,,,,,,,,,,,,,,,,,,,,,,,,,,,,,,,,,,,,,,,,,,,,,,,,,,,,,,,,,,,,,,,,,,76.25801024547862,77.48157069223876,89.16250731098353,115.75128228411893,154.17350265587385,144.87264220300762,1.0,1.2,-193,-8,0,6,226,9,331.81189250946045,331.81203293800354,331.8151955604553,331.8278045654297,331.96826696395874,331.96826696395874,331.96826696395874,331.96826696395874,331.96826696395874,331.96826696395874,331.96826696395874,332.753125667572,3,0.9195237159729004,None,,,,,,,,,,,,,,,,,,85,4,2025-02-21_14h58.47.699,comp,2024.2.4,58.08376251362321,2025-02-21 14h59.00.644594 -0500,
117,117,0,critical,whd,35.0,4.0,upper,125.0,200.0,200.0,125.0,127.0,127.0,1,2.1344902515411377,None,,,,,0,0,0,0,0,117,117,89,332.7730641365051,,,,,,,,,,,,,,,,,,,,,,,,,,,,,,,,,,,,,,,,,,,,,,,,,,,,,,,,,,,,,,,,,,,,,,,,,,,,,,,,,,125.0,200.0,200.0,125.0,127.0,127.0,4.0,4.1,-258,-251,0,-20,222,-264,332.7545680999756,332.75466442108154,332.7574725151062,332.7730641365051,332.91519260406494,332.91519260406494,332.91519260406494,332.91519260406494,332.91519260406494,332.91519260406494,332.91519260406494,334.9136528968811,1,2.1344902515411377,None,,,,,,,,,,,,,,,,,,85,4,2025-02-21_14h58.47.699,comp,2024.2.4,58.08376251362321,2025-02-21 14h59.00.644594 -0500,
118,118,0,critical,wdh,35.0,1.0,upper,125.0,200.0,127.0,127.0,200.0,125.0,1,2.0066940784454346,None,,,,,0,0,0,0,0,118,118,73,334.93330907821655,,,,,,,,,,,,,,,,,,,,,,,,,,,,,,,,,,,,,,,,,,,,,,,,,,,,,,,,,,,,,,,,,,,,,,,,,,,,,,,,,,125.0,200.0,127.0,127.0,200.0,125.0,1.0,1.1,-740,285,-480,264,-258,265,334.91523814201355,334.915319442749,334.918821811676,334.93330907821655,335.0817198753357,335.0817198753357,335.0817198753357,335.0817198753357,335.0817198753357,335.0817198753357,335.0817198753357,336.94642400741577,1,2.0066940784454346,None,,,,,,,,,,,,,,,,,,85,4,2025-02-21_14h58.47.699,comp,2024.2.4,58.08376251362321,2025-02-21 14h59.00.644594 -0500,
119,119,0,catch,None,None,None,None,None,None,None,None,None,None,3,1.0520787239074707,None,,,,,0,0,0,0,0,119,119,124,336.9670150279999,,,,,,,,,,,,,,,,,,,,,,,,,,,,,,,,,,,,,,,,,,,,,,,,,,,,,,,,,,,,,,,,,,,,,,,,,,,,,,,,,,93,97,84,106,181,144,2.1,2.11,-198,264,0,271,221,-272,336.94837069511414,336.948454618454,336.95149421691895,336.9670150279999,337.11606645584106,337.11606645584106,337.11606645584106,337.11606645584106,337.11606645584106,337.11606645584106,337.11606645584106,338.03234100341797,3,1.0520787239074707,None,,,,,,,,,,,,,,,,,,85,4,2025-02-21_14h58.47.699,comp,2024.2.4,58.08376251362321,2025-02-21 14h59.00.644594 -0500,
120,120,0,critical,dhw,20.0,3.0,upper,141.0,141.0,200.0,125.0,125.0,200.0,2,2.3633668422698975,None,,,,,0,0,0,0,0,120,120,57,338.04857778549194,,,,,,,,,,,,,,,,,,,,,,,,,,,,,,,,,,,,,,,,,,,,,,,,,,,,,,,,,,,,,,,,,,,,,,,,,,,,,,,,,,141.0,141.0,200.0,125.0,125.0,200.0,3.0,3.2,-229,-275,0,-10,258,263,338.03395223617554,338.0340437889099,338.03731513023376,338.04857778549194,338.1948034763336,338.1948034763336,338.1948034763336,338.1948034763336,338.1948034763336,338.1948034763336,338.1948034763336,340.41936206817627,2,2.3633668422698975,None,,,,,,,,,,,,,,,,,,85,4,2025-02-21_14h58.47.699,comp,2024.2.4,58.08376251362321,2025-02-21 14h59.00.644594 -0500,
121,121,0,filler_random,None,None,None,None,None,None,None,None,None,None,2,1.446603775024414,None,,,,,0,0,0,0,0,121,121,157,340.4373106956482,,,,,,,,,,,,,,,,,,,,,,,,,,,,,,,,,,,,,,,,,,,,,,,,,,,,,,,,,,,,,,,,,,,,,,,,,,,,,,,,,,199.4674136350435,93.4615647076521,147.8961228410884,188.26727118173318,80.53852385453706,183.74628771468076,1.0,1.3,243,-280,480,-288,762,-258,340.4211149215698,340.42119693756104,340.4241259098053,340.4373106956482,340.5827658176422,340.5827658176422,340.5827658176422,340.5827658176422,340.5827658176422,340.5827658176422,340.5827658176422,341.8903841972351,2,1.446603775024414,None,,,,,,,,,,,,,,,,,,85,4,2025-02-21_14h58.47.699,comp,2024.2.4,58.08376251362321,2025-02-21 14h59.00.644594 -0500,
122,122,0,filler_square,None,None,None,None,None,None,None,None,None,None,3,1.0162467956542969,None,,,,,0,0,0,0,0,122,122,198,341.90692043304443,,,,,,,,,,,,,,,,,,,,,,,,,,,,,,,,,,,,,,,,,,,,,,,,,,,,,,,,,,,,,,,,,,,,,,,,,,,,,,,,,,131.2052710786756,78.66721924965563,97.6018692972058,79.10362640490999,148.99001037659775,148.99001037659775,1.0,1.2,-175,8,0,-14,210,6,341.8922235965729,341.89230942726135,341.89525270462036,341.90692043304443,342.0498752593994,342.0498752593994,342.0498752593994,342.0498752593994,342.0498752593994,342.0498752593994,342.0498752593994,342.93620800971985,3,1.0162467956542969,None,,,,,,,,,,,,,,,,,,85,4,2025-02-21_14h58.47.699,comp,2024.2.4,58.08376251362321,2025-02-21 14h59.00.644594 -0500,
123,123,0,critical,dhw,35.0,2.1,lower,70.0,70.0,133.0,57.0,57.0,133.0,2,1.7732138633728027,None,,,,,0,0,0,0,0,123,123,24,342.95164346694946,,,,,,,,,,,,,,,,,,,,,,,,,,,,,,,,,,,,,,,,,,,,,,,,,,,,,,,,,,,,,,,,,,,,,,,,,,,,,,,,,,70.0,70.0,133.0,57.0,57.0,133.0,2.1,2.11,-160,283,0,278,191,-252,342.93840765953064,342.938490152359,342.9413537979126,342.95164346694946,343.09950709342957,343.09950709342957,343.09950709342957,343.09950709342957,343.09950709342957,343.09950709342957,343.09950709342957,344.7315299510956,2,1.7732138633728027,None,,,,,,,,,,,,,,,,,,85,4,2025-02-21_14h58.47.699,comp,2024.2.4,58.08376251362321,2025-02-21 14h59.00.644594 -0500,
124,124,0,critical,wdh,35.0,3.0,lower,57.0,133.0,70.0,70.0,133.0,57.0,1,2.687692880630493,None,,,,,0,0,0,0,0,124,124,74,344.7475001811981,,,,,,,,,,,,,,,,,,,,,,,,,,,,,,,,,,,,,,,,,,,,,,,,,,,,,,,,,,,,,,,,,,,,,,,,,,,,,,,,,,57.0,133.0,70.0,70.0,133.0,57.0,3.0,3.2,-198,-270,0,0,160,265,344.7331519126892,344.73323249816895,344.73649287223816,344.7475001811981,344.8976056575775,344.8976056575775,344.8976056575775,344.8976056575775,344.8976056575775,344.8976056575775,344.8976056575775,347.45132541656494,1,2.687692880630493,None,,,,,,,,,,,,,,,,,,85,4,2025-02-21_14h58.47.699,comp,2024.2.4,58.08376251362321,2025-02-21 14h59.00.644594 -0500,
125,125,0,filler_square,None,None,None,None,None,None,None,None,None,None,1,6.610310077667236,None,,,,,0,0,0,0,0,125,125,179,347.4667909145355,,,,,,,,,,,,,,,,,,,,,,,,,,,,,,,,,,,,,,,,,,,,,,,,,,,,,,,,,,,,,,,,,,,,,,,,,,,,,,,,,,71.86312972999478,71.86312972999478,66.63006592496387,61.08140546204123,59.479473988196894,57.826211408386406,3.0,3.1,-162,268,0,-9,155,-253,347.45307207107544,347.4531533718109,347.4565155506134,347.4667909145355,347.61978220939636,347.61978220939636,347.61978220939636,347.61978220939636,347.61978220939636,347.61978220939636,347.61978220939636,354.08731746673584,1,6.610310077667236,None,,,,,,,,,,,,,,,,,,85,4,2025-02-21_14h58.47.699,comp,2024.2.4,58.08376251362321,2025-02-21 14h59.00.644594 -0500,
126,126,0,critical,hdw,20.0,1.0,lower,133.0,57.0,78.0,78.0,57.0,133.0,1,1.973724126815796,None,,,,,0,0,0,0,0,126,126,114,354.1018850803375,,,,,,,,,,,,,,,,,,,,,,,,,,,,,,,,,,,,,,,,,,,,,,,,,,,,,,,,,,,,,,,,,,,,,,,,,,,,,,,,,,133.0,57.0,78.0,78.0,57.0,133.0,1.0,1.2,-164,-16,0,4,202,13,354.0888090133667,354.08893513679504,354.09221029281616,354.1018850803375,354.24362778663635,354.24362778663635,354.24362778663635,354.24362778663635,354.24362778663635,354.24362778663635,354.24362778663635,356.0904676914215,1,1.973724126815796,None,,,,,,,,,,,,,,,,,,85,4,2025-02-21_14h58.47.699,comp,2024.2.4,58.08376251362321,2025-02-21 14h59.00.644594 -0500,
127,127,0,catch,None,None,None,None,None,None,None,None,None,None,3,1.1008176803588867,None,,,,,0,0,0,0,0,127,127,127,356.1111330986023,,,,,,,,,,,,,,,,,,,,,,,,,,,,,,,,,,,,,,,,,,,,,,,,,,,,,,,,,,,,,,,,,,,,,,,,,,,,,,,,,,123,67,133,57,135,190,3.0,3.2,-158,-260,0,2,220,263,356.09262919425964,356.09274196624756,356.09603667259216,356.1111330986023,356.2545816898346,356.2545816898346,356.2545816898346,356.2545816898346,356.2545816898346,356.2545816898346,356.2545816898346,357.22076320648193,3,1.1008176803588867,None,,,,,,,,,,,,,,,,,,85,4,2025-02-21_14h58.47.699,comp,2024.2.4,58.08376251362321,2025-02-21 14h59.00.644594 -0500,
128,128,0,critical,dwh,20.0,4.0,lower,78.0,78.0,57.0,133.0,133.0,57.0,3,4.333008050918579,None,,,,,0,0,0,0,0,128,128,70,357.2384104728699,,,,,,,,,,,,,,,,,,,,,,,,,,,,,,,,,,,,,,,,,,,,,,,,,,,,,,,,,,,,,,,,,,,,,,,,,,,,,,,,,,78.0,78.0,57.0,133.0,133.0,57.0,4.0,4.1,-202,-281,0,-4,191,-266,357.22224974632263,357.22232842445374,357.2254662513733,357.2384104728699,357.3886823654175,357.3886823654175,357.3886823654175,357.3886823654175,357.3886823654175,357.3886823654175,357.3886823654175,361.5892827510834,3,4.333008050918579,None,,,,,,,,,,,,,,,,,,85,4,2025-02-21_14h58.47.699,comp,2024.2.4,58.08376251362321,2025-02-21 14h59.00.644594 -0500,
129,129,0,critical,dwh,35.0,1.0,lower,70.0,70.0,57.0,133.0,133.0,57.0,3,2.8789618015289307,None,,,,,0,0,0,0,0,129,129,60,361.6049852371216,,,,,,,,,,,,,,,,,,,,,,,,,,,,,,,,,,,,,,,,,,,,,,,,,,,,,,,,,,,,,,,,,,,,,,,,,,,,,,,,,,70.0,70.0,57.0,133.0,133.0,57.0,1.0,1.1,-678,266,-480,261,-289,268,361.59087085723877,361.59100127220154,361.5946388244629,361.6049852371216,361.75827860832214,361.75827860832214,361.75827860832214,361.75827860832214,361.75827860832214,361.75827860832214,361.75827860832214,364.49027156829834,3,2.8789618015289307,None,,,,,,,,,,,,,,,,,,85,4,2025-02-21_14h58.47.699,comp,2024.2.4,58.08376251362321,2025-02-21 14h59.00.644594 -0500,
130,130,0,critical,dhw,35.0,4.0,lower,70.0,70.0,133.0,57.0,57.0,133.0,2,3.2341909408569336,None,,,,,0,0,0,0,0,130,130,52,364.5059006214142,,,,,,,,,,,,,,,,,,,,,,,,,,,,,,,,,,,,,,,,,,,,,,,,,,,,,,,,,,,,,,,,,,,,,,,,,,,,,,,,,,70.0,70.0,133.0,57.0,57.0,133.0,4.0,4.2,-160,19,0,-267,191,-7,364.4917366504669,364.49182415008545,364.4951956272125,364.5059006214142,364.6582021713257,364.6582021713257,364.6582021713257,364.6582021713257,364.6582021713257,364.6582021713257,364.6582021713257,367.7419738769531,2,3.2341909408569336,None,,,,,,,,,,,,,,,,,,85,4,2025-02-21_14h58.47.699,comp,2024.2.4,58.08376251362321,2025-02-21 14h59.00.644594 -0500,
131,131,0,critical,whd,35.0,3.0,lower,57.0,133.0,133.0,57.0,70.0,70.0,1,1.5809214115142822,None,,,,,0,0,0,0,0,131,131,86,367.7582495212555,,,,,,,,,,,,,,,,,,,,,,,,,,,,,,,,,,,,,,,,,,,,,,,,,,,,,,,,,,,,,,,,,,,,,,,,,,,,,,,,,,57.0,133.0,133.0,57.0,70.0,70.0,3.0,3.1,-191,279,0,-5,160,-264,367.7434775829315,367.74356055259705,367.74699449539185,367.7582495212555,367.90733647346497,367.90733647346497,367.90733647346497,367.90733647346497,367.90733647346497,367.90733647346497,367.90733647346497,369.34158539772034,1,1.5809214115142822,None,,,,,,,,,,,,,,,,,,85,4,2025-02-21_14h58.47.699,comp,2024.2.4,58.08376251362321,2025-02-21 14h59.00.644594 -0500,
132,132,0,critical,dwh,35.0,2.1,upper,127.0,127.0,125.0,200.0,200.0,125.0,2,1.334259033203125,None,,,,,0,0,0,0,0,132,132,5,369.3574376106262,,,,,,,,,,,,,,,,,,,,,,,,,,,,,,,,,,,,,,,,,,,,,,,,,,,,,,,,,,,,,,,,,,,,,,,,,,,,,,,,,,127.0,127.0,125.0,200.0,200.0,125.0,2.1,2.12,-260,-252,0,-271,258,260,369.3431785106659,369.34326100349426,369.34657645225525,369.3574376106262,369.50675868988037,369.50675868988037,369.50675868988037,369.50675868988037,369.50675868988037,369.50675868988037,369.50675868988037,370.70882630348206,2,1.334259033203125,None,,,,,,,,,,,,,,,,,,85,4,2025-02-21_14h58.47.699,comp,2024.2.4,58.08376251362321,2025-02-21 14h59.00.644594 -0500,
133,133,0,critical,whd,20.0,2.1,lower,57.0,133.0,133.0,57.0,78.0,78.0,2,2.1837403774261475,None,,,,,0,0,0,0,0,133,133,14,370.7241747379303,,,,,,,,,,,,,,,,,,,,,,,,,,,,,,,,,,,,,,,,,,,,,,,,,,,,,,,,,,,,,,,,,,,,,,,,,,,,,,,,,,57.0,133.0,133.0,57.0,78.0,78.0,2.1,2.12,-191,-280,0,-266,164,273,370.71040058135986,370.7104811668396,370.713898897171,370.7241747379303,370.87600564956665,370.87600564956665,370.87600564956665,370.87600564956665,370.87600564956665,370.87600564956665,370.87600564956665,372.9100685119629,2,2.1837403774261475,None,,,,,,,,,,,,,,,,,,85,4,2025-02-21_14h58.47.699,comp,2024.2.4,58.08376251362321,2025-02-21 14h59.00.644594 -0500,
134,134,0,critical,dwh,20.0,4.0,upper,141.0,141.0,125.0,200.0,200.0,125.0,2,1.6290817260742188,None,,,,,0,0,0,0,0,134,134,71,372.9262127876282,,,,,,,,,,,,,,,,,,,,,,,,,,,,,,,,,,,,,,,,,,,,,,,,,,,,,,,,,,,,,,,,,,,,,,,,,,,,,,,,,,141.0,141.0,125.0,200.0,200.0,125.0,4.0,4.2,-266,10,0,-271,258,2,372.91152477264404,372.911607503891,372.91508984565735,372.9262127876282,373.0796682834625,373.0796682834625,373.0796682834625,373.0796682834625,373.0796682834625,373.0796682834625,373.0796682834625,374.56891989707947,2,1.6290817260742188,None,,,,,,,,,,,,,,,,,,85,4,2025-02-21_14h58.47.699,comp,2024.2.4,58.08376251362321,2025-02-21 14h59.00.644594 -0500,
135,135,0,filler_random,None,None,None,None,None,None,None,None,None,None,1,1.1378626823425293,None,,,,,0,0,0,0,0,135,135,141,374.58547735214233,,,,,,,,,,,,,,,,,,,,,,,,,,,,,,,,,,,,,,,,,,,,,,,,,,,,,,,,,,,,,,,,,,,,,,,,,,,,,,,,,,172.02193972353263,186.27446993581358,89.97489513011308,161.2443782010912,183.7143610692886,78.20865300572089,2.1,2.11,-270,280,0,253,216,-279,374.57069659233093,374.57084107398987,374.574125289917,374.58547735214233,374.72589206695557,374.72589206695557,374.72589206695557,374.72589206695557,374.72589206695557,374.72589206695557,374.72589206695557,375.72616934776306,1,1.1378626823425293,None,,,,,,,,,,,,,,,,,,85,4,2025-02-21_14h58.47.699,comp,2024.2.4,58.08376251362321,2025-02-21 14h59.00.644594 -0500,
136,136,0,filler_random,None,None,None,None,None,None,None,None,None,None,1,1.1390211582183838,None,,,,,0,0,0,0,0,136,136,150,375.74414801597595,,,,,,,,,,,,,,,,,,,,,,,,,,,,,,,,,,,,,,,,,,,,,,,,,,,,,,,,,,,,,,,,,,,,,,,,,,,,,,,,,,130.54636850066345,173.69900039871334,62.27591201004991,96.4273286175094,74.69524675282206,176.29641864518527,2.2,2.22,-231,273,0,-259,232,-288,375.72798562049866,375.72809767723083,375.7312653064728,375.74414801597595,375.89284229278564,375.89284229278564,375.89284229278564,375.89284229278564,375.89284229278564,375.89284229278564,375.89284229278564,376.89958024024963,1,1.1390211582183838,None,,,,,,,,,,,,,,,,,,85,4,2025-02-21_14h58.47.699,comp,2024.2.4,58.08376251362321,2025-02-21 14h59.00.644594 -0500,
137,137,0,critical,dwh,35.0,4.0,lower,70.0,70.0,57.0,133.0,133.0,57.0,2,2.0161502361297607,None,,,,,0,0,0,0,0,137,137,64,376.91510581970215,,,,,,,,,,,,,,,,,,,,,,,,,,,,,,,,,,,,,,,,,,,,,,,,,,,,,,,,,,,,,,,,,,,,,,,,,,,,,,,,,,70.0,70.0,57.0,133.0,133.0,57.0,4.0,4.2,-198,4,0,-274,191,-3,376.9010531902313,376.9011318683624,376.90403509140015,376.91510581970215,377.06142568588257,377.06142568588257,377.06142568588257,377.06142568588257,377.06142568588257,377.06142568588257,377.06142568588257,378.9443402290344,2,2.0161502361297607,None,,,,,,,,,,,,,,,,,,85,4,2025-02-21_14h58.47.699,comp,2024.2.4,58.08376251362321,2025-02-21 14h59.00.644594 -0500,
138,138,0,filler_random,None,None,None,None,None,None,None,None,None,None,1,1.6601049900054932,None,,,,,0,0,0,0,0,138,138,161,378.9612147808075,,,,,,,,,,,,,,,,,,,,,,,,,,,,,,,,,,,,,,,,,,,,,,,,,,,,,,,,,,,,,,,,,,,,,,,,,,,,,,,,,,140.01802812532245,105.9043895706894,114.93371523859017,126.42455139991324,172.13935235858773,71.44462143396038,2.1,2.12,-212,-258,0,-274,195,280,378.9459774494171,378.9460566043854,378.94922280311584,378.9612147808075,379.11264538764954,379.11264538764954,379.11264538764954,379.11264538764954,379.11264538764954,379.11264538764954,379.11264538764954,380.62697076797485,1,1.6601049900054932,None,,,,,,,,,,,,,,,,,,85,4,2025-02-21_14h58.47.699,comp,2024.2.4,58.08376251362321,2025-02-21 14h59.00.644594 -0500,
139,139,0,filler_random,None,None,None,None,None,None,None,None,None,None,2,2.9355132579803467,None,,,,,0,0,0,0,0,139,139,168,380.6439230442047,,,,,,,,,,,,,,,,,,,,,,,,,,,,,,,,,,,,,,,,,,,,,,,,,,,,,,,,,,,,,,,,,,,,,,,,,,,,,,,,,,88.77691842375975,62.14755023390014,105.97006750422224,71.304219117752,70.5484153618885,63.85681159831577,2.2,2.22,-163,280,0,-277,164,-264,380.6286699771881,380.6288318634033,380.6322777271271,380.6439230442047,380.792236328125,380.792236328125,380.792236328125,380.792236328125,380.792236328125,380.792236328125,380.792236328125,383.58160734176636,2,2.9355132579803467,None,,,,,,,,,,,,,,,,,,85,4,2025-02-21_14h58.47.699,comp,2024.2.4,58.08376251362321,2025-02-21 14h59.00.644594 -0500,
