thisN,thisTrialN,thisRepN,effect,order,distance,config,diag,h_1,w_1,h_2,w_2,h_3,w_3,rect_choice.keys,rect_choice.rt,rect_choice.duration,instructions_loop.thisRepN,instructions_loop.thisTrialN,instructions_loop.thisN,instructions_loop.thisIndex,blocks.thisRepN,blocks.thisTrialN,blocks.thisN,blocks.thisIndex,trials.thisRepN,trials.thisTrialN,trials.thisN,trials.thisIndex,thisRow.t,notes,consent.started,agree_button.started,decline_button.started,consent_img.started,mouse.started,consent.stopped,agree_button.numClicks,agree_button.timesOn,agree_button.timesOff,decline_button.numClicks,decline_button.timesOn,decline_button.timesOff,mouse.x,mouse.y,mouse.leftButton,mouse.midButton,mouse.rightButton,mouse.time,mouse.clicked_name,exp_params.started,exp_params.stopped,welcome.started,welcome_text.started,welcome.stopped,instructions_1.started,instructions_1_text_1.started,instructions_1_text_2.started,key_resp.started,instructions_1.stopped,instructions_loop.key_resp.keys,instructions_loop.key_resp.rt,instructions_loop.key_resp.duration,instructions_2.started,instructions_2_text_1.started,instructions_2_text_2.started,key_resp_2.started,instructions_2.stopped,instructions_loop.key_resp_2.keys,instructions_loop.key_resp_2.rt,instructions_loop.key_resp_2.duration,instructions_3.started,instructions_3_text_1.started,r1_instr3.started,r2_instr3.started,r3_instr3.started,r1_instr3_label.started,r2_instr3_label.started,r3_instr3_label.started,instructions_3_text_3.started,instructions_3_text_4.started,key_resp_3.started,instructions_3.stopped,instructions_loop.key_resp_3.keys,instructions_loop.key_resp_3.rt,instructions_loop.key_resp_3.duration,instructions_4.started,instructions_4_text_1.started,instructions_4_text_3.started,instructions_4_text_2.started,key_resp_4.started,instructions_4.stopped,instructions_loop.key_resp_4.keys,instructions_loop.key_resp_4.rt,instructions_loop.key_resp_4.duration,instructions_5.started,instructions_5_text_1.started,instructions_5_text_2.started,key_resp_5.started,instructions_5.stopped,instructions_loop.key_resp_5.keys,instructions_loop.key_resp_5.rt,instructions_loop.key_resp_5.duration,start_exp.started,start_exp_text.started,key_resp_6.started,start_exp.stopped,key_resp_6.keys,key_resp_6.rt,key_resp_6.duration,h_1_tmp,w_1_tmp,h_2_tmp,w_2_tmp,h_3_tmp,w_3_tmp,config_tmp,config_tmp_1,r_1_x,r_1_y,r_2_x,r_2_y,r_3_x,r_3_y,pre_trial.started,pre_trial.stopped,choice_trial.started,rect_choice.started,r_1.started,r_2.started,r_3.started,r_1_label.started,r_2_label.started,r_3_label.started,prompt.started,choice_trial.stopped,trials.rect_choice.keys,trials.rect_choice.rt,trials.rect_choice.duration,end_block.started,end_block_text.started,end_block.stopped,end.started,end_text.started,key_resp_7.started,end.stopped,key_resp_7.keys,key_resp_7.rt,key_resp_7.duration,debriefing.started,debrief_form.started,end_debrief.started,debriefing.stopped,end_debrief.keys,end_debrief.rt,end_debrief.duration,participant,computer,date,expName,psychopyVersion,frameRate,expStart,
,,,,,,,,,,,,,,,,,,,,,,,,,,,,,,,0.0160367488861084,0.04266238212585449,0.04266238212585449,0.04266238212585449,0.015541791915893555,58.67731690406799,1,[58.63307166099548],[58.633084774017334],0,,,[-85.0],[-504.0],[1],[0],[0],[58.660537004470825],['agree_button'],,,,,,,,,,,,,,,,,,,,,,,,,,,,,,,,,,,,,,,,,,,,,,,,,,,,,,,,,,,,,,,,,,,,,,,,,,,,,,,,,,,,,,,,,,,,,,,,,,,,,,,,,,,86,5,2025-02-21_15h07.55.742,comp,2024.2.4,60.941133736769075,2025-02-21 15h08.08.190578 -0500,
,,,,,,,,,,,,,,,,,,,,,,,,,,,,,,,,,,,,,,,,,,,,,,,,,,58.67766356468201,58.67770600318909,,,,,,,,,,,,,,,,,,,,,,,,,,,,,,,,,,,,,,,,,,,,,,,,,,,,,,,,,,,,,,,,,,,,,,,,,,,,,,,,,,,,,,,,,,,,,,,,,,,,,,,,,86,5,2025-02-21_15h07.55.742,comp,2024.2.4,60.941133736769075,2025-02-21 15h08.08.190578 -0500,
,,,,,,,,,,,,,,,,,,,,,,,,,,,,,,,,,,,,,,,,,,,,,,,,,,,,58.67773509025574,58.69157648086548,60.68262457847595,,,,,,,,,,,,,,,,,,,,,,,,,,,,,,,,,,,,,,,,,,,,,,,,,,,,,,,,,,,,,,,,,,,,,,,,,,,,,,,,,,,,,,,,,,,,,,,,,,,,,,86,5,2025-02-21_15h07.55.742,comp,2024.2.4,60.941133736769075,2025-02-21 15h08.08.190578 -0500,
0,0,0,,,,,,,,,,,,,,,0,0,0,0,,,,,,,,,60.69935154914856,,,,,,,,,,,,,,,,,,,,,,,,,,60.683194398880005,60.69935154914856,60.69935154914856,62.18252086639404,65.28399467468262,space,3.0848135948181152,None,65.28407859802246,65.29937982559204,65.29937982559204,66.7829794883728,72.88363671302795,space,6.083610773086548,None,72.88372445106506,72.90556788444519,72.90556788444519,72.90556788444519,72.90556788444519,72.90556788444519,72.90556788444519,72.90556788444519,72.90556788444519,72.90556788444519,74.38335227966309,83.31743001937866,space,8.916574954986572,None,83.31752014160156,83.33280491828918,83.33280491828918,83.33280491828918,84.83261775970459,90.30020499229431,space,5.451683521270752,None,90.30029487609863,90.31591415405273,90.31591415405273,91.81576728820801,92.56708240509033,space,0.7487411499023438,None,92.56720733642578,92.58257913589478,92.58257913589478,93.88433933258057,space,1.292992115020752,None,,,,,,,,,,,,,,,,,,,,,,,,,,,,,,,,,,,,,,,,,,,,,,,86,5,2025-02-21_15h07.55.742,comp,2024.2.4,60.941133736769075,2025-02-21 15h08.08.190578 -0500,
0,0,0,filler_square,None,None,None,None,None,None,None,None,None,None,3,4.56158185005188,None,,,,,0,0,0,0,0,0,0,202,93.94566035270691,,,,,,,,,,,,,,,,,,,,,,,,,,,,,,,,,,,,,,,,,,,,,,,,,,,,,,,,,,,,,,,,,,,,,,,,,,,,,,,,,131.21916573992888,158.4724536839078,112.9363633107906,160.4752752877767,181.10394213113284,181.10394213113284,2.1,2.12,-255,-274,0,-257,267,260,93.93178987503052,93.9318368434906,93.93391227722168,93.94566035270691,94.08656144142151,94.08656144142151,94.08656144142151,94.08656144142151,94.08656144142151,94.08656144142151,94.08656144142151,98.51708149909973,3,4.56158185005188,None,,,,,,,,,,,,,,,,,,86,5,2025-02-21_15h07.55.742,comp,2024.2.4,60.941133736769075,2025-02-21 15h08.08.190578 -0500,
1,1,0,catch,None,None,None,None,None,None,None,None,None,None,2,3.501087188720703,None,,,,,0,0,0,0,0,1,1,126,98.53264856338501,,,,,,,,,,,,,,,,,,,,,,,,,,,,,,,,,,,,,,,,,,,,,,,,,,,,,,,,,,,,,,,,,,,,,,,,,,,,,,,,,74,116,185,140,85,105,1.0,1.3,256,-252,480,-272,698,-259,98.51818633079529,98.51822853088379,98.5203104019165,98.53264856338501,98.68256402015686,98.68256402015686,98.68256402015686,98.68256402015686,98.68256402015686,98.68256402015686,98.68256402015686,102.05029726028442,2,3.501087188720703,None,,,,,,,,,,,,,,,,,,86,5,2025-02-21_15h07.55.742,comp,2024.2.4,60.941133736769075,2025-02-21 15h08.08.190578 -0500,
2,2,0,filler_square,None,None,None,None,None,None,None,None,None,None,1,4.450357675552368,None,,,,,0,0,0,0,0,2,2,198,102.06564164161682,,,,,,,,,,,,,,,,,,,,,,,,,,,,,,,,,,,,,,,,,,,,,,,,,,,,,,,,,,,,,,,,,,,,,,,,,,,,,,,,,135.394913095888,135.394913095888,119.10424168945627,73.5875529934842,92.65598000003912,88.19719781543867,2.1,2.12,-200,-275,0,-272,177,267,102.05126428604126,102.05130624771118,102.05340123176575,102.06564164161682,102.21585512161255,102.21585512161255,102.21585512161255,102.21585512161255,102.21585512161255,102.21585512161255,102.21585512161255,106.5335144996643,1,4.450357675552368,None,,,,,,,,,,,,,,,,,,86,5,2025-02-21_15h07.55.742,comp,2024.2.4,60.941133736769075,2025-02-21 15h08.08.190578 -0500,
3,3,0,critical,hdw,20.0,3.0,lower,133.0,57.0,78.0,78.0,57.0,133.0,3,9.077834129333496,None,,,,,0,0,0,0,0,3,3,116,106.5488646030426,,,,,,,,,,,,,,,,,,,,,,,,,,,,,,,,,,,,,,,,,,,,,,,,,,,,,,,,,,,,,,,,,,,,,,,,,,,,,,,,,133.0,57.0,78.0,78.0,57.0,133.0,3.0,3.1,-164,261,0,3,202,-258,106.53434920310974,106.5343885421753,106.53680634498596,106.5488646030426,106.69894671440125,106.69894671440125,106.69894671440125,106.69894671440125,106.69894671440125,106.69894671440125,106.69894671440125,115.63347434997559,3,9.077834129333496,None,,,,,,,,,,,,,,,,,,86,5,2025-02-21_15h07.55.742,comp,2024.2.4,60.941133736769075,2025-02-21 15h08.08.190578 -0500,
4,4,0,critical,dwh,35.0,4.0,upper,127.0,127.0,125.0,200.0,200.0,125.0,2,4.553449392318726,None,,,,,0,0,0,0,0,4,4,65,115.64911890029907,,,,,,,,,,,,,,,,,,,,,,,,,,,,,,,,,,,,,,,,,,,,,,,,,,,,,,,,,,,,,,,,,,,,,,,,,,,,,,,,,127.0,127.0,125.0,200.0,200.0,125.0,4.0,4.2,-260,10,0,-274,258,4,115.63429665565491,115.63433694839478,115.63647127151489,115.64911890029907,115.79922461509705,115.79922461509705,115.79922461509705,115.79922461509705,115.79922461509705,115.79922461509705,115.79922461509705,120.21704459190369,2,4.553449392318726,None,,,,,,,,,,,,,,,,,,86,5,2025-02-21_15h07.55.742,comp,2024.2.4,60.941133736769075,2025-02-21 15h08.08.190578 -0500,
5,5,0,filler_random,None,None,None,None,None,None,None,None,None,None,1,3.4839463233947754,None,,,,,0,0,0,0,0,5,5,134,120.23220324516296,,,,,,,,,,,,,,,,,,,,,,,,,,,,,,,,,,,,,,,,,,,,,,,,,,,,,,,,,,,,,,,,,,,,,,,,,,,,,,,,,183.0110439910054,185.39933883451076,165.2902566254147,63.380858479943306,105.18948818742817,163.49632306294347,2.1,2.12,-220,-287,0,-265,209,285,120.21799445152283,120.21803545951843,120.22060322761536,120.23220324516296,120.38243532180786,120.38243532180786,120.38243532180786,120.38243532180786,120.38243532180786,120.38243532180786,120.38243532180786,123.7336974143982,1,3.4839463233947754,None,,,,,,,,,,,,,,,,,,86,5,2025-02-21_15h07.55.742,comp,2024.2.4,60.941133736769075,2025-02-21 15h08.08.190578 -0500,
6,6,0,filler_square,None,None,None,None,None,None,None,None,None,None,3,3.334022045135498,None,,,,,0,0,0,0,0,6,6,172,123.74887800216675,,,,,,,,,,,,,,,,,,,,,,,,,,,,,,,,,,,,,,,,,,,,,,,,,,,,,,,,,,,,,,,,,,,,,,,,,,,,,,,,,59.83047998280029,60.508160029617116,64.3217228188011,60.384356855932,64.44247537903989,64.44247537903989,3.0,3.1,-156,250,0,14,158,-273,123.73470067977905,123.7347412109375,123.73720002174377,123.74887800216675,123.89892363548279,123.89892363548279,123.89892363548279,123.89892363548279,123.89892363548279,123.89892363548279,123.89892363548279,127.10003972053528,3,3.334022045135498,None,,,,,,,,,,,,,,,,,,86,5,2025-02-21_15h07.55.742,comp,2024.2.4,60.941133736769075,2025-02-21 15h08.08.190578 -0500,
7,7,0,critical,hdw,20.0,1.0,lower,133.0,57.0,78.0,78.0,57.0,133.0,3,7.9340925216674805,None,,,,,0,0,0,0,0,7,7,114,127.11552619934082,,,,,,,,,,,,,,,,,,,,,,,,,,,,,,,,,,,,,,,,,,,,,,,,,,,,,,,,,,,,,,,,,,,,,,,,,,,,,,,,,133.0,57.0,78.0,78.0,57.0,133.0,1.0,1.3,316,-254,480,-275,682,-265,127.10102105140686,127.10106325149536,127.10352849960327,127.11552619934082,127.26562857627869,127.26562857627869,127.26562857627869,127.26562857627869,127.26562857627869,127.26562857627869,127.26562857627869,135.06652069091797,3,7.9340925216674805,None,,,,,,,,,,,,,,,,,,86,5,2025-02-21_15h07.55.742,comp,2024.2.4,60.941133736769075,2025-02-21 15h08.08.190578 -0500,
8,8,0,critical,wdh,20.0,3.0,lower,57.0,133.0,78.0,78.0,133.0,57.0,1,6.250409126281738,None,,,,,0,0,0,0,0,8,8,80,135.08191633224487,,,,,,,,,,,,,,,,,,,,,,,,,,,,,,,,,,,,,,,,,,,,,,,,,,,,,,,,,,,,,,,,,,,,,,,,,,,,,,,,,57.0,133.0,78.0,78.0,133.0,57.0,3.0,3.2,-202,-279,0,-17,164,270,135.0673155784607,135.06735515594482,135.06978559494019,135.08191633224487,135.23220205307007,135.23220205307007,135.23220205307007,135.23220205307007,135.23220205307007,135.23220205307007,135.23220205307007,141.34987568855286,1,6.250409126281738,None,,,,,,,,,,,,,,,,,,86,5,2025-02-21_15h07.55.742,comp,2024.2.4,60.941133736769075,2025-02-21 15h08.08.190578 -0500,
9,9,0,critical,whd,20.0,4.0,lower,57.0,133.0,133.0,57.0,78.0,78.0,1,12.150192975997925,None,,,,,0,0,0,0,0,9,9,94,141.36533522605896,,,,,,,,,,,,,,,,,,,,,,,,,,,,,,,,,,,,,,,,,,,,,,,,,,,,,,,,,,,,,,,,,,,,,,,,,,,,,,,,,57.0,133.0,133.0,57.0,78.0,78.0,4.0,4.2,-191,17,0,-287,164,5,141.35067915916443,141.35072088241577,141.3532359600067,141.36533522605896,141.51550483703613,141.51550483703613,141.51550483703613,141.51550483703613,141.51550483703613,141.51550483703613,141.51550483703613,153.51678609848022,1,12.150192975997925,None,,,,,,,,,,,,,,,,,,86,5,2025-02-21_15h07.55.742,comp,2024.2.4,60.941133736769075,2025-02-21 15h08.08.190578 -0500,
10,10,0,filler_random,None,None,None,None,None,None,None,None,None,None,2,4.725988864898682,None,,,,,0,0,0,0,0,10,10,148,153.5323634147644,,,,,,,,,,,,,,,,,,,,,,,,,,,,,,,,,,,,,,,,,,,,,,,,,,,,,,,,,,,,,,,,,,,,,,,,,,,,,,,,,79.30110299006542,91.56814062068202,121.90331343989081,75.74301201112414,64.42924824277627,89.73635640470378,3.0,3.2,-180,-287,0,12,179,260,153.5177342891693,153.51777529716492,153.5199007987976,153.5323634147644,153.68230199813843,153.68230199813843,153.68230199813843,153.68230199813843,153.68230199813843,153.68230199813843,153.68230199813843,158.2664954662323,2,4.725988864898682,None,,,,,,,,,,,,,,,,,,86,5,2025-02-21_15h07.55.742,comp,2024.2.4,60.941133736769075,2025-02-21 15h08.08.190578 -0500,
11,11,0,critical,hdw,35.0,2.1,lower,133.0,57.0,70.0,70.0,57.0,133.0,3,6.112366437911987,None,,,,,0,0,0,0,0,11,11,20,158.28208708763123,,,,,,,,,,,,,,,,,,,,,,,,,,,,,,,,,,,,,,,,,,,,,,,,,,,,,,,,,,,,,,,,,,,,,,,,,,,,,,,,,133.0,57.0,70.0,70.0,57.0,133.0,2.1,2.11,-160,264,0,259,198,-285,158.2673168182373,158.26735925674438,158.26975679397583,158.28208708763123,158.43205428123474,158.43205428123474,158.43205428123474,158.43205428123474,158.43205428123474,158.43205428123474,158.43205428123474,164.39995741844177,3,6.112366437911987,None,,,,,,,,,,,,,,,,,,86,5,2025-02-21_15h07.55.742,comp,2024.2.4,60.941133736769075,2025-02-21 15h08.08.190578 -0500,
12,12,0,critical,hdw,20.0,2.1,upper,200.0,125.0,141.0,141.0,125.0,200.0,3,2.3215701580047607,None,,,,,0,0,0,0,0,12,12,23,164.4155354499817,,,,,,,,,,,,,,,,,,,,,,,,,,,,,,,,,,,,,,,,,,,,,,,,,,,,,,,,,,,,,,,,,,,,,,,,,,,,,,,,,200.0,125.0,141.0,141.0,125.0,200.0,2.1,2.11,-229,284,0,264,266,-288,164.40079045295715,164.4008309841156,164.40295147895813,164.4155354499817,164.5659475326538,164.5659475326538,164.5659475326538,164.5659475326538,164.5659475326538,164.5659475326538,164.5659475326538,166.74989199638367,3,2.3215701580047607,None,,,,,,,,,,,,,,,,,,86,5,2025-02-21_15h07.55.742,comp,2024.2.4,60.941133736769075,2025-02-21 15h08.08.190578 -0500,
13,13,0,critical,wdh,20.0,2.1,upper,125.0,200.0,141.0,141.0,200.0,125.0,1,2.820364236831665,None,,,,,0,0,0,0,0,13,13,11,166.76523327827454,,,,,,,,,,,,,,,,,,,,,,,,,,,,,,,,,,,,,,,,,,,,,,,,,,,,,,,,,,,,,,,,,,,,,,,,,,,,,,,,,125.0,200.0,141.0,141.0,200.0,125.0,2.1,2.12,-266,-260,0,-258,229,268,166.7507176399231,166.75075721740723,166.75328826904297,166.76523327827454,166.91560006141663,166.91560006141663,166.91560006141663,166.91560006141663,166.91560006141663,166.91560006141663,166.91560006141663,169.60009694099426,1,2.820364236831665,None,,,,,,,,,,,,,,,,,,86,5,2025-02-21_15h07.55.742,comp,2024.2.4,60.941133736769075,2025-02-21 15h08.08.190578 -0500,
14,14,0,filler_square,None,None,None,None,None,None,None,None,None,None,2,1.970154047012329,None,,,,,0,0,0,0,0,14,14,175,169.61520433425903,,,,,,,,,,,,,,,,,,,,,,,,,,,,,,,,,,,,,,,,,,,,,,,,,,,,,,,,,,,,,,,,,,,,,,,,,,,,,,,,,107.48509338508373,106.71600266725349,133.3069283179505,133.3069283179505,120.45585048341422,125.71894901246759,2.2,2.22,-216,289,0,-261,226,-283,169.6011061668396,169.60115003585815,169.60343027114868,169.61520433425903,169.7653820514679,169.7653820514679,169.7653820514679,169.7653820514679,169.7653820514679,169.7653820514679,169.7653820514679,171.59991025924683,2,1.970154047012329,None,,,,,,,,,,,,,,,,,,86,5,2025-02-21_15h07.55.742,comp,2024.2.4,60.941133736769075,2025-02-21 15h08.08.190578 -0500,
15,15,0,filler_square,None,None,None,None,None,None,None,None,None,None,3,2.170118808746338,None,,,,,0,0,0,0,0,15,15,203,171.61524081230164,,,,,,,,,,,,,,,,,,,,,,,,,,,,,,,,,,,,,,,,,,,,,,,,,,,,,,,,,,,,,,,,,,,,,,,,,,,,,,,,,101.08802923253106,107.0703332942475,105.33975447026836,60.7832835027174,127.45468932517139,127.45468932517139,2.2,2.21,-180,-272,0,263,190,259,171.6008996963501,171.60094165802002,171.6034767627716,171.61524081230164,171.76533603668213,171.76533603668213,171.76533603668213,171.76533603668213,171.76533603668213,171.76533603668213,171.76533603668213,173.79985404014587,3,2.170118808746338,None,,,,,,,,,,,,,,,,,,86,5,2025-02-21_15h07.55.742,comp,2024.2.4,60.941133736769075,2025-02-21 15h08.08.190578 -0500,
16,16,0,catch,None,None,None,None,None,None,None,None,None,None,1,1.2504961490631104,None,,,,,0,0,0,0,0,16,16,129,173.81520819664001,,,,,,,,,,,,,,,,,,,,,,,,,,,,,,,,,,,,,,,,,,,,,,,,,,,,,,,,,,,,,,,,,,,,,,,,,,,,,,,,,138,187,103,87,123,67,4.0,4.1,-233,-285,0,4,173,-274,173.8009397983551,173.80098223686218,173.80357122421265,173.81520819664001,173.96537470817566,173.96537470817566,173.96537470817566,173.96537470817566,173.96537470817566,173.96537470817566,173.96537470817566,175.08303594589233,1,1.2504961490631104,None,,,,,,,,,,,,,,,,,,86,5,2025-02-21_15h07.55.742,comp,2024.2.4,60.941133736769075,2025-02-21 15h08.08.190578 -0500,
17,17,0,filler_square,None,None,None,None,None,None,None,None,None,None,1,3.127681255340576,None,,,,,0,0,0,0,0,17,17,180,175.09852719306946,,,,,,,,,,,,,,,,,,,,,,,,,,,,,,,,,,,,,,,,,,,,,,,,,,,,,,,,,,,,,,,,,,,,,,,,,,,,,,,,,59.17028039053055,59.17028039053055,57.66321058913393,57.64197996542086,58.305074261567526,58.83084192548912,2.1,2.12,-154,-252,0,-262,154,276,175.08411622047424,175.08415961265564,175.0866358280182,175.09852719306946,175.2487075328827,175.2487075328827,175.2487075328827,175.2487075328827,175.2487075328827,175.2487075328827,175.2487075328827,178.2330162525177,1,3.127681255340576,None,,,,,,,,,,,,,,,,,,86,5,2025-02-21_15h07.55.742,comp,2024.2.4,60.941133736769075,2025-02-21 15h08.08.190578 -0500,
18,18,0,filler_square,None,None,None,None,None,None,None,None,None,None,2,3.914806842803955,None,,,,,0,0,0,0,0,18,18,189,178.2487437725067,,,,,,,,,,,,,,,,,,,,,,,,,,,,,,,,,,,,,,,,,,,,,,,,,,,,,,,,,,,,,,,,,,,,,,,,,,,,,,,,,58.70605670878662,71.23953346377469,79.63887783990438,79.63887783990438,60.62175506718417,76.14975573131979,2.2,2.21,-171,-263,0,289,174,288,178.23400783538818,178.2340497970581,178.23660326004028,178.2487437725067,178.39929151535034,178.39929151535034,178.39929151535034,178.39929151535034,178.39929151535034,178.39929151535034,178.39929151535034,182.1664674282074,2,3.914806842803955,None,,,,,,,,,,,,,,,,,,86,5,2025-02-21_15h07.55.742,comp,2024.2.4,60.941133736769075,2025-02-21 15h08.08.190578 -0500,
19,19,0,critical,hdw,35.0,4.0,upper,200.0,125.0,127.0,127.0,125.0,200.0,1,5.467493772506714,None,,,,,0,0,0,0,0,19,19,113,182.18200302124023,,,,,,,,,,,,,,,,,,,,,,,,,,,,,,,,,,,,,,,,,,,,,,,,,,,,,,,,,,,,,,,,,,,,,,,,,,,,,,,,,200.0,125.0,127.0,127.0,125.0,200.0,4.0,4.1,-222,-283,0,6,260,-286,182.16727232933044,182.16731429100037,182.1695065498352,182.18200302124023,182.33213090896606,182.33213090896606,182.33213090896606,182.33213090896606,182.33213090896606,182.33213090896606,182.33213090896606,187.66644883155823,1,5.467493772506714,None,,,,,,,,,,,,,,,,,,86,5,2025-02-21_15h07.55.742,comp,2024.2.4,60.941133736769075,2025-02-21 15h08.08.190578 -0500,
20,20,0,critical,whd,35.0,1.0,upper,125.0,200.0,200.0,125.0,127.0,127.0,2,5.903551816940308,None,,,,,0,0,0,0,0,20,20,85,187.68175387382507,,,,,,,,,,,,,,,,,,,,,,,,,,,,,,,,,,,,,,,,,,,,,,,,,,,,,,,,,,,,,,,,,,,,,,,,,,,,,,,,,125.0,200.0,200.0,125.0,127.0,127.0,1.0,1.1,-738,284,-480,284,-258,278,187.66728854179382,187.66732835769653,187.66971158981323,187.68175387382507,187.83205461502075,187.83205461502075,187.83205461502075,187.83205461502075,187.83205461502075,187.83205461502075,187.83205461502075,193.59978652000427,2,5.903551816940308,None,,,,,,,,,,,,,,,,,,86,5,2025-02-21_15h07.55.742,comp,2024.2.4,60.941133736769075,2025-02-21 15h08.08.190578 -0500,
21,21,0,filler_random,None,None,None,None,None,None,None,None,None,None,1,11.794690132141113,None,,,,,0,0,0,0,0,21,21,142,193.61508417129517,,,,,,,,,,,,,,,,,,,,,,,,,,,,,,,,,,,,,,,,,,,,,,,,,,,,,,,,,,,,,,,,,,,,,,,,,,,,,,,,,117.88412374133786,87.35828600209842,61.328946995294416,133.69773174368166,88.85706627613429,87.46595384721165,2.1,2.11,-207,277,0,287,207,-289,193.60075879096985,193.6007993221283,193.6032874584198,193.61508417129517,193.7651104927063,193.7651104927063,193.7651104927063,193.7651104927063,193.7651104927063,193.7651104927063,193.7651104927063,205.41615867614746,1,11.794690132141113,None,,,,,,,,,,,,,,,,,,86,5,2025-02-21_15h07.55.742,comp,2024.2.4,60.941133736769075,2025-02-21 15h08.08.190578 -0500,
22,22,0,filler_square,None,None,None,None,None,None,None,None,None,None,2,2.6668076515197754,None,,,,,0,0,0,0,0,22,22,190,205.43188571929932,,,,,,,,,,,,,,,,,,,,,,,,,,,,,,,,,,,,,,,,,,,,,,,,,,,,,,,,,,,,,,,,,,,,,,,,,,,,,,,,,75.51584975839056,75.51584975839056,74.14859291363182,72.22152817343962,58.09116184979091,68.55416193840065,2.2,2.21,-170,-286,0,258,166,280,205.4171416759491,205.41719484329224,205.41951775550842,205.43188571929932,205.5817952156067,205.5817952156067,205.5817952156067,205.5817952156067,205.5817952156067,205.5817952156067,205.5817952156067,208.1160912513733,2,2.6668076515197754,None,,,,,,,,,,,,,,,,,,86,5,2025-02-21_15h07.55.742,comp,2024.2.4,60.941133736769075,2025-02-21 15h08.08.190578 -0500,
23,23,0,critical,wdh,35.0,3.0,upper,125.0,200.0,127.0,127.0,200.0,125.0,1,2.8164405822753906,None,,,,,0,0,0,0,0,23,23,75,208.13158226013184,,,,,,,,,,,,,,,,,,,,,,,,,,,,,,,,,,,,,,,,,,,,,,,,,,,,,,,,,,,,,,,,,,,,,,,,,,,,,,,,,125.0,200.0,127.0,127.0,200.0,125.0,3.0,3.2,-260,-276,0,7,222,266,208.11688494682312,208.1169240474701,208.11898064613342,208.13158226013184,208.28187584877014,208.28187584877014,208.28187584877014,208.28187584877014,208.28187584877014,208.28187584877014,208.28187584877014,210.94991612434387,1,2.8164405822753906,None,,,,,,,,,,,,,,,,,,86,5,2025-02-21_15h07.55.742,comp,2024.2.4,60.941133736769075,2025-02-21 15h08.08.190578 -0500,
24,24,0,filler_random,None,None,None,None,None,None,None,None,None,None,3,1.8764567375183105,None,,,,,0,0,0,0,0,24,24,135,210.9652705192566,,,,,,,,,,,,,,,,,,,,,,,,,,,,,,,,,,,,,,,,,,,,,,,,,,,,,,,,,,,,,,,,,,,,,,,,,,,,,,,,,108.97659894131742,125.7334064444746,119.72249235978936,101.7321644001918,137.31829536911388,162.1463582176073,2.2,2.22,-210,271,0,-284,228,-288,210.9508981704712,210.95094084739685,210.95324039459229,210.9652705192566,211.1150608062744,211.1150608062744,211.1150608062744,211.1150608062744,211.1150608062744,211.1150608062744,211.1150608062744,212.84952807426453,3,1.8764567375183105,None,,,,,,,,,,,,,,,,,,86,5,2025-02-21_15h07.55.742,comp,2024.2.4,60.941133736769075,2025-02-21 15h08.08.190578 -0500,
25,25,0,filler_random,None,None,None,None,None,None,None,None,None,None,2,3.0408413410186768,None,,,,,0,0,0,0,0,25,25,166,212.86512517929077,,,,,,,,,,,,,,,,,,,,,,,,,,,,,,,,,,,,,,,,,,,,,,,,,,,,,,,,,,,,,,,,,,,,,,,,,,,,,,,,,84.60970145637853,70.14755845021273,71.69553294986862,152.87870440009678,60.772926637606645,113.83441114341198,1.0,1.2,-208,9,0,15,229,18,212.85042309761047,212.85046291351318,212.85293292999268,212.86512517929077,213.01493906974792,213.01493906974792,213.01493906974792,213.01493906974792,213.01493906974792,213.01493906974792,213.01493906974792,215.91606044769287,2,3.0408413410186768,None,,,,,,,,,,,,,,,,,,86,5,2025-02-21_15h07.55.742,comp,2024.2.4,60.941133736769075,2025-02-21 15h08.08.190578 -0500,
26,26,0,critical,dhw,35.0,2.1,upper,127.0,127.0,200.0,125.0,125.0,200.0,3,2.5839591026306152,None,,,,,0,0,0,0,0,26,26,25,215.93179750442505,,,,,,,,,,,,,,,,,,,,,,,,,,,,,,,,,,,,,,,,,,,,,,,,,,,,,,,,,,,,,,,,,,,,,,,,,,,,,,,,,127.0,127.0,200.0,125.0,125.0,200.0,2.1,2.11,-222,257,0,279,258,-283,215.91685152053833,215.91689109802246,215.91891288757324,215.93179750442505,216.08192205429077,216.08192205429077,216.08192205429077,216.08192205429077,216.08192205429077,216.08192205429077,216.08192205429077,218.53291940689087,3,2.5839591026306152,None,,,,,,,,,,,,,,,,,,86,5,2025-02-21_15h07.55.742,comp,2024.2.4,60.941133736769075,2025-02-21 15h08.08.190578 -0500,
27,27,0,filler_square,None,None,None,None,None,None,None,None,None,None,1,1.8614258766174316,None,,,,,0,0,0,0,0,27,27,200,218.54822301864624,,,,,,,,,,,,,,,,,,,,,,,,,,,,,,,,,,,,,,,,,,,,,,,,,,,,,,,,,,,,,,,,,,,,,,,,,,,,,,,,,115.92780362651007,106.80739589661624,72.30438733141946,117.62944165741122,118.90530924389753,118.90530924389753,3.0,3.2,-208,-279,0,-14,214,278,218.53389310836792,218.5339331626892,218.5364534854889,218.54822301864624,218.6983950138092,218.6983950138092,218.6983950138092,218.6983950138092,218.6983950138092,218.6983950138092,218.6983950138092,220.41618084907532,1,1.8614258766174316,None,,,,,,,,,,,,,,,,,,86,5,2025-02-21_15h07.55.742,comp,2024.2.4,60.941133736769075,2025-02-21 15h08.08.190578 -0500,
28,28,0,filler_random,None,None,None,None,None,None,None,None,None,None,3,1.1207857131958008,None,,,,,0,0,0,0,0,28,28,151,220.43213605880737,,,,,,,,,,,,,,,,,,,,,,,,,,,,,,,,,,,,,,,,,,,,,,,,,,,,,,,,,,,,,,,,,,,,,,,,,,,,,,,,,109.78946932750763,166.72767579057614,100.79988027575337,65.8613389819033,101.12730170708207,167.09046446665803,1.0,1.1,-692,254,-480,285,-268,287,220.4170835018158,220.41712355613708,220.4192202091217,220.43213605880737,220.5817687511444,220.5817687511444,220.5817687511444,220.5817687511444,220.5817687511444,220.5817687511444,220.5817687511444,221.56601858139038,3,1.1207857131958008,None,,,,,,,,,,,,,,,,,,86,5,2025-02-21_15h07.55.742,comp,2024.2.4,60.941133736769075,2025-02-21 15h08.08.190578 -0500,
29,29,0,critical,hwd,35.0,1.0,upper,200.0,125.0,125.0,200.0,127.0,127.0,2,1.6193175315856934,None,,,,,0,0,0,0,0,29,29,97,221.5815246105194,,,,,,,,,,,,,,,,,,,,,,,,,,,,,,,,,,,,,,,,,,,,,,,,,,,,,,,,,,,,,,,,,,,,,,,,,,,,,,,,,200.0,125.0,125.0,200.0,127.0,127.0,1.0,1.1,-738,279,-480,285,-220,286,221.5668749809265,221.56691479682922,221.56959104537964,221.5815246105194,221.73186779022217,221.73186779022217,221.73186779022217,221.73186779022217,221.73186779022217,221.73186779022217,221.73186779022217,223.2162206172943,2,1.6193175315856934,None,,,,,,,,,,,,,,,,,,86,5,2025-02-21_15h07.55.742,comp,2024.2.4,60.941133736769075,2025-02-21 15h08.08.190578 -0500,
30,30,0,critical,hdw,35.0,2.1,lower,133.0,57.0,70.0,70.0,57.0,133.0,3,1.7942605018615723,None,,,,,0,0,0,0,0,30,30,44,223.23152017593384,,,,,,,,,,,,,,,,,,,,,,,,,,,,,,,,,,,,,,,,,,,,,,,,,,,,,,,,,,,,,,,,,,,,,,,,,,,,,,,,,133.0,57.0,70.0,70.0,57.0,133.0,2.1,2.12,-160,-288,0,-254,198,289,223.2170090675354,223.2170491218567,223.22028732299805,223.23152017593384,223.38159203529358,223.38159203529358,223.38159203529358,223.38159203529358,223.38159203529358,223.38159203529358,223.38159203529358,225.03278994560242,3,1.7942605018615723,None,,,,,,,,,,,,,,,,,,86,5,2025-02-21_15h07.55.742,comp,2024.2.4,60.941133736769075,2025-02-21 15h08.08.190578 -0500,
31,31,0,filler_random,None,None,None,None,None,None,None,None,None,None,2,1.0987763404846191,None,,,,,0,0,0,0,0,31,31,147,225.0484743118286,,,,,,,,,,,,,,,,,,,,,,,,,,,,,,,,,,,,,,,,,,,,,,,,,,,,,,,,,,,,,,,,,,,,,,,,,,,,,,,,,60.76115736373803,123.23240885495433,186.5190245262821,111.23469010997499,176.24009627732303,77.34230715505156,3.0,3.1,-213,254,0,-9,190,-261,225.03371024131775,225.03375053405762,225.03584742546082,225.0484743118286,225.19850301742554,225.19850301742554,225.19850301742554,225.19850301742554,225.19850301742554,225.19850301742554,225.19850301742554,226.1498565673828,2,1.0987763404846191,None,,,,,,,,,,,,,,,,,,86,5,2025-02-21_15h07.55.742,comp,2024.2.4,60.941133736769075,2025-02-21 15h08.08.190578 -0500,
32,32,0,filler_square,None,None,None,None,None,None,None,None,None,None,1,2.340654134750366,None,,,,,0,0,0,0,0,32,32,174,226.16508674621582,,,,,,,,,,,,,,,,,,,,,,,,,,,,,,,,,,,,,,,,,,,,,,,,,,,,,,,,,,,,,,,,,,,,,,,,,,,,,,,,,57.07325007332618,57.12566448348061,57.100347822085695,57.0761177697234,57.18110049424599,57.18110049424599,2.2,2.21,-153,-254,0,269,153,285,226.1507863998413,226.1508252620697,226.1533133983612,226.16508674621582,226.3148169517517,226.3148169517517,226.3148169517517,226.3148169517517,226.3148169517517,226.3148169517517,226.3148169517517,228.5159831047058,1,2.340654134750366,None,,,,,,,,,,,,,,,,,,86,5,2025-02-21_15h07.55.742,comp,2024.2.4,60.941133736769075,2025-02-21 15h08.08.190578 -0500,
33,33,0,critical,dwh,35.0,3.0,lower,70.0,70.0,57.0,133.0,133.0,57.0,3,4.032045125961304,None,,,,,0,0,0,0,0,33,33,62,228.5318205356598,,,,,,,,,,,,,,,,,,,,,,,,,,,,,,,,,,,,,,,,,,,,,,,,,,,,,,,,,,,,,,,,,,,,,,,,,,,,,,,,,70.0,70.0,57.0,133.0,133.0,57.0,3.0,3.1,-198,289,0,-4,191,-281,228.51678919792175,228.5168297290802,228.51941752433777,228.5318205356598,228.6816143989563,228.6816143989563,228.6816143989563,228.6816143989563,228.6816143989563,228.6816143989563,228.6816143989563,232.56646847724915,3,4.032045125961304,None,,,,,,,,,,,,,,,,,,86,5,2025-02-21_15h07.55.742,comp,2024.2.4,60.941133736769075,2025-02-21 15h08.08.190578 -0500,
34,34,0,critical,dhw,35.0,2.1,lower,70.0,70.0,133.0,57.0,57.0,133.0,2,3.2439584732055664,None,,,,,0,0,0,0,0,34,34,24,232.58181023597717,,,,,,,,,,,,,,,,,,,,,,,,,,,,,,,,,,,,,,,,,,,,,,,,,,,,,,,,,,,,,,,,,,,,,,,,,,,,,,,,,70.0,70.0,133.0,57.0,57.0,133.0,2.1,2.12,-160,-290,0,-284,191,256,232.5672721862793,232.5673131942749,232.5694351196289,232.58181023597717,232.7315549850464,232.7315549850464,232.7315549850464,232.7315549850464,232.7315549850464,232.7315549850464,232.7315549850464,235.8326132297516,2,3.2439584732055664,None,,,,,,,,,,,,,,,,,,86,5,2025-02-21_15h07.55.742,comp,2024.2.4,60.941133736769075,2025-02-21 15h08.08.190578 -0500,
35,35,0,filler_square,None,None,None,None,None,None,None,None,None,None,1,1.3933746814727783,None,,,,,0,0,0,0,0,35,35,171,235.8483383655548,,,,,,,,,,,,,,,,,,,,,,,,,,,,,,,,,,,,,,,,,,,,,,,,,,,,,,,,,,,,,,,,,,,,,,,,,,,,,,,,,86.13706687896774,86.13706687896774,67.29943856984714,61.477850030000944,73.04044151453337,59.51693996151859,2.2,2.21,-170,-265,0,262,156,280,235.8336079120636,235.8336479663849,235.83601784706116,235.8483383655548,235.99810147285461,235.99810147285461,235.99810147285461,235.99810147285461,235.99810147285461,235.99810147285461,235.99810147285461,237.24928307533264,1,1.3933746814727783,None,,,,,,,,,,,,,,,,,,86,5,2025-02-21_15h07.55.742,comp,2024.2.4,60.941133736769075,2025-02-21 15h08.08.190578 -0500,
36,36,0,critical,hwd,35.0,1.0,lower,133.0,57.0,57.0,133.0,70.0,70.0,1,1.5925474166870117,None,,,,,0,0,0,0,0,36,36,96,237.26503801345825,,,,,,,,,,,,,,,,,,,,,,,,,,,,,,,,,,,,,,,,,,,,,,,,,,,,,,,,,,,,,,,,,,,,,,,,,,,,,,,,,133.0,57.0,57.0,133.0,70.0,70.0,1.0,1.1,-671,259,-480,255,-282,266,237.25008749961853,237.25012850761414,237.25247955322266,237.26503801345825,237.41486597061157,237.41486597061157,237.41486597061157,237.41486597061157,237.41486597061157,237.41486597061157,237.41486597061157,238.86601543426514,1,1.5925474166870117,None,,,,,,,,,,,,,,,,,,86,5,2025-02-21_15h07.55.742,comp,2024.2.4,60.941133736769075,2025-02-21 15h08.08.190578 -0500,
37,37,0,critical,dhw,35.0,3.0,lower,70.0,70.0,133.0,57.0,57.0,133.0,3,1.1437945365905762,None,,,,,0,0,0,0,0,37,37,50,238.8817117214203,,,,,,,,,,,,,,,,,,,,,,,,,,,,,,,,,,,,,,,,,,,,,,,,,,,,,,,,,,,,,,,,,,,,,,,,,,,,,,,,,70.0,70.0,133.0,57.0,57.0,133.0,3.0,3.1,-160,276,0,19,191,-289,238.86683773994446,238.8668782711029,238.8694818019867,238.8817117214203,239.0316572189331,239.0316572189331,239.0316572189331,239.0316572189331,239.0316572189331,239.0316572189331,239.0316572189331,240.03268885612488,3,1.1437945365905762,None,,,,,,,,,,,,,,,,,,86,5,2025-02-21_15h07.55.742,comp,2024.2.4,60.941133736769075,2025-02-21 15h08.08.190578 -0500,
38,38,0,filler_square,None,None,None,None,None,None,None,None,None,None,2,2.3933894634246826,None,,,,,0,0,0,0,0,38,38,188,240.0483090877533,,,,,,,,,,,,,,,,,,,,,,,,,,,,,,,,,,,,,,,,,,,,,,,,,,,,,,,,,,,,,,,,,,,,,,,,,,,,,,,,,65.74948840324429,69.84665799876639,73.29331541310495,73.29331541310495,69.22251547152135,58.975639009492035,4.0,4.2,-168,-16,0,-260,162,-2,240.03363466262817,240.03367519378662,240.0360722541809,240.0483090877533,240.1981155872345,240.1981155872345,240.1981155872345,240.1981155872345,240.1981155872345,240.1981155872345,240.1981155872345,242.4494149684906,2,2.3933894634246826,None,,,,,,,,,,,,,,,,,,86,5,2025-02-21_15h07.55.742,comp,2024.2.4,60.941133736769075,2025-02-21 15h08.08.190578 -0500,
39,39,0,filler_random,None,None,None,None,None,None,None,None,None,None,2,1.000539779663086,None,,,,,0,0,0,0,0,39,39,143,242.46507668495178,,,,,,,,,,,,,,,,,,,,,,,,,,,,,,,,,,,,,,,,,,,,,,,,,,,,,,,,,,,,,,,,,,,,,,,,,,,,,,,,,102.14899843911613,104.70860969138903,165.1290943017156,155.38691191716353,169.5798570070633,101.65152915132597,2.1,2.11,-226,259,0,261,225,-264,242.4503571987152,242.45039796829224,242.45280170440674,242.46507668495178,242.61502408981323,242.61502408981323,242.61502408981323,242.61502408981323,242.61502408981323,242.61502408981323,242.61502408981323,243.48281955718994,2,1.000539779663086,None,,,,,,,,,,,,,,,,,,86,5,2025-02-21_15h07.55.742,comp,2024.2.4,60.941133736769075,2025-02-21 15h08.08.190578 -0500,
40,40,0,critical,hwd,35.0,2.1,lower,133.0,57.0,57.0,133.0,70.0,70.0,2,1.4547076225280762,None,,,,,0,0,0,0,0,40,40,40,243.49809288978577,,,,,,,,,,,,,,,,,,,,,,,,,,,,,,,,,,,,,,,,,,,,,,,,,,,,,,,,,,,,,,,,,,,,,,,,,,,,,,,,,133.0,57.0,57.0,133.0,70.0,70.0,2.1,2.11,-191,282,0,251,198,-263,243.48364424705505,243.48368525505066,243.4858124256134,243.49809288978577,243.64814734458923,243.64814734458923,243.64814734458923,243.64814734458923,243.64814734458923,243.64814734458923,243.64814734458923,244.96585249900818,2,1.4547076225280762,None,,,,,,,,,,,,,,,,,,86,5,2025-02-21_15h07.55.742,comp,2024.2.4,60.941133736769075,2025-02-21 15h08.08.190578 -0500,
41,41,0,critical,hdw,35.0,3.0,lower,133.0,57.0,70.0,70.0,57.0,133.0,3,2.5336029529571533,None,,,,,0,0,0,0,0,41,41,110,244.98134446144104,,,,,,,,,,,,,,,,,,,,,,,,,,,,,,,,,,,,,,,,,,,,,,,,,,,,,,,,,,,,,,,,,,,,,,,,,,,,,,,,,133.0,57.0,70.0,70.0,57.0,133.0,3.0,3.2,-160,-277,0,9,198,283,244.96678590774536,244.96682357788086,244.96935486793518,244.98134446144104,245.13185954093933,245.13185954093933,245.13185954093933,245.13185954093933,245.13185954093933,245.13185954093933,245.13185954093933,247.5325243473053,3,2.5336029529571533,None,,,,,,,,,,,,,,,,,,86,5,2025-02-21_15h07.55.742,comp,2024.2.4,60.941133736769075,2025-02-21 15h08.08.190578 -0500,
42,42,0,filler_random,None,None,None,None,None,None,None,None,None,None,1,2.4686837196350098,None,,,,,0,0,0,0,0,42,42,155,247.5479826927185,,,,,,,,,,,,,,,,,,,,,,,,,,,,,,,,,,,,,,,,,,,,,,,,,,,,,,,,,,,,,,,,,,,,,,,,,,,,,,,,,184.27649928143416,199.01821254413426,164.12250728047317,193.96669228640096,97.71572155936192,109.75673095421223,2.2,2.21,-292,-279,0,286,248,260,247.53343868255615,247.5334804058075,247.535897731781,247.5479826927185,247.6983482837677,247.6983482837677,247.6983482837677,247.6983482837677,247.6983482837677,247.6983482837677,247.6983482837677,250.0329360961914,1,2.4686837196350098,None,,,,,,,,,,,,,,,,,,86,5,2025-02-21_15h07.55.742,comp,2024.2.4,60.941133736769075,2025-02-21 15h08.08.190578 -0500,
43,43,0,critical,hdw,35.0,3.0,upper,200.0,125.0,127.0,127.0,125.0,200.0,3,3.683655023574829,None,,,,,0,0,0,0,0,43,43,111,250.04808807373047,,,,,,,,,,,,,,,,,,,,,,,,,,,,,,,,,,,,,,,,,,,,,,,,,,,,,,,,,,,,,,,,,,,,,,,,,,,,,,,,,200.0,125.0,127.0,127.0,125.0,200.0,3.0,3.1,-222,289,0,-15,260,-268,250.0337553024292,250.0337953567505,250.03632354736328,250.04808807373047,250.19836497306824,250.19836497306824,250.19836497306824,250.19836497306824,250.19836497306824,250.19836497306824,250.19836497306824,253.73301148414612,3,3.683655023574829,None,,,,,,,,,,,,,,,,,,86,5,2025-02-21_15h07.55.742,comp,2024.2.4,60.941133736769075,2025-02-21 15h08.08.190578 -0500,
44,44,0,critical,dhw,35.0,4.0,upper,127.0,127.0,200.0,125.0,125.0,200.0,3,1.4210963249206543,None,,,,,0,0,0,0,0,44,44,53,253.74829411506653,,,,,,,,,,,,,,,,,,,,,,,,,,,,,,,,,,,,,,,,,,,,,,,,,,,,,,,,,,,,,,,,,,,,,,,,,,,,,,,,,127.0,127.0,200.0,125.0,125.0,200.0,4.0,4.1,-222,-264,0,5,258,-269,253.7338297367096,253.73387050628662,253.73598837852478,253.74829411506653,253.89828658103943,253.89828658103943,253.89828658103943,253.89828658103943,253.89828658103943,253.89828658103943,253.89828658103943,255.18301391601562,3,1.4210963249206543,None,,,,,,,,,,,,,,,,,,86,5,2025-02-21_15h07.55.742,comp,2024.2.4,60.941133736769075,2025-02-21 15h08.08.190578 -0500,
45,45,0,critical,hwd,20.0,2.1,upper,200.0,125.0,125.0,200.0,141.0,141.0,2,3.267275094985962,None,,,,,0,0,0,0,0,45,45,19,255.19806575775146,,,,,,,,,,,,,,,,,,,,,,,,,,,,,,,,,,,,,,,,,,,,,,,,,,,,,,,,,,,,,,,,,,,,,,,,,,,,,,,,,200.0,125.0,125.0,200.0,141.0,141.0,2.1,2.12,-258,-250,0,-266,266,251,255.18381810188293,255.18385887145996,255.18636226654053,255.19806575775146,255.34836220741272,255.34836220741272,255.34836220741272,255.34836220741272,255.34836220741272,255.34836220741272,255.34836220741272,258.48271584510803,2,3.267275094985962,None,,,,,,,,,,,,,,,,,,86,5,2025-02-21_15h07.55.742,comp,2024.2.4,60.941133736769075,2025-02-21 15h08.08.190578 -0500,
46,46,0,critical,whd,35.0,3.0,upper,125.0,200.0,200.0,125.0,127.0,127.0,2,4.143423080444336,None,,,,,0,0,0,0,0,46,46,87,258.49801230430603,,,,,,,,,,,,,,,,,,,,,,,,,,,,,,,,,,,,,,,,,,,,,,,,,,,,,,,,,,,,,,,,,,,,,,,,,,,,,,,,,125.0,200.0,200.0,125.0,127.0,127.0,3.0,3.2,-258,-289,0,9,222,284,258.4835307598114,258.4835696220398,258.48595809936523,258.49801230430603,258.6482410430908,258.6482410430908,258.6482410430908,258.6482410430908,258.6482410430908,258.6482410430908,258.6482410430908,262.64942693710327,2,4.143423080444336,None,,,,,,,,,,,,,,,,,,86,5,2025-02-21_15h07.55.742,comp,2024.2.4,60.941133736769075,2025-02-21 15h08.08.190578 -0500,
47,47,0,filler_random,None,None,None,None,None,None,None,None,None,None,3,1.2715988159179688,None,,,,,0,0,0,0,0,47,47,162,262.66491198539734,,,,,,,,,,,,,,,,,,,,,,,,,,,,,,,,,,,,,,,,,,,,,,,,,,,,,,,,,,,,,,,,,,,,,,,,,,,,,,,,,66.50230524833972,185.5022350072852,90.24673315531504,92.21069631551406,178.84760183484667,152.81227381383377,2.1,2.11,-235,268,0,273,219,-287,262.65037274360657,262.6504156589508,262.6525454521179,262.66491198539734,262.8148546218872,262.8148546218872,262.8148546218872,262.8148546218872,262.8148546218872,262.8148546218872,262.8148546218872,263.94926738739014,3,1.2715988159179688,None,,,,,,,,,,,,,,,,,,86,5,2025-02-21_15h07.55.742,comp,2024.2.4,60.941133736769075,2025-02-21 15h08.08.190578 -0500,
48,48,0,critical,whd,35.0,2.1,upper,125.0,200.0,200.0,125.0,127.0,127.0,2,1.6048345565795898,None,,,,,0,0,0,0,0,48,48,37,263.96453499794006,,,,,,,,,,,,,,,,,,,,,,,,,,,,,,,,,,,,,,,,,,,,,,,,,,,,,,,,,,,,,,,,,,,,,,,,,,,,,,,,,125.0,200.0,200.0,125.0,127.0,127.0,2.1,2.11,-258,280,0,276,222,-281,263.9500389099121,263.9500765800476,263.95206475257874,263.96453499794006,264.11493706703186,264.11493706703186,264.11493706703186,264.11493706703186,264.11493706703186,264.11493706703186,264.11493706703186,265.58274698257446,2,1.6048345565795898,None,,,,,,,,,,,,,,,,,,86,5,2025-02-21_15h07.55.742,comp,2024.2.4,60.941133736769075,2025-02-21 15h08.08.190578 -0500,
49,49,0,catch,None,None,None,None,None,None,None,None,None,None,2,1.091782808303833,None,,,,,0,0,0,0,0,49,49,123,265.5979161262512,,,,,,,,,,,,,,,,,,,,,,,,,,,,,,,,,,,,,,,,,,,,,,,,,,,,,,,,,,,,,,,,,,,,,,,,,,,,,,,,,76,114,157,168,78,112,4.0,4.1,-237,-263,0,4,236,-290,265.5838050842285,265.58384704589844,265.58630633354187,265.5979161262512,265.74808740615845,265.74808740615845,265.74808740615845,265.74808740615845,265.74808740615845,265.74808740615845,265.74808740615845,266.6991889476776,2,1.091782808303833,None,,,,,,,,,,,,,,,,,,86,5,2025-02-21_15h07.55.742,comp,2024.2.4,60.941133736769075,2025-02-21 15h08.08.190578 -0500,
50,50,0,critical,dwh,35.0,2.1,upper,127.0,127.0,125.0,200.0,200.0,125.0,3,1.72666597366333,None,,,,,0,0,0,0,0,50,50,5,266.71478033065796,,,,,,,,,,,,,,,,,,,,,,,,,,,,,,,,,,,,,,,,,,,,,,,,,,,,,,,,,,,,,,,,,,,,,,,,,,,,,,,,,127.0,127.0,125.0,200.0,200.0,125.0,2.1,2.12,-260,-253,0,-284,258,264,266.7000377178192,266.7000780105591,266.70224046707153,266.71478033065796,266.8648838996887,266.8648838996887,266.8648838996887,266.8648838996887,266.8648838996887,266.8648838996887,266.8648838996887,268.4493098258972,3,1.72666597366333,None,,,,,,,,,,,,,,,,,,86,5,2025-02-21_15h07.55.742,comp,2024.2.4,60.941133736769075,2025-02-21 15h08.08.190578 -0500,
51,51,0,critical,hdw,35.0,1.0,upper,200.0,125.0,127.0,127.0,125.0,200.0,3,1.5044476985931396,None,,,,,0,0,0,0,0,51,51,109,268.46482968330383,,,,,,,,,,,,,,,,,,,,,,,,,,,,,,,,,,,,,,,,,,,,,,,,,,,,,,,,,,,,,,,,,,,,,,,,,,,,,,,,,200.0,125.0,127.0,127.0,125.0,200.0,1.0,1.2,-222,3,0,-12,260,-5,268.4500722885132,268.4501140117645,268.4521985054016,268.46482968330383,268.61488223075867,268.61488223075867,268.61488223075867,268.61488223075867,268.61488223075867,268.61488223075867,268.61488223075867,269.98275208473206,3,1.5044476985931396,None,,,,,,,,,,,,,,,,,,86,5,2025-02-21_15h07.55.742,comp,2024.2.4,60.941133736769075,2025-02-21 15h08.08.190578 -0500,
52,52,0,critical,wdh,35.0,4.0,upper,125.0,200.0,127.0,127.0,200.0,125.0,3,1.3385651111602783,None,,,,,0,0,0,0,0,52,52,77,269.99790239334106,,,,,,,,,,,,,,,,,,,,,,,,,,,,,,,,,,,,,,,,,,,,,,,,,,,,,,,,,,,,,,,,,,,,,,,,,,,,,,,,,125.0,200.0,127.0,127.0,200.0,125.0,4.0,4.2,-260,18,0,-275,222,-3,269.9835510253906,269.9835903644562,269.98597741127014,269.99790239334106,270.15020871162415,270.15020871162415,270.15020871162415,270.15020871162415,270.15020871162415,270.15020871162415,270.15020871162415,271.3493208885193,3,1.3385651111602783,None,,,,,,,,,,,,,,,,,,86,5,2025-02-21_15h07.55.742,comp,2024.2.4,60.941133736769075,2025-02-21 15h08.08.190578 -0500,
53,53,0,critical,wdh,35.0,1.0,lower,57.0,133.0,70.0,70.0,133.0,57.0,3,5.325106620788574,None,,,,,0,0,0,0,0,53,53,72,271.364577293396,,,,,,,,,,,,,,,,,,,,,,,,,,,,,,,,,,,,,,,,,,,,,,,,,,,,,,,,,,,,,,,,,,,,,,,,,,,,,,,,,57.0,133.0,70.0,70.0,133.0,57.0,1.0,1.1,-678,268,-480,274,-320,260,271.3501064777374,271.35014724731445,271.352374792099,271.364577293396,271.51505994796753,271.51505994796753,271.51505994796753,271.51505994796753,271.51505994796753,271.51505994796753,271.51505994796753,276.69907879829407,3,5.325106620788574,None,,,,,,,,,,,,,,,,,,86,5,2025-02-21_15h07.55.742,comp,2024.2.4,60.941133736769075,2025-02-21 15h08.08.190578 -0500,
54,54,0,critical,hwd,35.0,4.0,upper,200.0,125.0,125.0,200.0,127.0,127.0,2,5.032941818237305,None,,,,,0,0,0,0,0,54,54,101,276.71470952033997,,,,,,,,,,,,,,,,,,,,,,,,,,,,,,,,,,,,,,,,,,,,,,,,,,,,,,,,,,,,,,,,,,,,,,,,,,,,,,,,,200.0,125.0,125.0,200.0,127.0,127.0,4.0,4.2,-258,-18,0,-289,260,-4,276.69990849494934,276.6999499797821,276.7022705078125,276.71470952033997,276.864857673645,276.864857673645,276.864857673645,276.864857673645,276.864857673645,276.864857673645,276.864857673645,281.7658405303955,2,5.032941818237305,None,,,,,,,,,,,,,,,,,,86,5,2025-02-21_15h07.55.742,comp,2024.2.4,60.941133736769075,2025-02-21 15h08.08.190578 -0500,
55,55,0,critical,hdw,20.0,1.0,upper,200.0,125.0,141.0,141.0,125.0,200.0,3,1.2442092895507812,None,,,,,0,0,0,0,0,55,55,115,281.7811346054077,,,,,,,,,,,,,,,,,,,,,,,,,,,,,,,,,,,,,,,,,,,,,,,,,,,,,,,,,,,,,,,,,,,,,,,,,,,,,,,,,200.0,125.0,141.0,141.0,125.0,200.0,1.0,1.1,-709,285,-480,255,-214,270,281.76667761802673,281.7667179107666,281.76919889450073,281.7811346054077,281.93154740333557,281.93154740333557,281.93154740333557,281.93154740333557,281.93154740333557,281.93154740333557,281.93154740333557,283.0327732563019,3,1.2442092895507812,None,,,,,,,,,,,,,,,,,,86,5,2025-02-21_15h07.55.742,comp,2024.2.4,60.941133736769075,2025-02-21 15h08.08.190578 -0500,
56,56,0,filler_random,None,None,None,None,None,None,None,None,None,None,3,1.250295877456665,None,,,,,0,0,0,0,0,56,56,152,283.04811000823975,,,,,,,,,,,,,,,,,,,,,,,,,,,,,,,,,,,,,,,,,,,,,,,,,,,,,,,,,,,,,,,,,,,,,,,,,,,,,,,,,81.28334784091084,66.55268216628107,189.00702380539127,153.40842193364247,178.87484500866483,193.66637591408093,1.0,1.3,274,-271,480,-286,750,-252,283.033695936203,283.0337369441986,283.0358579158783,283.04811000823975,283.19799041748047,283.19799041748047,283.19799041748047,283.19799041748047,283.19799041748047,283.19799041748047,283.19799041748047,284.3161566257477,3,1.250295877456665,None,,,,,,,,,,,,,,,,,,86,5,2025-02-21_15h07.55.742,comp,2024.2.4,60.941133736769075,2025-02-21 15h08.08.190578 -0500,
57,57,0,critical,dhw,35.0,2.1,upper,127.0,127.0,200.0,125.0,125.0,200.0,2,1.6313934326171875,None,,,,,0,0,0,0,0,57,57,1,284.3312358856201,,,,,,,,,,,,,,,,,,,,,,,,,,,,,,,,,,,,,,,,,,,,,,,,,,,,,,,,,,,,,,,,,,,,,,,,,,,,,,,,,127.0,127.0,200.0,125.0,125.0,200.0,2.1,2.11,-222,289,0,275,258,-285,284.3169665336609,284.3170065879822,284.319500207901,284.3312358856201,284.4814658164978,284.4814658164978,284.4814658164978,284.4814658164978,284.4814658164978,284.4814658164978,284.4814658164978,285.96641635894775,2,1.6313934326171875,None,,,,,,,,,,,,,,,,,,86,5,2025-02-21_15h07.55.742,comp,2024.2.4,60.941133736769075,2025-02-21 15h08.08.190578 -0500,
58,58,0,catch,None,None,None,None,None,None,None,None,None,None,1,1.1079649925231934,None,,,,,0,0,0,0,0,58,58,125,285.9813733100891,,,,,,,,,,,,,,,,,,,,,,,,,,,,,,,,,,,,,,,,,,,,,,,,,,,,,,,,,,,,,,,,,,,,,,,,,,,,,,,,,167,158,70,120,76,114,2.1,2.12,-235,-267,0,-254,213,280,285.96749234199524,285.96753573417664,285.9696698188782,285.9813733100891,286.1312367916107,286.1312367916107,286.1312367916107,286.1312367916107,286.1312367916107,286.1312367916107,286.1312367916107,287.09903478622437,1,1.1079649925231934,None,,,,,,,,,,,,,,,,,,86,5,2025-02-21_15h07.55.742,comp,2024.2.4,60.941133736769075,2025-02-21 15h08.08.190578 -0500,
59,59,0,critical,hwd,35.0,2.1,upper,200.0,125.0,125.0,200.0,127.0,127.0,1,2.1911027431488037,None,,,,,0,0,0,0,0,59,59,17,287.11465406417847,,,,,,,,,,,,,,,,,,,,,,,,,,,,,,,,,,,,,,,,,,,,,,,,,,,,,,,,,,,,,,,,,,,,,,,,,,,,,,,,,200.0,125.0,125.0,200.0,127.0,127.0,2.1,2.11,-258,266,0,276,260,-287,287.09987711906433,287.09991788864136,287.1026418209076,287.11465406417847,287.26474499702454,287.26474499702454,287.26474499702454,287.26474499702454,287.26474499702454,287.26474499702454,287.26474499702454,289.31578183174133,1,2.1911027431488037,None,,,,,,,,,,,,,,,,,,86,5,2025-02-21_15h07.55.742,comp,2024.2.4,60.941133736769075,2025-02-21 15h08.08.190578 -0500,
60,60,0,critical,hdw,20.0,2.1,lower,133.0,57.0,78.0,78.0,57.0,133.0,3,2.216042995452881,None,,,,,0,0,0,0,0,60,60,46,289.3312768936157,,,,,,,,,,,,,,,,,,,,,,,,,,,,,,,,,,,,,,,,,,,,,,,,,,,,,,,,,,,,,,,,,,,,,,,,,,,,,,,,,133.0,57.0,78.0,78.0,57.0,133.0,2.1,2.11,-164,285,0,263,202,-278,289.3165819644928,289.31662249565125,289.3188314437866,289.3312768936157,289.4812796115875,289.4812796115875,289.4812796115875,289.4812796115875,289.4812796115875,289.4812796115875,289.4812796115875,291.5656454563141,3,2.216042995452881,None,,,,,,,,,,,,,,,,,,86,5,2025-02-21_15h07.55.742,comp,2024.2.4,60.941133736769075,2025-02-21 15h08.08.190578 -0500,
61,61,0,filler_square,None,None,None,None,None,None,None,None,None,None,1,1.3714888095855713,None,,,,,0,0,0,0,0,61,61,207,291.5976595878601,,,,,,,,,,,,,,,,,,,,,,,,,,,,,,,,,,,,,,,,,,,,,,,,,,,,,,,,,,,,,,,,,,,,,,,,,,,,,,,,,98.76827941309051,98.76827941309051,83.31306834438635,94.47455568994789,95.78922315737377,81.43180935621335,3.0,3.2,-193,-284,0,-8,184,262,291.56673073768616,291.5667724609375,291.5694441795349,291.5976595878601,291.73112440109253,291.73112440109253,291.73112440109253,291.73112440109253,291.73112440109253,291.73112440109253,291.73112440109253,292.9825346469879,1,1.3714888095855713,None,,,,,,,,,,,,,,,,,,86,5,2025-02-21_15h07.55.742,comp,2024.2.4,60.941133736769075,2025-02-21 15h08.08.190578 -0500,
62,62,0,filler_random,None,None,None,None,None,None,None,None,None,None,2,1.4596178531646729,None,,,,,0,0,0,0,0,62,62,132,292.99771666526794,,,,,,,,,,,,,,,,,,,,,,,,,,,,,,,,,,,,,,,,,,,,,,,,,,,,,,,,,,,,,,,,,,,,,,,,,,,,,,,,,143.52602208089084,75.34440939313032,148.25471673026584,147.14762371064313,119.63726441801346,178.23586967034612,4.0,4.2,-207,10,0,-263,259,-14,292.98344564437866,292.98348689079285,292.9858431816101,292.99771666526794,293.14805245399475,293.14805245399475,293.14805245399475,293.14805245399475,293.14805245399475,293.14805245399475,293.14805245399475,294.46580147743225,2,1.4596178531646729,None,,,,,,,,,,,,,,,,,,86,5,2025-02-21_15h07.55.742,comp,2024.2.4,60.941133736769075,2025-02-21 15h08.08.190578 -0500,
63,63,0,critical,dhw,20.0,2.1,upper,141.0,141.0,200.0,125.0,125.0,200.0,3,1.888108491897583,None,,,,,0,0,0,0,0,63,63,3,294.481157541275,,,,,,,,,,,,,,,,,,,,,,,,,,,,,,,,,,,,,,,,,,,,,,,,,,,,,,,,,,,,,,,,,,,,,,,,,,,,,,,,,141.0,141.0,200.0,125.0,125.0,200.0,2.1,2.11,-229,254,0,262,258,-279,294.46665239334106,294.4666919708252,294.46914625167847,294.481157541275,294.63137125968933,294.63137125968933,294.63137125968933,294.63137125968933,294.63137125968933,294.63137125968933,294.63137125968933,296.38260769844055,3,1.888108491897583,None,,,,,,,,,,,,,,,,,,86,5,2025-02-21_15h07.55.742,comp,2024.2.4,60.941133736769075,2025-02-21 15h08.08.190578 -0500,
64,64,0,critical,hwd,20.0,1.0,lower,133.0,57.0,57.0,133.0,78.0,78.0,3,3.2116756439208984,None,,,,,0,0,0,0,0,64,64,102,296.3977234363556,,,,,,,,,,,,,,,,,,,,,,,,,,,,,,,,,,,,,,,,,,,,,,,,,,,,,,,,,,,,,,,,,,,,,,,,,,,,,,,,,133.0,57.0,57.0,133.0,78.0,78.0,1.0,1.1,-671,279,-480,260,-278,265,296.38342356681824,296.3834640979767,296.3858540058136,296.3977234363556,296.54833984375,296.54833984375,296.54833984375,296.54833984375,296.54833984375,296.54833984375,296.54833984375,299.6155490875244,3,3.2116756439208984,None,,,,,,,,,,,,,,,,,,86,5,2025-02-21_15h07.55.742,comp,2024.2.4,60.941133736769075,2025-02-21 15h08.08.190578 -0500,
65,65,0,critical,whd,20.0,3.0,lower,57.0,133.0,133.0,57.0,78.0,78.0,1,3.4010674953460693,None,,,,,0,0,0,0,0,65,65,92,299.63122034072876,,,,,,,,,,,,,,,,,,,,,,,,,,,,,,,,,,,,,,,,,,,,,,,,,,,,,,,,,,,,,,,,,,,,,,,,,,,,,,,,,57.0,133.0,133.0,57.0,78.0,78.0,3.0,3.2,-191,-286,0,18,164,277,299.616357088089,299.6163980960846,299.61879777908325,299.63122034072876,299.78117394447327,299.78117394447327,299.78117394447327,299.78117394447327,299.78117394447327,299.78117394447327,299.78117394447327,303.0489239692688,1,3.4010674953460693,None,,,,,,,,,,,,,,,,,,86,5,2025-02-21_15h07.55.742,comp,2024.2.4,60.941133736769075,2025-02-21 15h08.08.190578 -0500,
66,66,0,critical,dwh,20.0,1.0,upper,141.0,141.0,125.0,200.0,200.0,125.0,1,6.8669703006744385,None,,,,,0,0,0,0,0,66,66,67,303.0643608570099,,,,,,,,,,,,,,,,,,,,,,,,,,,,,,,,,,,,,,,,,,,,,,,,,,,,,,,,,,,,,,,,,,,,,,,,,,,,,,,,,141.0,141.0,125.0,200.0,200.0,125.0,1.0,1.3,214,-259,480,-259,738,-269,303.04971051216125,303.04974913597107,303.0522520542145,303.0643608570099,303.2146701812744,303.2146701812744,303.2146701812744,303.2146701812744,303.2146701812744,303.2146701812744,303.2146701812744,309.9327530860901,1,6.8669703006744385,None,,,,,,,,,,,,,,,,,,86,5,2025-02-21_15h07.55.742,comp,2024.2.4,60.941133736769075,2025-02-21 15h08.08.190578 -0500,
67,67,0,critical,dwh,20.0,4.0,upper,141.0,141.0,125.0,200.0,200.0,125.0,3,1.7008986473083496,None,,,,,0,0,0,0,0,67,67,71,309.94792437553406,,,,,,,,,,,,,,,,,,,,,,,,,,,,,,,,,,,,,,,,,,,,,,,,,,,,,,,,,,,,,,,,,,,,,,,,,,,,,,,,,141.0,141.0,125.0,200.0,200.0,125.0,4.0,4.1,-266,-258,0,-13,258,-276,309.9335696697235,309.9336099624634,309.93573546409607,309.94792437553406,310.09801268577576,310.09801268577576,310.09801268577576,310.09801268577576,310.09801268577576,310.09801268577576,310.09801268577576,311.6656804084778,3,1.7008986473083496,None,,,,,,,,,,,,,,,,,,86,5,2025-02-21_15h07.55.742,comp,2024.2.4,60.941133736769075,2025-02-21 15h08.08.190578 -0500,
68,68,0,critical,dwh,20.0,3.0,lower,78.0,78.0,57.0,133.0,133.0,57.0,1,6.696555852890015,None,,,,,0,0,0,0,0,68,68,68,311.6809685230255,,,,,,,,,,,,,,,,,,,,,,,,,,,,,,,,,,,,,,,,,,,,,,,,,,,,,,,,,,,,,,,,,,,,,,,,,,,,,,,,,78.0,78.0,57.0,133.0,133.0,57.0,3.0,3.1,-202,281,0,-16,191,-252,311.6664786338806,311.6665196418762,311.66892671585083,311.6809685230255,311.83100509643555,311.83100509643555,311.83100509643555,311.83100509643555,311.83100509643555,311.83100509643555,311.83100509643555,318.38223934173584,1,6.696555852890015,None,,,,,,,,,,,,,,,,,,86,5,2025-02-21_15h07.55.742,comp,2024.2.4,60.941133736769075,2025-02-21 15h08.08.190578 -0500,
69,69,0,critical,dwh,20.0,2.1,upper,141.0,141.0,125.0,200.0,200.0,125.0,3,3.386475086212158,None,,,,,0,0,0,0,0,69,69,31,318.39777064323425,,,,,,,,,,,,,,,,,,,,,,,,,,,,,,,,,,,,,,,,,,,,,,,,,,,,,,,,,,,,,,,,,,,,,,,,,,,,,,,,,141.0,141.0,125.0,200.0,200.0,125.0,2.1,2.12,-266,-253,0,-273,258,260,318.3830461502075,318.3830852508545,318.38524103164673,318.39777064323425,318.5482704639435,318.5482704639435,318.5482704639435,318.5482704639435,318.5482704639435,318.5482704639435,318.5482704639435,321.79901480674744,3,3.386475086212158,None,,,,,,,,,,,,,,,,,,86,5,2025-02-21_15h07.55.742,comp,2024.2.4,60.941133736769075,2025-02-21 15h08.08.190578 -0500,
70,70,0,critical,wdh,35.0,3.0,lower,57.0,133.0,70.0,70.0,133.0,57.0,1,5.332870960235596,None,,,,,0,0,0,0,0,70,70,74,321.8142201900482,,,,,,,,,,,,,,,,,,,,,,,,,,,,,,,,,,,,,,,,,,,,,,,,,,,,,,,,,,,,,,,,,,,,,,,,,,,,,,,,,57.0,133.0,70.0,70.0,133.0,57.0,3.0,3.2,-198,-256,0,17,160,281,321.79982471466064,321.79986453056335,321.80236625671387,321.8142201900482,321.9641890525818,321.9641890525818,321.9641890525818,321.9641890525818,321.9641890525818,321.9641890525818,321.9641890525818,327.14883041381836,1,5.332870960235596,None,,,,,,,,,,,,,,,,,,86,5,2025-02-21_15h07.55.742,comp,2024.2.4,60.941133736769075,2025-02-21 15h08.08.190578 -0500,
71,71,0,filler_square,None,None,None,None,None,None,None,None,None,None,3,0.8926749229431152,None,,,,,0,0,0,0,0,71,71,191,327.164381980896,,,,,,,,,,,,,,,,,,,,,,,,,,,,,,,,,,,,,,,,,,,,,,,,,,,,,,,,,,,,,,,,,,,,,,,,,,,,,,,,,83.89344974911123,104.10080728022314,115.55582041511114,69.25199559824631,116.80328929411132,116.80328929411132,4.0,4.2,-183,-18,0,-266,189,-9,327.1498086452484,327.1498501300812,327.15236806869507,327.164381980896,327.3142430782318,327.3142430782318,327.3142430782318,327.3142430782318,327.3142430782318,327.3142430782318,327.3142430782318,328.065452337265,3,0.8926749229431152,None,,,,,,,,,,,,,,,,,,86,5,2025-02-21_15h07.55.742,comp,2024.2.4,60.941133736769075,2025-02-21 15h08.08.190578 -0500,
72,72,0,filler_square,None,None,None,None,None,None,None,None,None,None,1,0.9119412899017334,None,,,,,0,0,0,0,0,72,72,205,328.0809819698334,,,,,,,,,,,,,,,,,,,,,,,,,,,,,,,,,,,,,,,,,,,,,,,,,,,,,,,,,,,,,,,,,,,,,,,,,,,,,,,,,107.49956946781404,107.49956946781404,87.04379808764718,61.998248345391694,76.69069731360995,81.90908026993466,3.0,3.1,-181,252,0,-9,168,-272,328.0664553642273,328.06649827957153,328.06896924972534,328.0809819698334,328.2309527397156,328.2309527397156,328.2309527397156,328.2309527397156,328.2309527397156,328.2309527397156,328.2309527397156,328.9987313747406,1,0.9119412899017334,None,,,,,,,,,,,,,,,,,,86,5,2025-02-21_15h07.55.742,comp,2024.2.4,60.941133736769075,2025-02-21 15h08.08.190578 -0500,
73,73,0,critical,hdw,35.0,2.1,upper,200.0,125.0,127.0,127.0,125.0,200.0,3,1.034135341644287,None,,,,,0,0,0,0,0,73,73,21,329.01428747177124,,,,,,,,,,,,,,,,,,,,,,,,,,,,,,,,,,,,,,,,,,,,,,,,,,,,,,,,,,,,,,,,,,,,,,,,,,,,,,,,,200.0,125.0,127.0,127.0,125.0,200.0,2.1,2.11,-222,259,0,281,260,-259,328.9995713233948,328.9996120929718,329.0020146369934,329.01428747177124,329.1644332408905,329.1644332408905,329.1644332408905,329.1644332408905,329.1644332408905,329.1644332408905,329.1644332408905,330.06580090522766,3,1.034135341644287,None,,,,,,,,,,,,,,,,,,86,5,2025-02-21_15h07.55.742,comp,2024.2.4,60.941133736769075,2025-02-21 15h08.08.190578 -0500,
74,74,0,critical,dhw,20.0,2.1,upper,141.0,141.0,200.0,125.0,125.0,200.0,1,1.33528470993042,None,,,,,0,0,0,0,0,74,74,27,330.0808775424957,,,,,,,,,,,,,,,,,,,,,,,,,,,,,,,,,,,,,,,,,,,,,,,,,,,,,,,,,,,,,,,,,,,,,,,,,,,,,,,,,141.0,141.0,200.0,125.0,125.0,200.0,2.1,2.11,-229,276,0,268,258,-275,330.0666193962097,330.06665992736816,330.0687789916992,330.0808775424957,330.23114013671875,330.23114013671875,330.23114013671875,330.23114013671875,330.23114013671875,330.23114013671875,330.23114013671875,331.4322247505188,1,1.33528470993042,None,,,,,,,,,,,,,,,,,,86,5,2025-02-21_15h07.55.742,comp,2024.2.4,60.941133736769075,2025-02-21 15h08.08.190578 -0500,
75,75,0,catch,None,None,None,None,None,None,None,None,None,None,3,0.8173141479492188,None,,,,,0,0,0,0,0,75,75,127,331.44754004478455,,,,,,,,,,,,,,,,,,,,,,,,,,,,,,,,,,,,,,,,,,,,,,,,,,,,,,,,,,,,,,,,,,,,,,,,,,,,,,,,,125,65,116,74,141,184,2.1,2.12,-166,-251,0,-275,225,284,331.43329405784607,331.4333369731903,331.4357304573059,331.44754004478455,331.59755849838257,331.59755849838257,331.59755849838257,331.59755849838257,331.59755849838257,331.59755849838257,331.59755849838257,332.2823576927185,3,0.8173141479492188,None,,,,,,,,,,,,,,,,,,86,5,2025-02-21_15h07.55.742,comp,2024.2.4,60.941133736769075,2025-02-21 15h08.08.190578 -0500,
76,76,0,filler_square,None,None,None,None,None,None,None,None,None,None,2,1.5276811122894287,None,,,,,0,0,0,0,0,76,76,201,332.2974965572357,,,,,,,,,,,,,,,,,,,,,,,,,,,,,,,,,,,,,,,,,,,,,,,,,,,,,,,,,,,,,,,,,,,,,,,,,,,,,,,,,99.57105942203142,73.76384593616501,107.99129596593261,107.99129596593261,63.14357460717659,99.11953066154345,2.1,2.11,-187,266,0,277,200,-255,332.2833468914032,332.2833881378174,332.2855439186096,332.2974965572357,332.44759464263916,332.44759464263916,332.44759464263916,332.44759464263916,332.44759464263916,332.44759464263916,332.44759464263916,333.8320620059967,2,1.5276811122894287,None,,,,,,,,,,,,,,,,,,86,5,2025-02-21_15h07.55.742,comp,2024.2.4,60.941133736769075,2025-02-21 15h08.08.190578 -0500,
77,77,0,filler_random,None,None,None,None,None,None,None,None,None,None,3,1.3452162742614746,None,,,,,0,0,0,0,0,77,77,154,333.84770798683167,,,,,,,,,,,,,,,,,,,,,,,,,,,,,,,,,,,,,,,,,,,,,,,,,,,,,,,,,,,,,,,,,,,,,,,,,,,,,,,,,124.16445540748063,103.2526504777949,79.57515132261602,166.59560648303747,176.97760255101596,93.76351235763795,2.2,2.21,-231,-250,0,256,226,265,333.8329885005951,333.83302998542786,333.8354825973511,333.84770798683167,333.9976637363434,333.9976637363434,333.9976637363434,333.9976637363434,333.9976637363434,333.9976637363434,333.9976637363434,335.1987690925598,3,1.3452162742614746,None,,,,,,,,,,,,,,,,,,86,5,2025-02-21_15h07.55.742,comp,2024.2.4,60.941133736769075,2025-02-21 15h08.08.190578 -0500,
78,78,0,filler_random,None,None,None,None,None,None,None,None,None,None,3,1.3378267288208008,None,,,,,0,0,0,0,0,78,78,133,335.2143642902374,,,,,,,,,,,,,,,,,,,,,,,,,,,,,,,,,,,,,,,,,,,,,,,,,,,,,,,,,,,,,,,,,,,,,,,,,,,,,,,,,138.2954124592049,63.953297221640426,97.40184987564854,199.5089994915392,123.34139492377032,141.97521117540492,1.0,1.3,252,-275,480,-256,747,-252,335.1996612548828,335.1997003555298,335.20208764076233,335.2143642902374,335.3643171787262,335.3643171787262,335.3643171787262,335.3643171787262,335.3643171787262,335.3643171787262,335.3643171787262,336.56547021865845,3,1.3378267288208008,None,,,,,,,,,,,,,,,,,,86,5,2025-02-21_15h07.55.742,comp,2024.2.4,60.941133736769075,2025-02-21 15h08.08.190578 -0500,
79,79,0,critical,whd,35.0,3.0,lower,57.0,133.0,133.0,57.0,70.0,70.0,1,2.827929973602295,None,,,,,0,0,0,0,0,79,79,86,336.58091592788696,,,,,,,,,,,,,,,,,,,,,,,,,,,,,,,,,,,,,,,,,,,,,,,,,,,,,,,,,,,,,,,,,,,,,,,,,,,,,,,,,57.0,133.0,133.0,57.0,70.0,70.0,3.0,3.2,-191,-271,0,11,160,256,336.5662615299225,336.5663015842438,336.56866550445557,336.58091592788696,336.73075675964355,336.73075675964355,336.73075675964355,336.73075675964355,336.73075675964355,336.73075675964355,336.73075675964355,339.41525316238403,1,2.827929973602295,None,,,,,,,,,,,,,,,,,,86,5,2025-02-21_15h07.55.742,comp,2024.2.4,60.941133736769075,2025-02-21 15h08.08.190578 -0500,
80,80,0,critical,whd,20.0,2.1,lower,57.0,133.0,133.0,57.0,78.0,78.0,3,2.4890482425689697,None,,,,,0,0,0,0,0,80,80,14,339.43098855018616,,,,,,,,,,,,,,,,,,,,,,,,,,,,,,,,,,,,,,,,,,,,,,,,,,,,,,,,,,,,,,,,,,,,,,,,,,,,,,,,,57.0,133.0,133.0,57.0,78.0,78.0,2.1,2.11,-191,255,0,276,164,-263,339.41604804992676,339.41608810424805,339.4184329509735,339.43098855018616,339.5808207988739,339.5808207988739,339.5808207988739,339.5808207988739,339.5808207988739,339.5808207988739,339.5808207988739,341.93210792541504,3,2.4890482425689697,None,,,,,,,,,,,,,,,,,,86,5,2025-02-21_15h07.55.742,comp,2024.2.4,60.941133736769075,2025-02-21 15h08.08.190578 -0500,
81,81,0,critical,hwd,20.0,4.0,lower,133.0,57.0,57.0,133.0,78.0,78.0,2,4.637023687362671,None,,,,,0,0,0,0,0,81,81,106,341.94729828834534,,,,,,,,,,,,,,,,,,,,,,,,,,,,,,,,,,,,,,,,,,,,,,,,,,,,,,,,,,,,,,,,,,,,,,,,,,,,,,,,,133.0,57.0,57.0,133.0,78.0,78.0,4.0,4.2,-191,19,0,-257,202,16,341.93287777900696,341.9329159259796,341.93487548828125,341.94729828834534,342.09748101234436,342.09748101234436,342.09748101234436,342.09748101234436,342.09748101234436,342.09748101234436,342.09748101234436,346.59862089157104,2,4.637023687362671,None,,,,,,,,,,,,,,,,,,86,5,2025-02-21_15h07.55.742,comp,2024.2.4,60.941133736769075,2025-02-21 15h08.08.190578 -0500,
82,82,0,critical,whd,35.0,2.1,lower,57.0,133.0,133.0,57.0,70.0,70.0,2,4.035417795181274,None,,,,,0,0,0,0,0,82,82,12,346.6140830516815,,,,,,,,,,,,,,,,,,,,,,,,,,,,,,,,,,,,,,,,,,,,,,,,,,,,,,,,,,,,,,,,,,,,,,,,,,,,,,,,,57.0,133.0,133.0,57.0,70.0,70.0,2.1,2.12,-191,-261,0,-269,160,259,346.5994277000427,346.59946751594543,346.6019084453583,346.6140830516815,346.7640962600708,346.7640962600708,346.7640962600708,346.7640962600708,346.7640962600708,346.7640962600708,346.7640962600708,350.66507625579834,2,4.035417795181274,None,,,,,,,,,,,,,,,,,,86,5,2025-02-21_15h07.55.742,comp,2024.2.4,60.941133736769075,2025-02-21 15h08.08.190578 -0500,
83,83,0,filler_square,None,None,None,None,None,None,None,None,None,None,1,1.0172090530395508,None,,,,,0,0,0,0,0,83,83,195,350.68067479133606,,,,,,,,,,,,,,,,,,,,,,,,,,,,,,,,,,,,,,,,,,,,,,,,,,,,,,,,,,,,,,,,,,,,,,,,,,,,,,,,,138.45205403390688,138.45205403390688,59.45486134586733,75.03244826278058,89.85201392067793,66.08446378848808,1.0,1.3,277,-251,480,-275,647,-252,350.666051864624,350.6660940647125,350.6686625480652,350.68067479133606,350.83079385757446,350.83079385757446,350.83079385757446,350.83079385757446,350.83079385757446,350.83079385757446,350.83079385757446,351.7152535915375,1,1.0172090530395508,None,,,,,,,,,,,,,,,,,,86,5,2025-02-21_15h07.55.742,comp,2024.2.4,60.941133736769075,2025-02-21 15h08.08.190578 -0500,
84,84,0,critical,wdh,20.0,2.1,lower,57.0,133.0,78.0,78.0,133.0,57.0,1,1.2213566303253174,None,,,,,0,0,0,0,0,84,84,34,351.73068380355835,,,,,,,,,,,,,,,,,,,,,,,,,,,,,,,,,,,,,,,,,,,,,,,,,,,,,,,,,,,,,,,,,,,,,,,,,,,,,,,,,57.0,133.0,78.0,78.0,133.0,57.0,2.1,2.11,-202,263,0,262,164,-254,351.7160713672638,351.71611309051514,351.71820878982544,351.73068380355835,351.880793094635,351.880793094635,351.880793094635,351.880793094635,351.880793094635,351.880793094635,351.880793094635,352.9650716781616,1,1.2213566303253174,None,,,,,,,,,,,,,,,,,,86,5,2025-02-21_15h07.55.742,comp,2024.2.4,60.941133736769075,2025-02-21 15h08.08.190578 -0500,
85,85,0,critical,wdh,20.0,4.0,upper,125.0,200.0,141.0,141.0,200.0,125.0,3,1.571399450302124,None,,,,,0,0,0,0,0,85,85,83,352.98065209388733,,,,,,,,,,,,,,,,,,,,,,,,,,,,,,,,,,,,,,,,,,,,,,,,,,,,,,,,,,,,,,,,,,,,,,,,,,,,,,,,,125.0,200.0,141.0,141.0,200.0,125.0,4.0,4.1,-266,-275,0,-15,229,-279,352.9658958911896,352.96593499183655,352.9691388607025,352.98065209388733,353.1310396194458,353.1310396194458,353.1310396194458,353.1310396194458,353.1310396194458,353.1310396194458,353.1310396194458,354.5654044151306,3,1.571399450302124,None,,,,,,,,,,,,,,,,,,86,5,2025-02-21_15h07.55.742,comp,2024.2.4,60.941133736769075,2025-02-21 15h08.08.190578 -0500,
86,86,0,critical,whd,20.0,2.1,upper,125.0,200.0,200.0,125.0,141.0,141.0,2,1.0842399597167969,None,,,,,0,0,0,0,0,86,86,15,354.5805995464325,,,,,,,,,,,,,,,,,,,,,,,,,,,,,,,,,,,,,,,,,,,,,,,,,,,,,,,,,,,,,,,,,,,,,,,,,,,,,,,,,125.0,200.0,200.0,125.0,141.0,141.0,2.1,2.12,-258,-288,0,-278,229,259,354.566214799881,354.56625533103943,354.5683512687683,354.5805995464325,354.7309019565582,354.7309019565582,354.7309019565582,354.7309019565582,354.7309019565582,354.7309019565582,354.7309019565582,355.6820693016052,2,1.0842399597167969,None,,,,,,,,,,,,,,,,,,86,5,2025-02-21_15h07.55.742,comp,2024.2.4,60.941133736769075,2025-02-21 15h08.08.190578 -0500,
87,87,0,filler_square,None,None,None,None,None,None,None,None,None,None,3,0.9115869998931885,None,,,,,0,0,0,0,0,87,87,192,355.69727635383606,,,,,,,,,,,,,,,,,,,,,,,,,,,,,,,,,,,,,,,,,,,,,,,,,,,,,,,,,,,,,,,,,,,,,,,,,,,,,,,,,107.54844654646872,95.86428379643021,67.33609767886422,60.83053665544128,107.94827709478682,107.94827709478682,1.0,1.1,-654,272,-480,264,-300,250,355.683052778244,355.6830949783325,355.6856234073639,355.69727635383606,355.84741282463074,355.84741282463074,355.84741282463074,355.84741282463074,355.84741282463074,355.84741282463074,355.84741282463074,356.61522030830383,3,0.9115869998931885,None,,,,,,,,,,,,,,,,,,86,5,2025-02-21_15h07.55.742,comp,2024.2.4,60.941133736769075,2025-02-21 15h08.08.190578 -0500,
88,88,0,critical,hwd,35.0,4.0,lower,133.0,57.0,57.0,133.0,70.0,70.0,2,1.3319239616394043,None,,,,,0,0,0,0,0,88,88,100,356.63082790374756,,,,,,,,,,,,,,,,,,,,,,,,,,,,,,,,,,,,,,,,,,,,,,,,,,,,,,,,,,,,,,,,,,,,,,,,,,,,,,,,,133.0,57.0,57.0,133.0,70.0,70.0,4.0,4.1,-191,-281,0,-9,198,-259,356.61601734161377,356.6160578727722,356.6181843280792,356.63082790374756,356.7807626724243,356.7807626724243,356.7807626724243,356.7807626724243,356.7807626724243,356.7807626724243,356.7807626724243,357.96535181999207,2,1.3319239616394043,None,,,,,,,,,,,,,,,,,,86,5,2025-02-21_15h07.55.742,comp,2024.2.4,60.941133736769075,2025-02-21 15h08.08.190578 -0500,
89,89,0,filler_random,None,None,None,None,None,None,None,None,None,None,2,1.7169408798217773,None,,,,,0,0,0,0,0,89,89,131,357.98089122772217,,,,,,,,,,,,,,,,,,,,,,,,,,,,,,,,,,,,,,,,,,,,,,,,,,,,,,,,,,,,,,,,,,,,,,,,,,,,,,,,,191.29929367219538,99.9910903726073,136.65222748238847,130.48119627775284,173.46593925725384,76.05339877836592,4.0,4.2,-211,-7,0,-256,199,-16,357.9663197994232,357.96636152267456,357.96893095970154,357.98089122772217,358.1308732032776,358.1308732032776,358.1308732032776,358.1308732032776,358.1308732032776,358.1308732032776,358.1308732032776,359.71534991264343,2,1.7169408798217773,None,,,,,,,,,,,,,,,,,,86,5,2025-02-21_15h07.55.742,comp,2024.2.4,60.941133736769075,2025-02-21 15h08.08.190578 -0500,
90,90,0,critical,wdh,20.0,1.0,upper,125.0,200.0,141.0,141.0,200.0,125.0,3,0.9749705791473389,None,,,,,0,0,0,0,0,90,90,79,359.7306342124939,,,,,,,,,,,,,,,,,,,,,,,,,,,,,,,,,,,,,,,,,,,,,,,,,,,,,,,,,,,,,,,,,,,,,,,,,,,,,,,,,125.0,200.0,141.0,141.0,200.0,125.0,1.0,1.1,-746,264,-480,260,-251,267,359.7161409854889,359.71619272232056,359.7182881832123,359.7306342124939,359.88090801239014,359.88090801239014,359.88090801239014,359.88090801239014,359.88090801239014,359.88090801239014,359.88090801239014,360.7155683040619,3,0.9749705791473389,None,,,,,,,,,,,,,,,,,,86,5,2025-02-21_15h07.55.742,comp,2024.2.4,60.941133736769075,2025-02-21 15h08.08.190578 -0500,
91,91,0,filler_square,None,None,None,None,None,None,None,None,None,None,1,1.2049620151519775,None,,,,,0,0,0,0,0,91,91,178,360.7309944629669,,,,,,,,,,,,,,,,,,,,,,,,,,,,,,,,,,,,,,,,,,,,,,,,,,,,,,,,,,,,,,,,,,,,,,,,,,,,,,,,,140.1373503524764,140.1373503524764,96.04977056788806,139.0523400604298,135.14950745876047,126.87754126277122,1.0,1.3,244,-261,480,-273,709,-281,360.71654987335205,360.7165927886963,360.71869587898254,360.7309944629669,360.88081431388855,360.88081431388855,360.88081431388855,360.88081431388855,360.88081431388855,360.88081431388855,360.88081431388855,361.94897389411926,1,1.2049620151519775,None,,,,,,,,,,,,,,,,,,86,5,2025-02-21_15h07.55.742,comp,2024.2.4,60.941133736769075,2025-02-21 15h08.08.190578 -0500,
92,92,0,critical,dwh,35.0,3.0,upper,127.0,127.0,125.0,200.0,200.0,125.0,3,2.2842841148376465,None,,,,,0,0,0,0,0,92,92,63,361.9639163017273,,,,,,,,,,,,,,,,,,,,,,,,,,,,,,,,,,,,,,,,,,,,,,,,,,,,,,,,,,,,,,,,,,,,,,,,,,,,,,,,,127.0,127.0,125.0,200.0,200.0,125.0,3.0,3.2,-260,-260,0,16,258,281,361.94978380203247,361.94982409477234,361.9523277282715,361.9639163017273,362.1146948337555,362.1146948337555,362.1146948337555,362.1146948337555,362.1146948337555,362.1146948337555,362.1146948337555,364.2653980255127,3,2.2842841148376465,None,,,,,,,,,,,,,,,,,,86,5,2025-02-21_15h07.55.742,comp,2024.2.4,60.941133736769075,2025-02-21 15h08.08.190578 -0500,
93,93,0,critical,wdh,35.0,1.0,upper,125.0,200.0,127.0,127.0,200.0,125.0,3,2.4551873207092285,None,,,,,0,0,0,0,0,93,93,73,364.28061509132385,,,,,,,,,,,,,,,,,,,,,,,,,,,,,,,,,,,,,,,,,,,,,,,,,,,,,,,,,,,,,,,,,,,,,,,,,,,,,,,,,125.0,200.0,127.0,127.0,200.0,125.0,1.0,1.2,-260,-18,0,-19,222,-15,364.26618337631226,364.26622343063354,364.2683298587799,364.28061509132385,364.43115758895874,364.43115758895874,364.43115758895874,364.43115758895874,364.43115758895874,364.43115758895874,364.43115758895874,366.74863624572754,3,2.4551873207092285,None,,,,,,,,,,,,,,,,,,86,5,2025-02-21_15h07.55.742,comp,2024.2.4,60.941133736769075,2025-02-21 15h08.08.190578 -0500,
94,94,0,critical,hwd,35.0,2.1,lower,133.0,57.0,57.0,133.0,70.0,70.0,1,3.684109687805176,None,,,,,0,0,0,0,0,94,94,16,366.7638020515442,,,,,,,,,,,,,,,,,,,,,,,,,,,,,,,,,,,,,,,,,,,,,,,,,,,,,,,,,,,,,,,,,,,,,,,,,,,,,,,,,133.0,57.0,57.0,133.0,70.0,70.0,2.1,2.11,-191,275,0,279,198,-287,366.7494549751282,366.7494955062866,366.75191378593445,366.7638020515442,366.9139711856842,366.9139711856842,366.9139711856842,366.9139711856842,366.9139711856842,366.9139711856842,366.9139711856842,370.46508860588074,1,3.684109687805176,None,,,,,,,,,,,,,,,,,,86,5,2025-02-21_15h07.55.742,comp,2024.2.4,60.941133736769075,2025-02-21 15h08.08.190578 -0500,
95,95,0,critical,whd,35.0,2.1,upper,125.0,200.0,200.0,125.0,127.0,127.0,2,4.0962748527526855,None,,,,,0,0,0,0,0,95,95,13,370.48055028915405,,,,,,,,,,,,,,,,,,,,,,,,,,,,,,,,,,,,,,,,,,,,,,,,,,,,,,,,,,,,,,,,,,,,,,,,,,,,,,,,,125.0,200.0,200.0,125.0,127.0,127.0,2.1,2.12,-258,-252,0,-286,222,262,370.4659044742584,370.4659445285797,370.46803736686707,370.48055028915405,370.63081645965576,370.63081645965576,370.63081645965576,370.63081645965576,370.63081645965576,370.63081645965576,370.63081645965576,374.5819835662842,2,4.0962748527526855,None,,,,,,,,,,,,,,,,,,86,5,2025-02-21_15h07.55.742,comp,2024.2.4,60.941133736769075,2025-02-21 15h08.08.190578 -0500,
96,96,0,filler_random,None,None,None,None,None,None,None,None,None,None,2,2.316892623901367,None,,,,,0,0,0,0,0,96,96,158,374.59735655784607,,,,,,,,,,,,,,,,,,,,,,,,,,,,,,,,,,,,,,,,,,,,,,,,,,,,,,,,,,,,,,,,,,,,,,,,,,,,,,,,,160.09702092724166,129.04289287825156,160.06044598864298,176.2463154157395,82.53236140406692,79.04823667317152,3.0,3.2,-249,-285,0,9,224,271,374.58288836479187,374.58292746543884,374.58549666404724,374.59735655784607,374.74746537208557,374.74746537208557,374.74746537208557,374.74746537208557,374.74746537208557,374.74746537208557,374.74746537208557,376.9154546260834,2,2.316892623901367,None,,,,,,,,,,,,,,,,,,86,5,2025-02-21_15h07.55.742,comp,2024.2.4,60.941133736769075,2025-02-21 15h08.08.190578 -0500,
97,97,0,critical,whd,20.0,2.1,lower,57.0,133.0,133.0,57.0,78.0,78.0,3,1.8690969944000244,None,,,,,0,0,0,0,0,97,97,38,376.9307825565338,,,,,,,,,,,,,,,,,,,,,,,,,,,,,,,,,,,,,,,,,,,,,,,,,,,,,,,,,,,,,,,,,,,,,,,,,,,,,,,,,57.0,133.0,133.0,57.0,78.0,78.0,2.1,2.12,-191,-259,0,-274,164,262,376.91624546051025,376.9162871837616,376.9184670448303,376.9307825565338,377.0806303024292,377.0806303024292,377.0806303024292,377.0806303024292,377.0806303024292,377.0806303024292,377.0806303024292,378.81522154808044,3,1.8690969944000244,None,,,,,,,,,,,,,,,,,,86,5,2025-02-21_15h07.55.742,comp,2024.2.4,60.941133736769075,2025-02-21 15h08.08.190578 -0500,
98,98,0,filler_square,None,None,None,None,None,None,None,None,None,None,2,1.4014699459075928,None,,,,,0,0,0,0,0,98,98,199,378.8303897380829,,,,,,,,,,,,,,,,,,,,,,,,,,,,,,,,,,,,,,,,,,,,,,,,,,,,,,,,,,,,,,,,,,,,,,,,,,,,,,,,,80.2184232891657,62.4022809087452,82.77381119209247,82.77381119209247,67.66992324375333,63.254683603185406,3.0,3.2,-169,-271,0,7,169,276,378.8161768913269,378.8162188529968,378.81851077079773,378.8303897380829,378.98046112060547,378.98046112060547,378.98046112060547,378.98046112060547,378.98046112060547,378.98046112060547,378.98046112060547,380.2483232021332,2,1.4014699459075928,None,,,,,,,,,,,,,,,,,,86,5,2025-02-21_15h07.55.742,comp,2024.2.4,60.941133736769075,2025-02-21 15h08.08.190578 -0500,
99,99,0,critical,wdh,20.0,2.1,lower,57.0,133.0,78.0,78.0,133.0,57.0,1,2.113189458847046,None,,,,,0,0,0,0,0,99,99,10,380.2638404369354,,,,,,,,,,,,,,,,,,,,,,,,,,,,,,,,,,,,,,,,,,,,,,,,,,,,,,,,,,,,,,,,,,,,,,,,,,,,,,,,,57.0,133.0,78.0,78.0,133.0,57.0,2.1,2.11,-202,288,0,261,164,-273,380.24908900260925,380.2491281032562,380.25110507011414,380.2638404369354,380.41380405426025,380.41380405426025,380.41380405426025,380.41380405426025,380.41380405426025,380.41380405426025,380.41380405426025,382.381849527359,1,2.113189458847046,None,,,,,,,,,,,,,,,,,,86,5,2025-02-21_15h07.55.742,comp,2024.2.4,60.941133736769075,2025-02-21 15h08.08.190578 -0500,
100,100,0,filler_square,None,None,None,None,None,None,None,None,None,None,1,1.0670363903045654,None,,,,,0,0,0,0,0,100,100,187,382.3973865509033,,,,,,,,,,,,,,,,,,,,,,,,,,,,,,,,,,,,,,,,,,,,,,,,,,,,,,,,,,,,,,,,,,,,,,,,,,,,,,,,,191.2524508636214,191.2524508636214,142.16727430579516,111.7409013680548,143.41505332969857,57.77365715294361,2.2,2.21,-247,-286,0,267,181,270,382.38279151916504,382.3828332424164,382.3853192329407,382.3973865509033,382.547483921051,382.547483921051,382.547483921051,382.547483921051,382.547483921051,382.547483921051,382.547483921051,383.4818232059479,1,1.0670363903045654,None,,,,,,,,,,,,,,,,,,86,5,2025-02-21_15h07.55.742,comp,2024.2.4,60.941133736769075,2025-02-21 15h08.08.190578 -0500,
101,101,0,critical,whd,20.0,1.0,lower,57.0,133.0,133.0,57.0,78.0,78.0,3,1.8954076766967773,None,,,,,0,0,0,0,0,101,101,90,383.4972002506256,,,,,,,,,,,,,,,,,,,,,,,,,,,,,,,,,,,,,,,,,,,,,,,,,,,,,,,,,,,,,,,,,,,,,,,,,,,,,,,,,57.0,133.0,133.0,57.0,78.0,78.0,1.0,1.2,-191,19,0,-10,164,7,383.48264479637146,383.4826865196228,383.48515915870667,383.4972002506256,383.64715480804443,383.64715480804443,383.64715480804443,383.64715480804443,383.64715480804443,383.64715480804443,383.64715480804443,385.3984079360962,3,1.8954076766967773,None,,,,,,,,,,,,,,,,,,86,5,2025-02-21_15h07.55.742,comp,2024.2.4,60.941133736769075,2025-02-21 15h08.08.190578 -0500,
102,102,0,critical,hwd,20.0,2.1,lower,133.0,57.0,57.0,133.0,78.0,78.0,1,3.0503573417663574,None,,,,,0,0,0,0,0,102,102,18,385.4139840602875,,,,,,,,,,,,,,,,,,,,,,,,,,,,,,,,,,,,,,,,,,,,,,,,,,,,,,,,,,,,,,,,,,,,,,,,,,,,,,,,,133.0,57.0,57.0,133.0,78.0,78.0,2.1,2.11,-191,272,0,290,202,-270,385.39920258522034,385.39924335479736,385.4016091823578,385.4139840602875,385.563827753067,385.563827753067,385.563827753067,385.563827753067,385.563827753067,385.563827753067,385.563827753067,388.4816451072693,1,3.0503573417663574,None,,,,,,,,,,,,,,,,,,86,5,2025-02-21_15h07.55.742,comp,2024.2.4,60.941133736769075,2025-02-21 15h08.08.190578 -0500,
103,103,0,critical,dhw,35.0,4.0,lower,70.0,70.0,133.0,57.0,57.0,133.0,3,3.5114872455596924,None,,,,,0,0,0,0,0,103,103,52,388.49708914756775,,,,,,,,,,,,,,,,,,,,,,,,,,,,,,,,,,,,,,,,,,,,,,,,,,,,,,,,,,,,,,,,,,,,,,,,,,,,,,,,,70.0,70.0,133.0,57.0,57.0,133.0,4.0,4.2,-160,-11,0,-269,191,14,388.48244190216064,388.48248291015625,388.48500657081604,388.49708914756775,388.6472067832947,388.6472067832947,388.6472067832947,388.6472067832947,388.6472067832947,388.6472067832947,388.6472067832947,392.0149097442627,3,3.5114872455596924,None,,,,,,,,,,,,,,,,,,86,5,2025-02-21_15h07.55.742,comp,2024.2.4,60.941133736769075,2025-02-21 15h08.08.190578 -0500,
104,104,0,filler_random,None,None,None,None,None,None,None,None,None,None,3,5.0340495109558105,None,,,,,0,0,0,0,0,104,104,130,392.0305767059326,,,,,,,,,,,,,,,,,,,,,,,,,,,,,,,,,,,,,,,,,,,,,,,,,,,,,,,,,,,,,,,,,,,,,,,,,,,,,,,,,156.36307459473892,69.21618095495353,159.08690173302108,116.96949432094418,158.34853844401272,131.4388082717875,2.1,2.12,-189,-270,0,-277,220,268,392.01581835746765,392.0158603191376,392.01840829849243,392.0305767059326,392.1806719303131,392.1806719303131,392.1806719303131,392.1806719303131,392.1806719303131,392.1806719303131,392.1806719303131,397.08179330825806,3,5.0340495109558105,None,,,,,,,,,,,,,,,,,,86,5,2025-02-21_15h07.55.742,comp,2024.2.4,60.941133736769075,2025-02-21 15h08.08.190578 -0500,
105,105,0,critical,hwd,35.0,3.0,lower,133.0,57.0,57.0,133.0,70.0,70.0,2,7.886829376220703,None,,,,,0,0,0,0,0,105,105,98,397.0969433784485,,,,,,,,,,,,,,,,,,,,,,,,,,,,,,,,,,,,,,,,,,,,,,,,,,,,,,,,,,,,,,,,,,,,,,,,,,,,,,,,,133.0,57.0,57.0,133.0,70.0,70.0,3.0,3.1,-191,252,0,13,198,-278,397.0826041698456,397.0826449394226,397.08508801460266,397.0969433784485,397.2477459907532,397.2477459907532,397.2477459907532,397.2477459907532,397.2477459907532,397.2477459907532,397.2477459907532,404.99819111824036,2,7.886829376220703,None,,,,,,,,,,,,,,,,,,86,5,2025-02-21_15h07.55.742,comp,2024.2.4,60.941133736769075,2025-02-21 15h08.08.190578 -0500,
106,106,0,critical,whd,35.0,2.1,lower,57.0,133.0,133.0,57.0,70.0,70.0,1,2.2908012866973877,None,,,,,0,0,0,0,0,106,106,36,405.01361203193665,,,,,,,,,,,,,,,,,,,,,,,,,,,,,,,,,,,,,,,,,,,,,,,,,,,,,,,,,,,,,,,,,,,,,,,,,,,,,,,,,57.0,133.0,133.0,57.0,70.0,70.0,2.1,2.12,-191,-286,0,-282,160,260,404.99898982048035,404.9990313053131,405.00110816955566,405.01361203193665,405.16364097595215,405.16364097595215,405.16364097595215,405.16364097595215,405.16364097595215,405.16364097595215,405.16364097595215,407.3146975040436,1,2.2908012866973877,None,,,,,,,,,,,,,,,,,,86,5,2025-02-21_15h07.55.742,comp,2024.2.4,60.941133736769075,2025-02-21 15h08.08.190578 -0500,
107,107,0,critical,wdh,20.0,4.0,lower,57.0,133.0,78.0,78.0,133.0,57.0,1,2.3418102264404297,None,,,,,0,0,0,0,0,107,107,82,407.3305768966675,,,,,,,,,,,,,,,,,,,,,,,,,,,,,,,,,,,,,,,,,,,,,,,,,,,,,,,,,,,,,,,,,,,,,,,,,,,,,,,,,57.0,133.0,78.0,78.0,133.0,57.0,4.0,4.2,-202,16,0,-268,164,-14,407.31548714637756,407.31552720069885,407.3175473213196,407.3305768966675,407.480402469635,407.480402469635,407.480402469635,407.480402469635,407.480402469635,407.480402469635,407.480402469635,409.68148851394653,1,2.3418102264404297,None,,,,,,,,,,,,,,,,,,86,5,2025-02-21_15h07.55.742,comp,2024.2.4,60.941133736769075,2025-02-21 15h08.08.190578 -0500,
108,108,0,critical,dwh,20.0,1.0,lower,78.0,78.0,57.0,133.0,133.0,57.0,1,5.399966239929199,None,,,,,0,0,0,0,0,108,108,66,409.69712233543396,,,,,,,,,,,,,,,,,,,,,,,,,,,,,,,,,,,,,,,,,,,,,,,,,,,,,,,,,,,,,,,,,,,,,,,,,,,,,,,,,78.0,78.0,57.0,133.0,133.0,57.0,1.0,1.3,278,-287,480,-259,671,-266,409.6823000907898,409.6823410987854,409.6847445964813,409.69712233543396,409.84691047668457,409.84691047668457,409.84691047668457,409.84691047668457,409.84691047668457,409.84691047668457,409.84691047668457,415.09835171699524,1,5.399966239929199,None,,,,,,,,,,,,,,,,,,86,5,2025-02-21_15h07.55.742,comp,2024.2.4,60.941133736769075,2025-02-21 15h08.08.190578 -0500,
109,109,0,filler_random,None,None,None,None,None,None,None,None,None,None,3,1.367142677307129,None,,,,,0,0,0,0,0,109,109,164,415.1137568950653,,,,,,,,,,,,,,,,,,,,,,,,,,,,,,,,,,,,,,,,,,,,,,,,,,,,,,,,,,,,,,,,,,,,,,,,,,,,,,,,,178.82944150353745,163.75207574119162,94.40271725049259,94.47471124731165,189.02709562345322,185.3996105724017,1.0,1.1,-705,252,-480,281,-244,263,415.0993447303772,415.09938645362854,415.101646900177,415.1137568950653,415.2639169692993,415.2639169692993,415.2639169692993,415.2639169692993,415.2639169692993,415.2639169692993,415.2639169692993,416.4984061717987,3,1.367142677307129,None,,,,,,,,,,,,,,,,,,86,5,2025-02-21_15h07.55.742,comp,2024.2.4,60.941133736769075,2025-02-21 15h08.08.190578 -0500,
110,110,0,filler_random,None,None,None,None,None,None,None,None,None,None,2,1.8058009147644043,None,,,,,0,0,0,0,0,110,110,159,416.5136206150055,,,,,,,,,,,,,,,,,,,,,,,,,,,,,,,,,,,,,,,,,,,,,,,,,,,,,,,,,,,,,,,,,,,,,,,,,,,,,,,,,67.4847972787214,147.70513119864523,112.71078329901967,158.77569331866468,164.8099358558057,96.37847766483569,2.2,2.21,-249,-277,0,287,224,285,416.4993460178375,416.4993872642517,416.50150871276855,416.5136206150055,416.6637396812439,416.6637396812439,416.6637396812439,416.6637396812439,416.6637396812439,416.6637396812439,416.6637396812439,418.3318381309509,2,1.8058009147644043,None,,,,,,,,,,,,,,,,,,86,5,2025-02-21_15h07.55.742,comp,2024.2.4,60.941133736769075,2025-02-21 15h08.08.190578 -0500,
111,111,0,filler_random,None,None,None,None,None,None,None,None,None,None,1,2.477572441101074,None,,,,,0,0,0,0,0,111,111,167,418.3468360900879,,,,,,,,,,,,,,,,,,,,,,,,,,,,,,,,,,,,,,,,,,,,,,,,,,,,,,,,,,,,,,,,,,,,,,,,,,,,,,,,,154.31890259983862,188.8020873812403,190.13111633477934,127.46775228817567,181.60165117557472,138.25763401386382,2.1,2.11,-254,266,0,268,229,-260,418.33274817466736,418.33278918266296,418.3352873325348,418.3468360900879,418.4971170425415,418.4971170425415,418.4971170425415,418.4971170425415,418.4971170425415,418.4971170425415,418.4971170425415,420.83158898353577,1,2.477572441101074,None,,,,,,,,,,,,,,,,,,86,5,2025-02-21_15h07.55.742,comp,2024.2.4,60.941133736769075,2025-02-21 15h08.08.190578 -0500,
112,112,0,critical,dhw,35.0,1.0,upper,127.0,127.0,200.0,125.0,125.0,200.0,3,0.9525816440582275,None,,,,,0,0,0,0,0,112,112,49,420.8469786643982,,,,,,,,,,,,,,,,,,,,,,,,,,,,,,,,,,,,,,,,,,,,,,,,,,,,,,,,,,,,,,,,,,,,,,,,,,,,,,,,,127.0,127.0,200.0,125.0,125.0,200.0,1.0,1.2,-222,-13,0,8,258,10,420.8323528766632,420.8323929309845,420.83475732803345,420.8469786643982,420.9970316886902,420.9970316886902,420.9970316886902,420.9970316886902,420.9970316886902,420.9970316886902,420.9970316886902,421.81483793258667,3,0.9525816440582275,None,,,,,,,,,,,,,,,,,,86,5,2025-02-21_15h07.55.742,comp,2024.2.4,60.941133736769075,2025-02-21 15h08.08.190578 -0500,
113,113,0,critical,hwd,35.0,3.0,upper,200.0,125.0,125.0,200.0,127.0,127.0,2,1.010176181793213,None,,,,,0,0,0,0,0,113,113,99,421.8301999568939,,,,,,,,,,,,,,,,,,,,,,,,,,,,,,,,,,,,,,,,,,,,,,,,,,,,,,,,,,,,,,,,,,,,,,,,,,,,,,,,,200.0,125.0,125.0,200.0,127.0,127.0,3.0,3.1,-258,287,0,13,260,-269,421.8156180381775,421.8156590461731,421.8181550502777,421.8301999568939,421.98050713539124,421.98050713539124,421.98050713539124,421.98050713539124,421.98050713539124,421.98050713539124,421.98050713539124,422.8481390476227,2,1.010176181793213,None,,,,,,,,,,,,,,,,,,86,5,2025-02-21_15h07.55.742,comp,2024.2.4,60.941133736769075,2025-02-21 15h08.08.190578 -0500,
114,114,0,critical,dwh,35.0,2.1,lower,70.0,70.0,57.0,133.0,133.0,57.0,3,2.6666924953460693,None,,,,,0,0,0,0,0,114,114,28,422.8637115955353,,,,,,,,,,,,,,,,,,,,,,,,,,,,,,,,,,,,,,,,,,,,,,,,,,,,,,,,,,,,,,,,,,,,,,,,,,,,,,,,,70.0,70.0,57.0,133.0,133.0,57.0,2.1,2.12,-198,-267,0,-250,191,274,422.8489592075348,422.849000453949,422.8513751029968,422.8637115955353,423.01348876953125,423.01348876953125,423.01348876953125,423.01348876953125,423.01348876953125,423.01348876953125,423.01348876953125,425.5317335128784,3,2.6666924953460693,None,,,,,,,,,,,,,,,,,,86,5,2025-02-21_15h07.55.742,comp,2024.2.4,60.941133736769075,2025-02-21 15h08.08.190578 -0500,
115,115,0,filler_random,None,None,None,None,None,None,None,None,None,None,3,1.445213794708252,None,,,,,0,0,0,0,0,115,115,150,425.54707860946655,,,,,,,,,,,,,,,,,,,,,,,,,,,,,,,,,,,,,,,,,,,,,,,,,,,,,,,,,,,,,,,,,,,,,,,,,,,,,,,,,159.562112941311,77.26788917379295,155.5906870480622,97.53072317285233,99.60056736169521,168.8032566960479,4.0,4.2,-183,9,0,-270,229,13,425.5326702594757,425.5327112674713,425.53521037101746,425.54707860946655,425.69696044921875,425.69696044921875,425.69696044921875,425.69696044921875,425.69696044921875,425.69696044921875,425.69696044921875,426.9981162548065,3,1.445213794708252,None,,,,,,,,,,,,,,,,,,86,5,2025-02-21_15h07.55.742,comp,2024.2.4,60.941133736769075,2025-02-21 15h08.08.190578 -0500,
116,116,0,filler_square,None,None,None,None,None,None,None,None,None,None,3,2.6585943698883057,None,,,,,0,0,0,0,0,116,116,181,427.01372623443604,,,,,,,,,,,,,,,,,,,,,,,,,,,,,,,,,,,,,,,,,,,,,,,,,,,,,,,,,,,,,,,,,,,,,,,,,,,,,,,,,72.32583100957378,86.72527926804085,69.15663731688076,72.52359065309813,91.85872425575226,91.85872425575226,2.1,2.11,-176,281,0,279,178,-250,426.9990768432617,426.9991195201874,427.0013620853424,427.01372623443604,427.16347575187683,427.16347575187683,427.16347575187683,427.16347575187683,427.16347575187683,427.16347575187683,427.16347575187683,429.68140983581543,3,2.6585943698883057,None,,,,,,,,,,,,,,,,,,86,5,2025-02-21_15h07.55.742,comp,2024.2.4,60.941133736769075,2025-02-21 15h08.08.190578 -0500,
117,117,0,critical,hwd,20.0,2.1,upper,200.0,125.0,125.0,200.0,141.0,141.0,3,1.2223000526428223,None,,,,,0,0,0,0,0,117,117,43,429.6970725059509,,,,,,,,,,,,,,,,,,,,,,,,,,,,,,,,,,,,,,,,,,,,,,,,,,,,,,,,,,,,,,,,,,,,,,,,,,,,,,,,,200.0,125.0,125.0,200.0,141.0,141.0,2.1,2.11,-258,257,0,256,266,-288,429.6822340488434,429.6822760105133,429.68440222740173,429.6970725059509,429.84706687927246,429.84706687927246,429.84706687927246,429.84706687927246,429.84706687927246,429.84706687927246,429.84706687927246,430.931804895401,3,1.2223000526428223,None,,,,,,,,,,,,,,,,,,86,5,2025-02-21_15h07.55.742,comp,2024.2.4,60.941133736769075,2025-02-21 15h08.08.190578 -0500,
118,118,0,critical,dwh,35.0,2.1,upper,127.0,127.0,125.0,200.0,200.0,125.0,3,1.4776108264923096,None,,,,,0,0,0,0,0,118,118,29,430.9467511177063,,,,,,,,,,,,,,,,,,,,,,,,,,,,,,,,,,,,,,,,,,,,,,,,,,,,,,,,,,,,,,,,,,,,,,,,,,,,,,,,,127.0,127.0,125.0,200.0,200.0,125.0,2.1,2.12,-260,-260,0,-261,258,284,430.93261885643005,430.93265771865845,430.9350447654724,430.9467511177063,431.096994638443,431.096994638443,431.096994638443,431.096994638443,431.096994638443,431.096994638443,431.096994638443,432.43229126930237,3,1.4776108264923096,None,,,,,,,,,,,,,,,,,,86,5,2025-02-21_15h07.55.742,comp,2024.2.4,60.941133736769075,2025-02-21 15h08.08.190578 -0500,
119,119,0,catch,None,None,None,None,None,None,None,None,None,None,2,0.8823685646057129,None,,,,,0,0,0,0,0,119,119,128,432.4478304386139,,,,,,,,,,,,,,,,,,,,,,,,,,,,,,,,,,,,,,,,,,,,,,,,,,,,,,,,,,,,,,,,,,,,,,,,,,,,,,,,,84,106,146,179,132,58,3.0,3.2,-238,-266,0,-19,214,261,432.43334221839905,432.4333846569061,432.4353470802307,432.4478304386139,432.5975031852722,432.5975031852722,432.5975031852722,432.5975031852722,432.5975031852722,432.5975031852722,432.5975031852722,433.3315496444702,2,0.8823685646057129,None,,,,,,,,,,,,,,,,,,86,5,2025-02-21_15h07.55.742,comp,2024.2.4,60.941133736769075,2025-02-21 15h08.08.190578 -0500,
120,120,0,filler_random,None,None,None,None,None,None,None,None,None,None,3,3.252460479736328,None,,,,,0,0,0,0,0,120,120,163,433.3469662666321,,,,,,,,,,,,,,,,,,,,,,,,,,,,,,,,,,,,,,,,,,,,,,,,,,,,,,,,,,,,,,,,,,,,,,,,,,,,,,,,,96.58846153843281,191.52895906701542,73.46734660447694,155.09027458890802,143.67183677600892,195.82463913588825,2.1,2.12,-269,-283,0,-262,271,274,433.33244943618774,433.33249139785767,433.33458852767944,433.3469662666321,433.4968943595886,433.4968943595886,433.4968943595886,433.4968943595886,433.4968943595886,433.4968943595886,433.4968943595886,436.6146900653839,3,3.252460479736328,None,,,,,,,,,,,,,,,,,,86,5,2025-02-21_15h07.55.742,comp,2024.2.4,60.941133736769075,2025-02-21 15h08.08.190578 -0500,
121,121,0,critical,dhw,20.0,1.0,upper,141.0,141.0,200.0,125.0,125.0,200.0,2,2.7781805992126465,None,,,,,0,0,0,0,0,121,121,55,436.62993359565735,,,,,,,,,,,,,,,,,,,,,,,,,,,,,,,,,,,,,,,,,,,,,,,,,,,,,,,,,,,,,,,,,,,,,,,,,,,,,,,,,141.0,141.0,200.0,125.0,125.0,200.0,1.0,1.1,-709,272,-480,274,-222,287,436.6154863834381,436.61552715301514,436.6179792881012,436.62993359565735,436.7803373336792,436.7803373336792,436.7803373336792,436.7803373336792,436.7803373336792,436.7803373336792,436.7803373336792,439.4148154258728,2,2.7781805992126465,None,,,,,,,,,,,,,,,,,,86,5,2025-02-21_15h07.55.742,comp,2024.2.4,60.941133736769075,2025-02-21 15h08.08.190578 -0500,
122,122,0,filler_random,None,None,None,None,None,None,None,None,None,None,2,1.1212074756622314,None,,,,,0,0,0,0,0,122,122,149,439.4302775859833,,,,,,,,,,,,,,,,,,,,,,,,,,,,,,,,,,,,,,,,,,,,,,,,,,,,,,,,,,,,,,,,,,,,,,,,,,,,,,,,,61.64536829519302,115.59432495705235,133.39294529216068,144.15729214527758,98.32308462416458,86.43638909944313,2.2,2.21,-226,-284,0,250,211,289,439.4157567024231,439.4157979488373,439.4182858467102,439.4302775859833,439.5802562236786,439.5802562236786,439.5802562236786,439.5802562236786,439.5802562236786,439.5802562236786,439.5802562236786,440.5645718574524,2,1.1212074756622314,None,,,,,,,,,,,,,,,,,,86,5,2025-02-21_15h07.55.742,comp,2024.2.4,60.941133736769075,2025-02-21 15h08.08.190578 -0500,
123,123,0,critical,hdw,35.0,1.0,lower,133.0,57.0,70.0,70.0,57.0,133.0,1,3.2195820808410645,None,,,,,0,0,0,0,0,123,123,108,440.58002257347107,,,,,,,,,,,,,,,,,,,,,,,,,,,,,,,,,,,,,,,,,,,,,,,,,,,,,,,,,,,,,,,,,,,,,,,,,,,,,,,,,133.0,57.0,70.0,70.0,57.0,133.0,1.0,1.3,320,-268,480,-277,678,-271,440.56535482406616,440.5653922557831,440.56778597831726,440.58002257347107,440.7301745414734,440.7301745414734,440.7301745414734,440.7301745414734,440.7301745414734,440.7301745414734,440.7301745414734,443.8145315647125,1,3.2195820808410645,None,,,,,,,,,,,,,,,,,,86,5,2025-02-21_15h07.55.742,comp,2024.2.4,60.941133736769075,2025-02-21 15h08.08.190578 -0500,
124,124,0,filler_square,None,None,None,None,None,None,None,None,None,None,3,0.9212620258331299,None,,,,,0,0,0,0,0,124,124,194,443.83011770248413,,,,,,,,,,,,,,,,,,,,,,,,,,,,,,,,,,,,,,,,,,,,,,,,,,,,,,,,,,,,,,,,,,,,,,,,,,,,,,,,,94.86866950660195,57.78796060230491,88.71946107060396,69.77018940748525,98.95249556829445,98.95249556829445,3.0,3.1,-160,262,0,13,180,-261,443.815495967865,443.8155355453491,443.8179581165314,443.83011770248413,443.98024249076843,443.98024249076843,443.98024249076843,443.98024249076843,443.98024249076843,443.98024249076843,443.98024249076843,444.7645478248596,3,0.9212620258331299,None,,,,,,,,,,,,,,,,,,86,5,2025-02-21_15h07.55.742,comp,2024.2.4,60.941133736769075,2025-02-21 15h08.08.190578 -0500,
125,125,0,catch,None,None,None,None,None,None,None,None,None,None,1,0.8355393409729004,None,,,,,0,0,0,0,0,125,125,120,444.77995252609253,,,,,,,,,,,,,,,,,,,,,,,,,,,,,,,,,,,,,,,,,,,,,,,,,,,,,,,,,,,,,,,,,,,,,,,,,,,,,,,,,184,141,107,83,106,84,1.0,1.2,-208,-20,0,-4,180,2,444.7655653953552,444.7656054496765,444.76803398132324,444.77995252609253,444.93024706840515,444.93024706840515,444.93024706840515,444.93024706840515,444.93024706840515,444.93024706840515,444.93024706840515,445.6311800479889,1,0.8355393409729004,None,,,,,,,,,,,,,,,,,,86,5,2025-02-21_15h07.55.742,comp,2024.2.4,60.941133736769075,2025-02-21 15h08.08.190578 -0500,
126,126,0,critical,wdh,20.0,3.0,upper,125.0,200.0,141.0,141.0,200.0,125.0,2,3.3616576194763184,None,,,,,0,0,0,0,0,126,126,81,445.64651322364807,,,,,,,,,,,,,,,,,,,,,,,,,,,,,,,,,,,,,,,,,,,,,,,,,,,,,,,,,,,,,,,,,,,,,,,,,,,,,,,,,125.0,200.0,141.0,141.0,200.0,125.0,3.0,3.2,-266,-264,0,-8,229,262,445.63196778297424,445.6320073604584,445.6343238353729,445.64651322364807,445.7969563007355,445.7969563007355,445.7969563007355,445.7969563007355,445.7969563007355,445.7969563007355,445.7969563007355,449.0148696899414,2,3.3616576194763184,None,,,,,,,,,,,,,,,,,,86,5,2025-02-21_15h07.55.742,comp,2024.2.4,60.941133736769075,2025-02-21 15h08.08.190578 -0500,
127,127,0,filler_square,None,None,None,None,None,None,None,None,None,None,1,0.826012134552002,None,,,,,0,0,0,0,0,127,127,182,449.0302665233612,,,,,,,,,,,,,,,,,,,,,,,,,,,,,,,,,,,,,,,,,,,,,,,,,,,,,,,,,,,,,,,,,,,,,,,,,,,,,,,,,184.5078746748294,184.5078746748294,60.956484638231316,150.14039902199102,102.93196463697834,135.82732405702436,2.2,2.21,-263,-260,0,284,239,256,449.0158221721649,449.0158619880676,449.0183651447296,449.0302665233612,449.1811554431915,449.1811554431915,449.1811554431915,449.1811554431915,449.1811554431915,449.1811554431915,449.1811554431915,449.86476135253906,1,0.826012134552002,None,,,,,,,,,,,,,,,,,,86,5,2025-02-21_15h07.55.742,comp,2024.2.4,60.941133736769075,2025-02-21 15h08.08.190578 -0500,
128,128,0,filler_square,None,None,None,None,None,None,None,None,None,None,2,1.3352866172790527,None,,,,,0,0,0,0,0,128,128,186,449.8802218437195,,,,,,,,,,,,,,,,,,,,,,,,,,,,,,,,,,,,,,,,,,,,,,,,,,,,,,,,,,,,,,,,,,,,,,,,,,,,,,,,,124.6883046805459,99.44283630709572,129.72268955904914,129.72268955904914,74.18640813939618,99.78108701604492,4.0,4.2,-211,9,0,-269,211,-16,449.86574602127075,449.86578702926636,449.8683111667633,449.8802218437195,450.03015542030334,450.03015542030334,450.03015542030334,450.03015542030334,450.03015542030334,450.03015542030334,450.03015542030334,451.23118472099304,2,1.3352866172790527,None,,,,,,,,,,,,,,,,,,86,5,2025-02-21_15h07.55.742,comp,2024.2.4,60.941133736769075,2025-02-21 15h08.08.190578 -0500,
129,129,0,filler_random,None,None,None,None,None,None,None,None,None,None,3,1.009474277496338,None,,,,,0,0,0,0,0,129,129,137,451.2466039657593,,,,,,,,,,,,,,,,,,,,,,,,,,,,,,,,,,,,,,,,,,,,,,,,,,,,,,,,,,,,,,,,,,,,,,,,,,,,,,,,,168.15592008239756,119.62677217762426,87.10317136514732,78.22891579248598,169.55124214394652,151.1354647893197,1.0,1.1,-675,289,-480,267,-269,279,451.23213267326355,451.2321882247925,451.23452854156494,451.2466039657593,451.3968086242676,451.3968086242676,451.3968086242676,451.3968086242676,451.3968086242676,451.3968086242676,451.3968086242676,452.26466059684753,3,1.009474277496338,None,,,,,,,,,,,,,,,,,,86,5,2025-02-21_15h07.55.742,comp,2024.2.4,60.941133736769075,2025-02-21 15h08.08.190578 -0500,
130,130,0,critical,hdw,20.0,2.1,lower,133.0,57.0,78.0,78.0,57.0,133.0,3,1.9600443840026855,None,,,,,0,0,0,0,0,130,130,22,452.280104637146,,,,,,,,,,,,,,,,,,,,,,,,,,,,,,,,,,,,,,,,,,,,,,,,,,,,,,,,,,,,,,,,,,,,,,,,,,,,,,,,,133.0,57.0,78.0,78.0,57.0,133.0,2.1,2.11,-164,250,0,277,202,-261,452.26548171043396,452.265522480011,452.26814341545105,452.280104637146,452.4301829338074,452.4301829338074,452.4301829338074,452.4301829338074,452.4301829338074,452.4301829338074,452.4301829338074,454.24774646759033,3,1.9600443840026855,None,,,,,,,,,,,,,,,,,,86,5,2025-02-21_15h07.55.742,comp,2024.2.4,60.941133736769075,2025-02-21 15h08.08.190578 -0500,
131,131,0,critical,hdw,20.0,4.0,lower,133.0,57.0,78.0,78.0,57.0,133.0,3,2.2003843784332275,None,,,,,0,0,0,0,0,131,131,118,454.2634799480438,,,,,,,,,,,,,,,,,,,,,,,,,,,,,,,,,,,,,,,,,,,,,,,,,,,,,,,,,,,,,,,,,,,,,,,,,,,,,,,,,133.0,57.0,78.0,78.0,57.0,133.0,4.0,4.2,-164,-4,0,-275,202,-16,454.24852323532104,454.248562335968,454.25103187561035,454.2634799480438,454.41341495513916,454.41341495513916,454.41341495513916,454.41341495513916,454.41341495513916,454.41341495513916,454.41341495513916,456.48106932640076,3,2.2003843784332275,None,,,,,,,,,,,,,,,,,,86,5,2025-02-21_15h07.55.742,comp,2024.2.4,60.941133736769075,2025-02-21 15h08.08.190578 -0500,
132,132,0,filler_square,None,None,None,None,None,None,None,None,None,None,3,0.783745527267456,None,,,,,0,0,0,0,0,132,132,206,456.4966549873352,,,,,,,,,,,,,,,,,,,,,,,,,,,,,,,,,,,,,,,,,,,,,,,,,,,,,,,,,,,,,,,,,,,,,,,,,,,,,,,,,144.91365030514325,71.54452088447451,139.39393429610186,80.99358713142992,160.14557094470382,160.14557094470382,2.1,2.12,-172,-265,0,-250,217,286,456.4820375442505,456.48207902908325,456.48469281196594,456.4966549873352,456.64672207832336,456.64672207832336,456.64672207832336,456.64672207832336,456.64672207832336,456.64672207832336,456.64672207832336,457.29772329330444,3,0.783745527267456,None,,,,,,,,,,,,,,,,,,86,5,2025-02-21_15h07.55.742,comp,2024.2.4,60.941133736769075,2025-02-21 15h08.08.190578 -0500,
133,133,0,filler_square,None,None,None,None,None,None,None,None,None,None,1,1.886120080947876,None,,,,,0,0,0,0,0,133,133,176,457.3132469654083,,,,,,,,,,,,,,,,,,,,,,,,,,,,,,,,,,,,,,,,,,,,,,,,,,,,,,,,,,,,,,,,,,,,,,,,,,,,,,,,,169.75163098064874,169.75163098064874,154.52192442769464,132.39218578093352,99.23867097027457,60.69490847293105,1.0,1.3,233,-282,480,-273,673,-290,457.2986855506897,457.29872584342957,457.30123591423035,457.3132469654083,457.463506937027,457.463506937027,457.463506937027,457.463506937027,457.463506937027,457.463506937027,457.463506937027,459.21461153030396,1,1.886120080947876,None,,,,,,,,,,,,,,,,,,86,5,2025-02-21_15h07.55.742,comp,2024.2.4,60.941133736769075,2025-02-21 15h08.08.190578 -0500,
134,134,0,critical,hwd,20.0,3.0,upper,200.0,125.0,125.0,200.0,141.0,141.0,3,3.234127998352051,None,,,,,0,0,0,0,0,134,134,105,459.22984075546265,,,,,,,,,,,,,,,,,,,,,,,,,,,,,,,,,,,,,,,,,,,,,,,,,,,,,,,,,,,,,,,,,,,,,,,,,,,,,,,,,200.0,125.0,125.0,200.0,141.0,141.0,3.0,3.1,-258,290,0,16,266,-265,459.21539783477783,459.2154381275177,459.21783113479614,459.22984075546265,459.3802216053009,459.3802216053009,459.3802216053009,459.3802216053009,459.3802216053009,459.3802216053009,459.3802216053009,462.481303691864,3,3.234127998352051,None,,,,,,,,,,,,,,,,,,86,5,2025-02-21_15h07.55.742,comp,2024.2.4,60.941133736769075,2025-02-21 15h08.08.190578 -0500,
135,135,0,filler_square,None,None,None,None,None,None,None,None,None,None,2,1.0224952697753906,None,,,,,0,0,0,0,0,135,135,177,462.4965867996216,,,,,,,,,,,,,,,,,,,,,,,,,,,,,,,,,,,,,,,,,,,,,,,,,,,,,,,,,,,,,,,,,,,,,,,,,,,,,,,,,99.3724754934537,147.2139210538157,158.8901658261039,158.8901658261039,64.3846886745128,77.59847273482659,3.0,3.1,-249,260,0,-14,214,-254,462.48229694366455,462.4823386669159,462.4844923019409,462.4965867996216,462.6466701030731,462.6466701030731,462.6466701030731,462.6466701030731,462.6466701030731,462.6466701030731,462.6466701030731,463.53151297569275,2,1.0224952697753906,None,,,,,,,,,,,,,,,,,,86,5,2025-02-21_15h07.55.742,comp,2024.2.4,60.941133736769075,2025-02-21 15h08.08.190578 -0500,
136,136,0,critical,dhw,35.0,2.1,lower,70.0,70.0,133.0,57.0,57.0,133.0,3,2.100696563720703,None,,,,,0,0,0,0,0,136,136,0,463.54649925231934,,,,,,,,,,,,,,,,,,,,,,,,,,,,,,,,,,,,,,,,,,,,,,,,,,,,,,,,,,,,,,,,,,,,,,,,,,,,,,,,,70.0,70.0,133.0,57.0,57.0,133.0,2.1,2.11,-160,254,0,283,191,-263,463.5323529243469,463.5323932170868,463.5351417064667,463.54649925231934,463.6965618133545,463.6965618133545,463.6965618133545,463.6965618133545,463.6965618133545,463.6965618133545,463.6965618133545,465.6643211841583,3,2.100696563720703,None,,,,,,,,,,,,,,,,,,86,5,2025-02-21_15h07.55.742,comp,2024.2.4,60.941133736769075,2025-02-21 15h08.08.190578 -0500,
137,137,0,critical,dhw,20.0,3.0,lower,78.0,78.0,133.0,57.0,57.0,133.0,3,2.200831890106201,None,,,,,0,0,0,0,0,137,137,56,465.6798243522644,,,,,,,,,,,,,,,,,,,,,,,,,,,,,,,,,,,,,,,,,,,,,,,,,,,,,,,,,,,,,,,,,,,,,,,,,,,,,,,,,78.0,78.0,133.0,57.0,57.0,133.0,3.0,3.1,-164,270,0,16,191,-286,465.66512537002563,465.665176153183,465.6675748825073,465.6798243522644,465.82982301712036,465.82982301712036,465.82982301712036,465.82982301712036,465.82982301712036,465.82982301712036,465.82982301712036,467.89775252342224,3,2.200831890106201,None,,,,,,,,,,,,,,,,,,86,5,2025-02-21_15h07.55.742,comp,2024.2.4,60.941133736769075,2025-02-21 15h08.08.190578 -0500,
138,138,0,critical,whd,20.0,4.0,upper,125.0,200.0,200.0,125.0,141.0,141.0,2,4.005927801132202,None,,,,,0,0,0,0,0,138,138,95,467.913223028183,,,,,,,,,,,,,,,,,,,,,,,,,,,,,,,,,,,,,,,,,,,,,,,,,,,,,,,,,,,,,,,,,,,,,,,,,,,,,,,,,125.0,200.0,200.0,125.0,141.0,141.0,4.0,4.2,-258,17,0,-282,229,-7,467.89853858947754,467.89857816696167,467.901038646698,467.913223028183,468.0634415149689,468.0634415149689,468.0634415149689,468.0634415149689,468.0634415149689,468.0634415149689,468.0634415149689,471.93141198158264,2,4.005927801132202,None,,,,,,,,,,,,,,,,,,86,5,2025-02-21_15h07.55.742,comp,2024.2.4,60.941133736769075,2025-02-21 15h08.08.190578 -0500,
139,139,0,critical,hwd,20.0,1.0,upper,200.0,125.0,125.0,200.0,141.0,141.0,2,6.998948335647583,None,,,,,0,0,0,0,0,139,139,103,471.9465386867523,,,,,,,,,,,,,,,,,,,,,,,,,,,,,,,,,,,,,,,,,,,,,,,,,,,,,,,,,,,,,,,,,,,,,,,,,,,,,,,,,200.0,125.0,125.0,200.0,141.0,141.0,1.0,1.2,-258,-3,0,-12,266,5,471.93220114707947,471.93224143981934,471.9343583583832,471.9465386867523,472.09677386283875,472.09677386283875,472.09677386283875,472.09677386283875,472.09677386283875,472.09677386283875,472.09677386283875,478.9479751586914,2,6.998948335647583,None,,,,,,,,,,,,,,,,,,86,5,2025-02-21_15h07.55.742,comp,2024.2.4,60.941133736769075,2025-02-21 15h08.08.190578 -0500,
