thisN,thisTrialN,thisRepN,effect,order,distance,config,diag,h_1,w_1,h_2,w_2,h_3,w_3,rect_choice.keys,rect_choice.rt,rect_choice.duration,instructions_loop.thisRepN,instructions_loop.thisTrialN,instructions_loop.thisN,instructions_loop.thisIndex,blocks.thisRepN,blocks.thisTrialN,blocks.thisN,blocks.thisIndex,trials.thisRepN,trials.thisTrialN,trials.thisN,trials.thisIndex,thisRow.t,notes,consent.started,agree_button.started,decline_button.started,consent_img.started,mouse.started,consent.stopped,agree_button.numClicks,agree_button.timesOn,agree_button.timesOff,decline_button.numClicks,decline_button.timesOn,decline_button.timesOff,mouse.x,mouse.y,mouse.leftButton,mouse.midButton,mouse.rightButton,mouse.time,mouse.clicked_name,exp_params.started,exp_params.stopped,welcome.started,welcome_text.started,welcome_text.stopped,welcome.stopped,instructions_1.started,instructions_1_text_1.started,instructions_1_text_2.started,key_resp.started,instructions_1.stopped,instructions_loop.key_resp.keys,instructions_loop.key_resp.rt,instructions_loop.key_resp.duration,instructions_2.started,instructions_2_text_1.started,instructions_2_text_2.started,key_resp_2.started,instructions_2.stopped,instructions_loop.key_resp_2.keys,instructions_loop.key_resp_2.rt,instructions_loop.key_resp_2.duration,instructions_3.started,instructions_3_text_1.started,r1_instr3.started,r2_instr3.started,r3_instr3.started,r1_instr3_label.started,r2_instr3_label.started,r3_instr3_label.started,instructions_3_text_3.started,instructions_3_text_4.started,key_resp_3.started,instructions_3.stopped,instructions_loop.key_resp_3.keys,instructions_loop.key_resp_3.rt,instructions_loop.key_resp_3.duration,instructions_4.started,instructions_4_text_1.started,instructions_4_text_3.started,instructions_4_text_2.started,key_resp_4.started,instructions_4.stopped,instructions_loop.key_resp_4.keys,instructions_loop.key_resp_4.rt,instructions_loop.key_resp_4.duration,instructions_5.started,instructions_5_text_1.started,instructions_5_text_2.started,key_resp_5.started,instructions_5.stopped,instructions_loop.key_resp_5.keys,instructions_loop.key_resp_5.rt,instructions_loop.key_resp_5.duration,start_exp.started,start_exp_text.started,key_resp_6.started,start_exp.stopped,key_resp_6.keys,key_resp_6.rt,key_resp_6.duration,h_1_tmp,w_1_tmp,h_2_tmp,w_2_tmp,h_3_tmp,w_3_tmp,config_tmp,config_tmp_1,r_1_x,r_1_y,r_2_x,r_2_y,r_3_x,r_3_y,pre_trial.started,pre_trial.stopped,choice_trial.started,rect_choice.started,r_1.started,r_2.started,r_3.started,r_1_label.started,r_2_label.started,r_3_label.started,prompt.started,choice_trial.stopped,trials.rect_choice.keys,trials.rect_choice.rt,trials.rect_choice.duration,end_block.started,end_block_text.started,end_block.stopped,end.started,end_text.started,key_resp_7.started,end.stopped,key_resp_7.keys,key_resp_7.rt,key_resp_7.duration,debriefing.started,debrief_form.started,end_debrief.started,debriefing.stopped,end_debrief.keys,end_debrief.rt,end_debrief.duration,participant,computer,date,expName,psychopyVersion,frameRate,expStart,
,,,,,,,,,,,,,,,,,,,,,,,,,,,,,,,0.014374732971191406,0.03723621368408203,0.03723621368408203,0.03723621368408203,0.014145851135253906,52.17037534713745,1,[52.13056945800781],[52.13059854507446],0,,,[-78.0],[-516.0],[1],[0],[0],[52.155433654785156],['agree_button'],,,,,,,,,,,,,,,,,,,,,,,,,,,,,,,,,,,,,,,,,,,,,,,,,,,,,,,,,,,,,,,,,,,,,,,,,,,,,,,,,,,,,,,,,,,,,,,,,,,,,,,,,,,,87,1,2025-02-24_10h58.19.856,comp,2024.2.4,57.959354008702945,2025-02-24 10h58.39.260728 -0500,
,,,,,,,,,,,,,,,,,,,,,,,,,,,,,,,,,,,,,,,,,,,,,,,,,,52.17099595069885,52.171077251434326,,,,,,,,,,,,,,,,,,,,,,,,,,,,,,,,,,,,,,,,,,,,,,,,,,,,,,,,,,,,,,,,,,,,,,,,,,,,,,,,,,,,,,,,,,,,,,,,,,,,,,,,,,87,1,2025-02-24_10h58.19.856,comp,2024.2.4,57.959354008702945,2025-02-24 10h58.39.260728 -0500,
,,,,,,,,,,,,,,,,,,,,,,,,,,,,,,,,,,,,,,,,,,,,,,,,,,,,52.17112469673157,52.184792041778564,54.18607544898987,54.16812491416931,,,,,,,,,,,,,,,,,,,,,,,,,,,,,,,,,,,,,,,,,,,,,,,,,,,,,,,,,,,,,,,,,,,,,,,,,,,,,,,,,,,,,,,,,,,,,,,,,,,,,,87,1,2025-02-24_10h58.19.856,comp,2024.2.4,57.959354008702945,2025-02-24 10h58.39.260728 -0500,
0,0,0,,,,,,,,,,,,,,,0,0,0,0,,,,,,,,,54.18607544898987,,,,,,,,,,,,,,,,,,,,,,,,,,,54.169015407562256,54.18607544898987,54.18607544898987,55.68105506896973,60.13739061355591,space,4.447450399398804,None,60.13753533363342,60.154210567474365,60.154210567474365,61.65059494972229,67.47295379638672,space,5.813906669616699,None,67.4731023311615,67.50494408607483,67.50494408607483,67.50494408607483,67.50494408607483,67.50494408607483,67.50494408607483,67.50494408607483,67.50494408607483,67.50494408607483,68.97325682640076,71.7838020324707,space,2.8031868934631348,None,71.78399801254272,71.8012056350708,71.8012056350708,71.8012056350708,73.2911434173584,75.92612552642822,space,2.6205568313598633,None,75.926278591156,75.94339179992676,75.94339179992676,77.44111704826355,78.16006827354431,space,0.7113909721374512,None,78.16026210784912,78.17311501502991,78.17311501502991,79.07863426208496,space,0.8988707065582275,None,,,,,,,,,,,,,,,,,,,,,,,,,,,,,,,,,,,,,,,,,,,,,,,87,1,2025-02-24_10h58.19.856,comp,2024.2.4,57.959354008702945,2025-02-24 10h58.39.260728 -0500,
0,0,0,filler_square,None,None,None,None,None,None,None,None,None,None,2,4.373720645904541,None,,,,,0,0,0,0,0,0,0,182,79.15423965454102,,,,,,,,,,,,,,,,,,,,,,,,,,,,,,,,,,,,,,,,,,,,,,,,,,,,,,,,,,,,,,,,,,,,,,,,,,,,,,,,,,57.905792666121854,57.345558911207476,58.06703190826118,58.06703190826118,57.28136266334106,57.89101695830935,2.1,2.12,-154,-267,0,-270,154,268,79.13784670829773,79.13788223266602,79.1391053199768,79.15423965454102,79.30095195770264,79.30095195770264,79.30095195770264,79.30095195770264,79.30095195770264,79.30095195770264,79.30095195770264,83.54389500617981,2,4.373720645904541,None,,,,,,,,,,,,,,,,,,87,1,2025-02-24_10h58.19.856,comp,2024.2.4,57.959354008702945,2025-02-24 10h58.39.260728 -0500,
1,1,0,filler_square,None,None,None,None,None,None,None,None,None,None,1,1.8704488277435303,None,,,,,0,0,0,0,0,1,1,180,83.56134748458862,,,,,,,,,,,,,,,,,,,,,,,,,,,,,,,,,,,,,,,,,,,,,,,,,,,,,,,,,,,,,,,,,,,,,,,,,,,,,,,,,,129.40974533644408,129.40974533644408,113.31551973377796,86.98169798340061,71.03552834754582,88.95818695333374,2.1,2.11,-204,269,0,274,184,-267,83.54572820663452,83.54583525657654,83.54903531074524,83.56134748458862,83.71472430229187,83.71472430229187,83.71472430229187,83.71472430229187,83.71472430229187,83.71472430229187,83.71472430229187,85.44774627685547,1,1.8704488277435303,None,,,,,,,,,,,,,,,,,,87,1,2025-02-24_10h58.19.856,comp,2024.2.4,57.959354008702945,2025-02-24 10h58.39.260728 -0500,
2,2,0,filler_random,None,None,None,None,None,None,None,None,None,None,2,1.327268362045288,None,,,,,0,0,0,0,0,2,2,149,85.46475744247437,,,,,,,,,,,,,,,,,,,,,,,,,,,,,,,,,,,,,,,,,,,,,,,,,,,,,,,,,,,,,,,,,,,,,,,,,,,,,,,,,,95.44904840603749,89.30299318639925,161.40782593179085,109.6125001019306,99.30523587762072,137.63556576140843,1.0,1.1,-675,279,-480,268,-260,279,85.44970345497131,85.44978094100952,85.45357179641724,85.46475744247437,85.61189031600952,85.61189031600952,85.61189031600952,85.61189031600952,85.61189031600952,85.61189031600952,85.61189031600952,86.79446601867676,2,1.327268362045288,None,,,,,,,,,,,,,,,,,,87,1,2025-02-24_10h58.19.856,comp,2024.2.4,57.959354008702945,2025-02-24 10h58.39.260728 -0500,
3,3,0,filler_square,None,None,None,None,None,None,None,None,None,None,3,1.124962568283081,None,,,,,0,0,0,0,0,3,3,201,86.81097435951233,,,,,,,,,,,,,,,,,,,,,,,,,,,,,,,,,,,,,,,,,,,,,,,,,,,,,,,,,,,,,,,,,,,,,,,,,,,,,,,,,,69.05762888975407,158.6652594277766,75.22145201374829,140.94948895273734,182.57035833215446,182.57035833215446,2.1,2.12,-246,-272,0,-282,258,281,86.79625654220581,86.79633283615112,86.79936099052429,86.81097435951233,86.9677665233612,86.9677665233612,86.9677665233612,86.9677665233612,86.9677665233612,86.9677665233612,86.9677665233612,87.95544767379761,3,1.124962568283081,None,,,,,,,,,,,,,,,,,,87,1,2025-02-24_10h58.19.856,comp,2024.2.4,57.959354008702945,2025-02-24 10h58.39.260728 -0500,
4,4,0,catch,None,None,None,None,None,None,None,None,None,None,3,1.7713596820831299,None,,,,,0,0,0,0,0,4,4,129,87.97299289703369,,,,,,,,,,,,,,,,,,,,,,,,,,,,,,,,,,,,,,,,,,,,,,,,,,,,,,,,,,,,,,,,,,,,,,,,,,,,,,,,,,88,102,115,75,185,140,2.2,2.21,-184,-267,0,283,204,272,87.95737361907959,87.95744895935059,87.96034407615662,87.97299289703369,88.1136577129364,88.1136577129364,88.1136577129364,88.1136577129364,88.1136577129364,88.1136577129364,88.1136577129364,89.7469310760498,3,1.7713596820831299,None,,,,,,,,,,,,,,,,,,87,1,2025-02-24_10h58.19.856,comp,2024.2.4,57.959354008702945,2025-02-24 10h58.39.260728 -0500,
5,5,0,critical,wdh,35.0,1.0,upper,125.0,200.0,127.0,127.0,200.0,125.0,1,3.7888503074645996,None,,,,,0,0,0,0,0,5,5,73,89.76385593414307,,,,,,,,,,,,,,,,,,,,,,,,,,,,,,,,,,,,,,,,,,,,,,,,,,,,,,,,,,,,,,,,,,,,,,,,,,,,,,,,,,125.0,200.0,127.0,127.0,200.0,125.0,1.0,1.2,-260,-3,0,-2,222,15,89.74845242500305,89.748530626297,89.75253129005432,89.76385593414307,89.91649055480957,89.91649055480957,89.91649055480957,89.91649055480957,89.91649055480957,89.91649055480957,89.91649055480957,93.56421780586243,1,3.7888503074645996,None,,,,,,,,,,,,,,,,,,87,1,2025-02-24_10h58.19.856,comp,2024.2.4,57.959354008702945,2025-02-24 10h58.39.260728 -0500,
6,6,0,filler_random,None,None,None,None,None,None,None,None,None,None,1,1.8757102489471436,None,,,,,0,0,0,0,0,6,6,145,93.58000159263611,,,,,,,,,,,,,,,,,,,,,,,,,,,,,,,,,,,,,,,,,,,,,,,,,,,,,,,,,,,,,,,,,,,,,,,,,,,,,,,,,,105.9871048283837,160.72452866068576,72.52017821955826,138.4165519641767,76.24348799730737,107.12416542373646,1.0,1.3,234,-261,480,-289,699,-284,93.56576442718506,93.56585955619812,93.56922602653503,93.58000159263611,93.72942090034485,93.72942090034485,93.72942090034485,93.72942090034485,93.72942090034485,93.72942090034485,93.72942090034485,95.46690607070923,1,1.8757102489471436,None,,,,,,,,,,,,,,,,,,87,1,2025-02-24_10h58.19.856,comp,2024.2.4,57.959354008702945,2025-02-24 10h58.39.260728 -0500,
7,7,0,critical,dwh,20.0,2.1,upper,141.0,141.0,125.0,200.0,200.0,125.0,2,1.5319013595581055,None,,,,,0,0,0,0,0,7,7,31,95.48394298553467,,,,,,,,,,,,,,,,,,,,,,,,,,,,,,,,,,,,,,,,,,,,,,,,,,,,,,,,,,,,,,,,,,,,,,,,,,,,,,,,,,141.0,141.0,125.0,200.0,200.0,125.0,2.1,2.12,-266,-259,0,-252,258,290,95.46855092048645,95.468670129776,95.47223973274231,95.48394298553467,95.62745904922485,95.62745904922485,95.62745904922485,95.62745904922485,95.62745904922485,95.62745904922485,95.62745904922485,97.02026152610779,2,1.5319013595581055,None,,,,,,,,,,,,,,,,,,87,1,2025-02-24_10h58.19.856,comp,2024.2.4,57.959354008702945,2025-02-24 10h58.39.260728 -0500,
8,8,0,critical,dwh,20.0,4.0,lower,78.0,78.0,57.0,133.0,133.0,57.0,3,2.023714542388916,None,,,,,0,0,0,0,0,8,8,70,97.04033088684082,,,,,,,,,,,,,,,,,,,,,,,,,,,,,,,,,,,,,,,,,,,,,,,,,,,,,,,,,,,,,,,,,,,,,,,,,,,,,,,,,,78.0,78.0,57.0,133.0,133.0,57.0,4.0,4.2,-202,-9,0,-262,191,-1,97.0217113494873,97.02178859710693,97.0246229171753,97.04033088684082,97.18249654769897,97.18249654769897,97.18249654769897,97.18249654769897,97.18249654769897,97.18249654769897,97.18249654769897,99.06961560249329,3,2.023714542388916,None,,,,,,,,,,,,,,,,,,87,1,2025-02-24_10h58.19.856,comp,2024.2.4,57.959354008702945,2025-02-24 10h58.39.260728 -0500,
9,9,0,critical,hwd,35.0,3.0,upper,200.0,125.0,125.0,200.0,127.0,127.0,2,2.045738458633423,None,,,,,0,0,0,0,0,9,9,99,99.09007143974304,,,,,,,,,,,,,,,,,,,,,,,,,,,,,,,,,,,,,,,,,,,,,,,,,,,,,,,,,,,,,,,,,,,,,,,,,,,,,,,,,,200.0,125.0,125.0,200.0,127.0,127.0,3.0,3.1,-258,272,0,-11,260,-287,99.0711419582367,99.07121872901917,99.07440876960754,99.09007143974304,99.22996926307678,99.22996926307678,99.22996926307678,99.22996926307678,99.22996926307678,99.22996926307678,99.22996926307678,101.14991617202759,2,2.045738458633423,None,,,,,,,,,,,,,,,,,,87,1,2025-02-24_10h58.19.856,comp,2024.2.4,57.959354008702945,2025-02-24 10h58.39.260728 -0500,
10,10,0,critical,dhw,35.0,2.1,lower,70.0,70.0,133.0,57.0,57.0,133.0,2,1.7141807079315186,None,,,,,0,0,0,0,0,10,10,0,101.16591906547546,,,,,,,,,,,,,,,,,,,,,,,,,,,,,,,,,,,,,,,,,,,,,,,,,,,,,,,,,,,,,,,,,,,,,,,,,,,,,,,,,,70.0,70.0,133.0,57.0,57.0,133.0,2.1,2.12,-160,-269,0,-258,191,280,101.15158128738403,101.15165734291077,101.15517663955688,101.16591906547546,101.31522631645203,101.31522631645203,101.31522631645203,101.31522631645203,101.31522631645203,101.31522631645203,101.31522631645203,102.8877215385437,2,1.7141807079315186,None,,,,,,,,,,,,,,,,,,87,1,2025-02-24_10h58.19.856,comp,2024.2.4,57.959354008702945,2025-02-24 10h58.39.260728 -0500,
11,11,0,critical,wdh,35.0,3.0,upper,125.0,200.0,127.0,127.0,200.0,125.0,3,1.3483986854553223,None,,,,,0,0,0,0,0,11,11,75,102.90739440917969,,,,,,,,,,,,,,,,,,,,,,,,,,,,,,,,,,,,,,,,,,,,,,,,,,,,,,,,,,,,,,,,,,,,,,,,,,,,,,,,,,125.0,200.0,127.0,127.0,200.0,125.0,3.0,3.2,-260,-271,0,18,222,284,102.8893256187439,102.88940501213074,102.8924491405487,102.90739440917969,103.05066299438477,103.05066299438477,103.05066299438477,103.05066299438477,103.05066299438477,103.05066299438477,103.05066299438477,104.27107453346252,3,1.3483986854553223,None,,,,,,,,,,,,,,,,,,87,1,2025-02-24_10h58.19.856,comp,2024.2.4,57.959354008702945,2025-02-24 10h58.39.260728 -0500,
12,12,0,critical,dhw,20.0,4.0,upper,141.0,141.0,200.0,125.0,125.0,200.0,3,2.7574949264526367,None,,,,,0,0,0,0,0,12,12,59,104.2905330657959,,,,,,,,,,,,,,,,,,,,,,,,,,,,,,,,,,,,,,,,,,,,,,,,,,,,,,,,,,,,,,,,,,,,,,,,,,,,,,,,,,141.0,141.0,200.0,125.0,125.0,200.0,4.0,4.1,-229,-264,0,-13,258,-278,104.27262926101685,104.27270531654358,104.275625705719,104.2905330657959,104.43384385108948,104.43384385108948,104.43384385108948,104.43384385108948,104.43384385108948,104.43384385108948,104.43384385108948,107.0543704032898,3,2.7574949264526367,None,,,,,,,,,,,,,,,,,,87,1,2025-02-24_10h58.19.856,comp,2024.2.4,57.959354008702945,2025-02-24 10h58.39.260728 -0500,
13,13,0,critical,whd,35.0,1.0,lower,57.0,133.0,133.0,57.0,70.0,70.0,2,1.5032320022583008,None,,,,,0,0,0,0,0,13,13,84,107.07309532165527,,,,,,,,,,,,,,,,,,,,,,,,,,,,,,,,,,,,,,,,,,,,,,,,,,,,,,,,,,,,,,,,,,,,,,,,,,,,,,,,,,57.0,133.0,133.0,57.0,70.0,70.0,1.0,1.2,-191,-3,0,1,160,-13,107.05596899986267,107.05604934692383,107.05912184715271,107.07309532165527,107.2184808254242,107.2184808254242,107.2184808254242,107.2184808254242,107.2184808254242,107.2184808254242,107.2184808254242,108.58648204803467,2,1.5032320022583008,None,,,,,,,,,,,,,,,,,,87,1,2025-02-24_10h58.19.856,comp,2024.2.4,57.959354008702945,2025-02-24 10h58.39.260728 -0500,
14,14,0,critical,whd,35.0,4.0,lower,57.0,133.0,133.0,57.0,70.0,70.0,2,1.2053897380828857,None,,,,,0,0,0,0,0,14,14,88,108.60232281684875,,,,,,,,,,,,,,,,,,,,,,,,,,,,,,,,,,,,,,,,,,,,,,,,,,,,,,,,,,,,,,,,,,,,,,,,,,,,,,,,,,57.0,133.0,133.0,57.0,70.0,70.0,4.0,4.2,-191,-15,0,-289,160,-7,108.58798718452454,108.58806419372559,108.59152746200562,108.60232281684875,108.75225615501404,108.75225615501404,108.75225615501404,108.75225615501404,108.75225615501404,108.75225615501404,108.75225615501404,109.8229398727417,2,1.2053897380828857,None,,,,,,,,,,,,,,,,,,87,1,2025-02-24_10h58.19.856,comp,2024.2.4,57.959354008702945,2025-02-24 10h58.39.260728 -0500,
15,15,0,critical,whd,35.0,2.1,upper,125.0,200.0,200.0,125.0,127.0,127.0,2,1.1245107650756836,None,,,,,0,0,0,0,0,15,15,37,109.84316086769104,,,,,,,,,,,,,,,,,,,,,,,,,,,,,,,,,,,,,,,,,,,,,,,,,,,,,,,,,,,,,,,,,,,,,,,,,,,,,,,,,,125.0,200.0,200.0,125.0,127.0,127.0,2.1,2.12,-258,-266,0,-273,222,286,109.82454037666321,109.82461953163147,109.828125,109.84316086769104,109.987229347229,109.987229347229,109.987229347229,109.987229347229,109.987229347229,109.987229347229,109.987229347229,110.9852249622345,2,1.1245107650756836,None,,,,,,,,,,,,,,,,,,87,1,2025-02-24_10h58.19.856,comp,2024.2.4,57.959354008702945,2025-02-24 10h58.39.260728 -0500,
16,16,0,critical,wdh,35.0,2.1,upper,125.0,200.0,127.0,127.0,200.0,125.0,3,1.5352187156677246,None,,,,,0,0,0,0,0,16,16,9,111.00048637390137,,,,,,,,,,,,,,,,,,,,,,,,,,,,,,,,,,,,,,,,,,,,,,,,,,,,,,,,,,,,,,,,,,,,,,,,,,,,,,,,,,125.0,200.0,127.0,127.0,200.0,125.0,2.1,2.11,-260,268,0,272,222,-253,110.98670840263367,110.98678278923035,110.98992323875427,111.00048637390137,111.15130257606506,111.15130257606506,111.15130257606506,111.15130257606506,111.15130257606506,111.15130257606506,111.15130257606506,112.55313539505005,3,1.5352187156677246,None,,,,,,,,,,,,,,,,,,87,1,2025-02-24_10h58.19.856,comp,2024.2.4,57.959354008702945,2025-02-24 10h58.39.260728 -0500,
17,17,0,critical,dwh,35.0,2.1,lower,70.0,70.0,57.0,133.0,133.0,57.0,2,1.7408692836761475,None,,,,,0,0,0,0,0,17,17,28,112.57161784172058,,,,,,,,,,,,,,,,,,,,,,,,,,,,,,,,,,,,,,,,,,,,,,,,,,,,,,,,,,,,,,,,,,,,,,,,,,,,,,,,,,70.0,70.0,57.0,133.0,133.0,57.0,2.1,2.12,-198,-263,0,-282,191,270,112.55454611778259,112.55462217330933,112.55747199058533,112.57161784172058,112.71998929977417,112.71998929977417,112.71998929977417,112.71998929977417,112.71998929977417,112.71998929977417,112.71998929977417,114.31991004943848,2,1.7408692836761475,None,,,,,,,,,,,,,,,,,,87,1,2025-02-24_10h58.19.856,comp,2024.2.4,57.959354008702945,2025-02-24 10h58.39.260728 -0500,
18,18,0,critical,hdw,20.0,3.0,upper,200.0,125.0,141.0,141.0,125.0,200.0,1,1.756422758102417,None,,,,,0,0,0,0,0,18,18,117,114.33976793289185,,,,,,,,,,,,,,,,,,,,,,,,,,,,,,,,,,,,,,,,,,,,,,,,,,,,,,,,,,,,,,,,,,,,,,,,,,,,,,,,,,200.0,125.0,141.0,141.0,125.0,200.0,3.0,3.2,-229,-288,0,6,266,256,114.32147693634033,114.32155394554138,114.32475566864014,114.33976793289185,114.48755311965942,114.48755311965942,114.48755311965942,114.48755311965942,114.48755311965942,114.48755311965942,114.48755311965942,116.10684061050415,1,1.756422758102417,None,,,,,,,,,,,,,,,,,,87,1,2025-02-24_10h58.19.856,comp,2024.2.4,57.959354008702945,2025-02-24 10h58.39.260728 -0500,
19,19,0,critical,whd,35.0,2.1,lower,57.0,133.0,133.0,57.0,70.0,70.0,2,1.0746443271636963,None,,,,,0,0,0,0,0,19,19,36,116.12535190582275,,,,,,,,,,,,,,,,,,,,,,,,,,,,,,,,,,,,,,,,,,,,,,,,,,,,,,,,,,,,,,,,,,,,,,,,,,,,,,,,,,57.0,133.0,133.0,57.0,70.0,70.0,2.1,2.11,-191,272,0,253,160,-252,116.10843873023987,116.10851716995239,116.1122465133667,116.12535190582275,116.27150321006775,116.27150321006775,116.27150321006775,116.27150321006775,116.27150321006775,116.27150321006775,116.27150321006775,117.20544147491455,2,1.0746443271636963,None,,,,,,,,,,,,,,,,,,87,1,2025-02-24_10h58.19.856,comp,2024.2.4,57.959354008702945,2025-02-24 10h58.39.260728 -0500,
20,20,0,filler_square,None,None,None,None,None,None,None,None,None,None,2,1.1824657917022705,None,,,,,0,0,0,0,0,20,20,191,117.22536158561707,,,,,,,,,,,,,,,,,,,,,,,,,,,,,,,,,,,,,,,,,,,,,,,,,,,,,,,,,,,,,,,,,,,,,,,,,,,,,,,,,,73.32814586823645,70.5290454065874,88.38670587062721,88.38670587062721,62.215420253855456,86.11607995011991,4.0,4.2,-175,-16,0,-262,183,5,117.20719623565674,117.20727276802063,117.21041464805603,117.22536158561707,117.36177039146423,117.36177039146423,117.36177039146423,117.36177039146423,117.36177039146423,117.36177039146423,117.36177039146423,118.42200088500977,2,1.1824657917022705,None,,,,,,,,,,,,,,,,,,87,1,2025-02-24_10h58.19.856,comp,2024.2.4,57.959354008702945,2025-02-24 10h58.39.260728 -0500,
21,21,0,filler_random,None,None,None,None,None,None,None,None,None,None,2,1.3539011478424072,None,,,,,0,0,0,0,0,21,21,131,118.43778824806213,,,,,,,,,,,,,,,,,,,,,,,,,,,,,,,,,,,,,,,,,,,,,,,,,,,,,,,,,,,,,,,,,,,,,,,,,,,,,,,,,,58.53285370122266,62.39230225732901,170.20859237917196,141.374113868581,91.25581697627216,150.94399609556382,2.1,2.11,-198,284,0,273,242,-264,118.42390275001526,118.42402815818787,118.42743802070618,118.43778824806213,118.58712005615234,118.58712005615234,118.58712005615234,118.58712005615234,118.58712005615234,118.58712005615234,118.58712005615234,119.80276608467102,2,1.3539011478424072,None,,,,,,,,,,,,,,,,,,87,1,2025-02-24_10h58.19.856,comp,2024.2.4,57.959354008702945,2025-02-24 10h58.39.260728 -0500,
22,22,0,filler_square,None,None,None,None,None,None,None,None,None,None,2,1.284632682800293,None,,,,,0,0,0,0,0,22,22,190,119.81921744346619,,,,,,,,,,,,,,,,,,,,,,,,,,,,,,,,,,,,,,,,,,,,,,,,,,,,,,,,,,,,,,,,,,,,,,,,,,,,,,,,,,91.42606868150516,69.83188144936898,98.32689734642265,98.32689734642265,61.3221814590806,86.01863874933166,1.0,1.1,-660,259,-480,286,-292,285,119.80458688735962,119.80466294288635,119.80751347541809,119.81921744346619,119.97126626968384,119.97126626968384,119.97126626968384,119.97126626968384,119.97126626968384,119.97126626968384,119.97126626968384,121.1076033115387,2,1.284632682800293,None,,,,,,,,,,,,,,,,,,87,1,2025-02-24_10h58.19.856,comp,2024.2.4,57.959354008702945,2025-02-24 10h58.39.260728 -0500,
23,23,0,filler_square,None,None,None,None,None,None,None,None,None,None,2,1.215477466583252,None,,,,,0,0,0,0,0,23,23,172,121.1283004283905,,,,,,,,,,,,,,,,,,,,,,,,,,,,,,,,,,,,,,,,,,,,,,,,,,,,,,,,,,,,,,,,,,,,,,,,,,,,,,,,,,122.71583168839625,95.52758735393476,193.77863117138455,193.77863117138455,92.27442053077675,159.38802221661203,1.0,1.2,-241,16,0,7,273,-6,121.10938334465027,121.10946035385132,121.11255025863647,121.1283004283905,121.27307724952698,121.27307724952698,121.27307724952698,121.27307724952698,121.27307724952698,121.27307724952698,121.27307724952698,122.35644054412842,2,1.215477466583252,None,,,,,,,,,,,,,,,,,,87,1,2025-02-24_10h58.19.856,comp,2024.2.4,57.959354008702945,2025-02-24 10h58.39.260728 -0500,
24,24,0,filler_random,None,None,None,None,None,None,None,None,None,None,1,1.6020450592041016,None,,,,,0,0,0,0,0,24,24,153,122.37384867668152,,,,,,,,,,,,,,,,,,,,,,,,,,,,,,,,,,,,,,,,,,,,,,,,,,,,,,,,,,,,,,,,,,,,,,,,,,,,,,,,,,179.87493805029678,168.15822800766855,143.9017665918301,184.84325351603187,142.907778070093,83.68346300951859,1.0,1.3,207,-282,480,-272,710,-281,122.35809588432312,122.3581714630127,122.36121439933777,122.37384867668152,122.5238766670227,122.5238766670227,122.5238766670227,122.5238766670227,122.5238766670227,122.5238766670227,122.5238766670227,123.98991894721985,1,1.6020450592041016,None,,,,,,,,,,,,,,,,,,87,1,2025-02-24_10h58.19.856,comp,2024.2.4,57.959354008702945,2025-02-24 10h58.39.260728 -0500,
25,25,0,critical,dwh,35.0,2.1,upper,127.0,127.0,125.0,200.0,200.0,125.0,2,1.666654348373413,None,,,,,0,0,0,0,0,25,25,5,124.00563192367554,,,,,,,,,,,,,,,,,,,,,,,,,,,,,,,,,,,,,,,,,,,,,,,,,,,,,,,,,,,,,,,,,,,,,,,,,,,,,,,,,,127.0,127.0,125.0,200.0,200.0,125.0,2.1,2.12,-260,-256,0,-254,258,266,123.99149870872498,123.99157524108887,123.99476981163025,124.00563192367554,124.15788435935974,124.15788435935974,124.15788435935974,124.15788435935974,124.15788435935974,124.15788435935974,124.15788435935974,125.67652869224548,2,1.666654348373413,None,,,,,,,,,,,,,,,,,,87,1,2025-02-24_10h58.19.856,comp,2024.2.4,57.959354008702945,2025-02-24 10h58.39.260728 -0500,
26,26,0,critical,wdh,20.0,2.1,upper,125.0,200.0,141.0,141.0,200.0,125.0,3,1.3551445007324219,None,,,,,0,0,0,0,0,26,26,11,125.69250726699829,,,,,,,,,,,,,,,,,,,,,,,,,,,,,,,,,,,,,,,,,,,,,,,,,,,,,,,,,,,,,,,,,,,,,,,,,,,,,,,,,,125.0,200.0,141.0,141.0,200.0,125.0,2.1,2.11,-266,256,0,253,229,-258,125.67821907997131,125.67829704284668,125.68164825439453,125.69250726699829,125.8406388759613,125.8406388759613,125.8406388759613,125.8406388759613,125.8406388759613,125.8406388759613,125.8406388759613,127.0628719329834,3,1.3551445007324219,None,,,,,,,,,,,,,,,,,,87,1,2025-02-24_10h58.19.856,comp,2024.2.4,57.959354008702945,2025-02-24 10h58.39.260728 -0500,
27,27,0,critical,hwd,35.0,2.1,upper,200.0,125.0,125.0,200.0,127.0,127.0,1,1.2105064392089844,None,,,,,0,0,0,0,0,27,27,17,127.07755827903748,,,,,,,,,,,,,,,,,,,,,,,,,,,,,,,,,,,,,,,,,,,,,,,,,,,,,,,,,,,,,,,,,,,,,,,,,,,,,,,,,,200.0,125.0,125.0,200.0,127.0,127.0,2.1,2.11,-258,269,0,272,260,-260,127.06437802314758,127.06445264816284,127.06733870506287,127.07755827903748,127.2243754863739,127.2243754863739,127.2243754863739,127.2243754863739,127.2243754863739,127.2243754863739,127.2243754863739,128.29155445098877,1,1.2105064392089844,None,,,,,,,,,,,,,,,,,,87,1,2025-02-24_10h58.19.856,comp,2024.2.4,57.959354008702945,2025-02-24 10h58.39.260728 -0500,
28,28,0,filler_random,None,None,None,None,None,None,None,None,None,None,2,0.9958751201629639,None,,,,,0,0,0,0,0,28,28,156,128.30812764167786,,,,,,,,,,,,,,,,,,,,,,,,,,,,,,,,,,,,,,,,,,,,,,,,,,,,,,,,,,,,,,,,,,,,,,,,,,,,,,,,,,132.28133001557447,118.05522322620787,164.16186390053434,183.6729001398812,103.16418922911248,105.93509854341134,2.2,2.21,-247,-290,0,287,241,260,128.2932631969452,128.2933371067047,128.2963786125183,128.30812764167786,128.4641923904419,128.4641923904419,128.4641923904419,128.4641923904419,128.4641923904419,128.4641923904419,128.4641923904419,129.30804324150085,2,0.9958751201629639,None,,,,,,,,,,,,,,,,,,87,1,2025-02-24_10h58.19.856,comp,2024.2.4,57.959354008702945,2025-02-24 10h58.39.260728 -0500,
29,29,0,critical,hwd,35.0,2.1,lower,133.0,57.0,57.0,133.0,70.0,70.0,1,1.1150670051574707,None,,,,,0,0,0,0,0,29,29,40,129.32493901252747,,,,,,,,,,,,,,,,,,,,,,,,,,,,,,,,,,,,,,,,,,,,,,,,,,,,,,,,,,,,,,,,,,,,,,,,,,,,,,,,,,133.0,57.0,57.0,133.0,70.0,70.0,2.1,2.12,-191,-265,0,-290,198,287,129.30967926979065,129.30975580215454,129.31330394744873,129.32493901252747,129.47312593460083,129.47312593460083,129.47312593460083,129.47312593460083,129.47312593460083,129.47312593460083,129.47312593460083,130.46023225784302,1,1.1150670051574707,None,,,,,,,,,,,,,,,,,,87,1,2025-02-24_10h58.19.856,comp,2024.2.4,57.959354008702945,2025-02-24 10h58.39.260728 -0500,
30,30,0,critical,hdw,35.0,2.1,lower,133.0,57.0,70.0,70.0,57.0,133.0,1,1.391322135925293,None,,,,,0,0,0,0,0,30,30,44,130.48113751411438,,,,,,,,,,,,,,,,,,,,,,,,,,,,,,,,,,,,,,,,,,,,,,,,,,,,,,,,,,,,,,,,,,,,,,,,,,,,,,,,,,133.0,57.0,70.0,70.0,57.0,133.0,2.1,2.11,-160,284,0,257,198,-286,130.4617199897766,130.4617955684662,130.4650363922119,130.48113751411438,130.6259422302246,130.6259422302246,130.6259422302246,130.6259422302246,130.6259422302246,130.6259422302246,130.6259422302246,131.8804748058319,1,1.391322135925293,None,,,,,,,,,,,,,,,,,,87,1,2025-02-24_10h58.19.856,comp,2024.2.4,57.959354008702945,2025-02-24 10h58.39.260728 -0500,
31,31,0,critical,dhw,20.0,2.1,upper,141.0,141.0,200.0,125.0,125.0,200.0,3,1.424454689025879,None,,,,,0,0,0,0,0,31,31,27,131.89579510688782,,,,,,,,,,,,,,,,,,,,,,,,,,,,,,,,,,,,,,,,,,,,,,,,,,,,,,,,,,,,,,,,,,,,,,,,,,,,,,,,,,141.0,141.0,200.0,125.0,125.0,200.0,2.1,2.11,-229,255,0,256,258,-263,131.88218569755554,131.8822648525238,131.8851957321167,131.89579510688782,132.04335379600525,132.04335379600525,132.04335379600525,132.04335379600525,132.04335379600525,132.04335379600525,132.04335379600525,133.32513093948364,3,1.424454689025879,None,,,,,,,,,,,,,,,,,,87,1,2025-02-24_10h58.19.856,comp,2024.2.4,57.959354008702945,2025-02-24 10h58.39.260728 -0500,
32,32,0,filler_random,None,None,None,None,None,None,None,None,None,None,2,1.2768971920013428,None,,,,,0,0,0,0,0,32,32,157,133.3406801223755,,,,,,,,,,,,,,,,,,,,,,,,,,,,,,,,,,,,,,,,,,,,,,,,,,,,,,,,,,,,,,,,,,,,,,,,,,,,,,,,,,105.59124120640392,148.05060159534173,184.289736881563,112.92732795823008,70.06377153121267,174.21998596666873,2.2,2.21,-226,-286,0,252,240,275,133.32676148414612,133.32686972618103,133.32972645759583,133.3406801223755,133.49176692962646,133.49176692962646,133.49176692962646,133.49176692962646,133.49176692962646,133.49176692962646,133.49176692962646,134.62364721298218,2,1.2768971920013428,None,,,,,,,,,,,,,,,,,,87,1,2025-02-24_10h58.19.856,comp,2024.2.4,57.959354008702945,2025-02-24 10h58.39.260728 -0500,
33,33,0,filler_random,None,None,None,None,None,None,None,None,None,None,2,1.255960464477539,None,,,,,0,0,0,0,0,33,33,133,134.63991785049438,,,,,,,,,,,,,,,,,,,,,,,,,,,,,,,,,,,,,,,,,,,,,,,,,,,,,,,,,,,,,,,,,,,,,,,,,,,,,,,,,,121.60267238398173,75.76666649429352,66.70152693230838,193.56300973906426,101.90672304387147,117.32839059831664,3.0,3.2,-231,-285,0,-1,251,255,134.6253206729889,134.6253981590271,134.62835597991943,134.63991785049438,134.79534435272217,134.79534435272217,134.79534435272217,134.79534435272217,134.79534435272217,134.79534435272217,134.79534435272217,135.90088057518005,2,1.255960464477539,None,,,,,,,,,,,,,,,,,,87,1,2025-02-24_10h58.19.856,comp,2024.2.4,57.959354008702945,2025-02-24 10h58.39.260728 -0500,
34,34,0,critical,hdw,20.0,1.0,lower,133.0,57.0,78.0,78.0,57.0,133.0,3,2.0729451179504395,None,,,,,0,0,0,0,0,34,34,114,135.91964507102966,,,,,,,,,,,,,,,,,,,,,,,,,,,,,,,,,,,,,,,,,,,,,,,,,,,,,,,,,,,,,,,,,,,,,,,,,,,,,,,,,,133.0,57.0,78.0,78.0,57.0,133.0,1.0,1.2,-164,2,0,10,202,-19,135.90239715576172,135.90247464179993,135.90537238121033,135.91964507102966,136.06129789352417,136.06129789352417,136.06129789352417,136.06129789352417,136.06129789352417,136.06129789352417,136.06129789352417,137.99499797821045,3,2.0729451179504395,None,,,,,,,,,,,,,,,,,,87,1,2025-02-24_10h58.19.856,comp,2024.2.4,57.959354008702945,2025-02-24 10h58.39.260728 -0500,
35,35,0,filler_random,None,None,None,None,None,None,None,None,None,None,2,0.8610630035400391,None,,,,,0,0,0,0,0,35,35,144,138.01088786125183,,,,,,,,,,,,,,,,,,,,,,,,,,,,,,,,,,,,,,,,,,,,,,,,,,,,,,,,,,,,,,,,,,,,,,,,,,,,,,,,,,117.60850242805151,67.66824832863887,188.48917195943298,176.16480250714176,70.64765659186013,59.193552561074824,2.1,2.12,-218,-257,0,-277,214,278,137.9967155456543,137.99679470062256,138.00015902519226,138.01088786125183,138.16093826293945,138.16093826293945,138.16093826293945,138.16093826293945,138.16093826293945,138.16093826293945,138.16093826293945,138.88152074813843,2,0.8610630035400391,None,,,,,,,,,,,,,,,,,,87,1,2025-02-24_10h58.19.856,comp,2024.2.4,57.959354008702945,2025-02-24 10h58.39.260728 -0500,
36,36,0,filler_square,None,None,None,None,None,None,None,None,None,None,3,1.0439119338989258,None,,,,,0,0,0,0,0,36,36,184,138.9003746509552,,,,,,,,,,,,,,,,,,,,,,,,,,,,,,,,,,,,,,,,,,,,,,,,,,,,,,,,,,,,,,,,,,,,,,,,,,,,,,,,,,97.81648517662572,144.22033456563696,114.26704045663956,107.04412834761277,145.27078385344663,145.27078385344663,4.0,4.1,-222,-270,0,5,222,-255,138.88354015350342,138.8836169242859,138.8867826461792,138.9003746509552,139.05261063575745,139.05261063575745,139.05261063575745,139.05261063575745,139.05261063575745,139.05261063575745,139.05261063575745,139.96236038208008,3,1.0439119338989258,None,,,,,,,,,,,,,,,,,,87,1,2025-02-24_10h58.19.856,comp,2024.2.4,57.959354008702945,2025-02-24 10h58.39.260728 -0500,
37,37,0,critical,hwd,20.0,2.1,upper,200.0,125.0,125.0,200.0,141.0,141.0,2,1.3107962608337402,None,,,,,0,0,0,0,0,37,37,19,139.9774534702301,,,,,,,,,,,,,,,,,,,,,,,,,,,,,,,,,,,,,,,,,,,,,,,,,,,,,,,,,,,,,,,,,,,,,,,,,,,,,,,,,,200.0,125.0,125.0,200.0,141.0,141.0,2.1,2.12,-258,-287,0,-252,266,269,139.96383452415466,139.9639117717743,139.96721839904785,139.9774534702301,140.12633419036865,140.12633419036865,140.12633419036865,140.12633419036865,140.12633419036865,140.12633419036865,140.12633419036865,141.29650926589966,2,1.3107962608337402,None,,,,,,,,,,,,,,,,,,87,1,2025-02-24_10h58.19.856,comp,2024.2.4,57.959354008702945,2025-02-24 10h58.39.260728 -0500,
38,38,0,critical,dwh,20.0,2.1,lower,78.0,78.0,57.0,133.0,133.0,57.0,3,1.0319554805755615,None,,,,,0,0,0,0,0,38,38,6,141.3123116493225,,,,,,,,,,,,,,,,,,,,,,,,,,,,,,,,,,,,,,,,,,,,,,,,,,,,,,,,,,,,,,,,,,,,,,,,,,,,,,,,,,78.0,78.0,57.0,133.0,133.0,57.0,2.1,2.11,-202,275,0,284,191,-277,141.2980399131775,141.29811644554138,141.30115604400635,141.3123116493225,141.4535472393036,141.4535472393036,141.4535472393036,141.4535472393036,141.4535472393036,141.4535472393036,141.4535472393036,142.34955263137817,3,1.0319554805755615,None,,,,,,,,,,,,,,,,,,87,1,2025-02-24_10h58.19.856,comp,2024.2.4,57.959354008702945,2025-02-24 10h58.39.260728 -0500,
39,39,0,filler_square,None,None,None,None,None,None,None,None,None,None,2,0.9384634494781494,None,,,,,0,0,0,0,0,39,39,196,142.36579537391663,,,,,,,,,,,,,,,,,,,,,,,,,,,,,,,,,,,,,,,,,,,,,,,,,,,,,,,,,,,,,,,,,,,,,,,,,,,,,,,,,,98.96031344527688,104.74168113436593,145.78608804435657,119.48930613251133,147.050986421735,147.050986421735,3.0,3.2,-208,-276,0,4,229,267,142.3516252040863,142.35173630714417,142.3550465106964,142.36579537391663,142.5207040309906,142.5207040309906,142.5207040309906,142.5207040309906,142.5207040309906,142.5207040309906,142.5207040309906,143.31342697143555,2,0.9384634494781494,None,,,,,,,,,,,,,,,,,,87,1,2025-02-24_10h58.19.856,comp,2024.2.4,57.959354008702945,2025-02-24 10h58.39.260728 -0500,
40,40,0,critical,dhw,35.0,2.1,lower,70.0,70.0,133.0,57.0,57.0,133.0,3,1.3027491569519043,None,,,,,0,0,0,0,0,40,40,24,143.32938528060913,,,,,,,,,,,,,,,,,,,,,,,,,,,,,,,,,,,,,,,,,,,,,,,,,,,,,,,,,,,,,,,,,,,,,,,,,,,,,,,,,,70.0,70.0,133.0,57.0,57.0,133.0,2.1,2.12,-160,-281,0,-269,191,272,143.31497049331665,143.31508231163025,143.31848239898682,143.32938528060913,143.47795963287354,143.47795963287354,143.47795963287354,143.47795963287354,143.47795963287354,143.47795963287354,143.47795963287354,144.63436102867126,3,1.3027491569519043,None,,,,,,,,,,,,,,,,,,87,1,2025-02-24_10h58.19.856,comp,2024.2.4,57.959354008702945,2025-02-24 10h58.39.260728 -0500,
41,41,0,critical,dhw,35.0,4.0,upper,127.0,127.0,200.0,125.0,125.0,200.0,3,1.12410306930542,None,,,,,0,0,0,0,0,41,41,53,144.65190148353577,,,,,,,,,,,,,,,,,,,,,,,,,,,,,,,,,,,,,,,,,,,,,,,,,,,,,,,,,,,,,,,,,,,,,,,,,,,,,,,,,,127.0,127.0,200.0,125.0,125.0,200.0,4.0,4.2,-222,-6,0,-254,258,6,144.63626956939697,144.63635087013245,144.6392424106598,144.65190148353577,144.79382920265198,144.79382920265198,144.79382920265198,144.79382920265198,144.79382920265198,144.79382920265198,144.79382920265198,145.77991247177124,3,1.12410306930542,None,,,,,,,,,,,,,,,,,,87,1,2025-02-24_10h58.19.856,comp,2024.2.4,57.959354008702945,2025-02-24 10h58.39.260728 -0500,
42,42,0,catch,None,None,None,None,None,None,None,None,None,None,2,1.0743367671966553,None,,,,,0,0,0,0,0,42,42,125,145.7974419593811,,,,,,,,,,,,,,,,,,,,,,,,,,,,,,,,,,,,,,,,,,,,,,,,,,,,,,,,,,,,,,,,,,,,,,,,,,,,,,,,,,109,81,148,177,98,92,2.2,2.21,-225,-290,0,267,230,256,145.7820861339569,145.78216361999512,145.78572392463684,145.7974419593811,145.95060062408447,145.95060062408447,145.95060062408447,145.95060062408447,145.95060062408447,145.95060062408447,145.95060062408447,146.8834617137909,2,1.0743367671966553,None,,,,,,,,,,,,,,,,,,87,1,2025-02-24_10h58.19.856,comp,2024.2.4,57.959354008702945,2025-02-24 10h58.39.260728 -0500,
43,43,0,critical,dwh,35.0,1.0,upper,127.0,127.0,125.0,200.0,200.0,125.0,2,1.1163849830627441,None,,,,,0,0,0,0,0,43,43,61,146.89934992790222,,,,,,,,,,,,,,,,,,,,,,,,,,,,,,,,,,,,,,,,,,,,,,,,,,,,,,,,,,,,,,,,,,,,,,,,,,,,,,,,,,127.0,127.0,125.0,200.0,200.0,125.0,1.0,1.3,220,-263,480,-255,738,-250,146.88511490821838,146.88519382476807,146.88811087608337,146.89934992790222,147.0500946044922,147.0500946044922,147.0500946044922,147.0500946044922,147.0500946044922,147.0500946044922,147.0500946044922,148.03102326393127,2,1.1163849830627441,None,,,,,,,,,,,,,,,,,,87,1,2025-02-24_10h58.19.856,comp,2024.2.4,57.959354008702945,2025-02-24 10h58.39.260728 -0500,
44,44,0,critical,hdw,20.0,2.1,lower,133.0,57.0,78.0,78.0,57.0,133.0,3,1.4900376796722412,None,,,,,0,0,0,0,0,44,44,22,148.04769253730774,,,,,,,,,,,,,,,,,,,,,,,,,,,,,,,,,,,,,,,,,,,,,,,,,,,,,,,,,,,,,,,,,,,,,,,,,,,,,,,,,,133.0,57.0,78.0,78.0,57.0,133.0,2.1,2.11,-164,250,0,273,202,-269,148.03259921073914,148.03267455101013,148.0364224910736,148.04769253730774,148.20052361488342,148.20052361488342,148.20052361488342,148.20052361488342,148.20052361488342,148.20052361488342,148.20052361488342,149.54875302314758,3,1.4900376796722412,None,,,,,,,,,,,,,,,,,,87,1,2025-02-24_10h58.19.856,comp,2024.2.4,57.959354008702945,2025-02-24 10h58.39.260728 -0500,
45,45,0,critical,hdw,20.0,2.1,upper,200.0,125.0,141.0,141.0,125.0,200.0,3,1.0515117645263672,None,,,,,0,0,0,0,0,45,45,23,149.5643768310547,,,,,,,,,,,,,,,,,,,,,,,,,,,,,,,,,,,,,,,,,,,,,,,,,,,,,,,,,,,,,,,,,,,,,,,,,,,,,,,,,,200.0,125.0,141.0,141.0,125.0,200.0,2.1,2.11,-229,261,0,279,266,-268,149.55025267601013,149.55032920837402,149.5534086227417,149.5643768310547,149.71502447128296,149.71502447128296,149.71502447128296,149.71502447128296,149.71502447128296,149.71502447128296,149.71502447128296,150.63351917266846,3,1.0515117645263672,None,,,,,,,,,,,,,,,,,,87,1,2025-02-24_10h58.19.856,comp,2024.2.4,57.959354008702945,2025-02-24 10h58.39.260728 -0500,
46,46,0,critical,wdh,20.0,2.1,upper,125.0,200.0,141.0,141.0,200.0,125.0,3,1.4627721309661865,None,,,,,0,0,0,0,0,46,46,35,150.64929366111755,,,,,,,,,,,,,,,,,,,,,,,,,,,,,,,,,,,,,,,,,,,,,,,,,,,,,,,,,,,,,,,,,,,,,,,,,,,,,,,,,,125.0,200.0,141.0,141.0,200.0,125.0,2.1,2.12,-266,-259,0,-273,229,256,150.6350827217102,150.63519096374512,150.63905453681946,150.64929366111755,150.79660868644714,150.79660868644714,150.79660868644714,150.79660868644714,150.79660868644714,150.79660868644714,150.79660868644714,152.1176028251648,3,1.4627721309661865,None,,,,,,,,,,,,,,,,,,87,1,2025-02-24_10h58.19.856,comp,2024.2.4,57.959354008702945,2025-02-24 10h58.39.260728 -0500,
47,47,0,filler_square,None,None,None,None,None,None,None,None,None,None,3,0.994232177734375,None,,,,,0,0,0,0,0,47,47,194,152.1341996192932,,,,,,,,,,,,,,,,,,,,,,,,,,,,,,,,,,,,,,,,,,,,,,,,,,,,,,,,,,,,,,,,,,,,,,,,,,,,,,,,,,140.35986522680184,103.08885007328855,127.4325802934717,110.82835398655189,184.47409591606214,184.47409591606214,3.0,3.2,-203,-250,0,12,244,281,152.11967968940735,152.11975693702698,152.123033285141,152.1341996192932,152.274911403656,152.274911403656,152.274911403656,152.274911403656,152.274911403656,152.274911403656,152.274911403656,153.13646411895752,3,0.994232177734375,None,,,,,,,,,,,,,,,,,,87,1,2025-02-24_10h58.19.856,comp,2024.2.4,57.959354008702945,2025-02-24 10h58.39.260728 -0500,
48,48,0,filler_square,None,None,None,None,None,None,None,None,None,None,1,1.3992249965667725,None,,,,,0,0,0,0,0,48,48,176,153.15270447731018,,,,,,,,,,,,,,,,,,,,,,,,,,,,,,,,,,,,,,,,,,,,,,,,,,,,,,,,,,,,,,,,,,,,,,,,,,,,,,,,,,97.1313206966207,97.1313206966207,75.79758297352406,71.07393413661664,69.30412462554006,57.202454470748584,1.0,1.2,-180,11,0,20,160,10,153.13825583457947,153.1383352279663,153.14127850532532,153.15270447731018,153.298499584198,153.298499584198,153.298499584198,153.298499584198,153.298499584198,153.298499584198,153.298499584198,154.55378699302673,1,1.3992249965667725,None,,,,,,,,,,,,,,,,,,87,1,2025-02-24_10h58.19.856,comp,2024.2.4,57.959354008702945,2025-02-24 10h58.39.260728 -0500,
49,49,0,critical,hwd,35.0,4.0,upper,200.0,125.0,125.0,200.0,127.0,127.0,1,1.6631567478179932,None,,,,,0,0,0,0,0,49,49,101,154.56908702850342,,,,,,,,,,,,,,,,,,,,,,,,,,,,,,,,,,,,,,,,,,,,,,,,,,,,,,,,,,,,,,,,,,,,,,,,,,,,,,,,,,200.0,125.0,125.0,200.0,127.0,127.0,4.0,4.1,-258,-271,0,-3,260,-272,154.55547666549683,154.5555567741394,154.55841207504272,154.56908702850342,154.7162802219391,154.7162802219391,154.7162802219391,154.7162802219391,154.7162802219391,154.7162802219391,154.7162802219391,156.24097681045532,1,1.6631567478179932,None,,,,,,,,,,,,,,,,,,87,1,2025-02-24_10h58.19.856,comp,2024.2.4,57.959354008702945,2025-02-24 10h58.39.260728 -0500,
50,50,0,filler_random,None,None,None,None,None,None,None,None,None,None,2,1.4504444599151611,None,,,,,0,0,0,0,0,50,50,148,156.26188969612122,,,,,,,,,,,,,,,,,,,,,,,,,,,,,,,,,,,,,,,,,,,,,,,,,,,,,,,,,,,,,,,,,,,,,,,,,,,,,,,,,,72.40955307251669,96.8896821582652,136.99402758020472,151.70306344599788,178.77622394344422,105.35643887697066,1.0,1.1,-700,263,-480,288,-255,286,156.2427864074707,156.2429175376892,156.2461097240448,156.26188969612122,156.4016637802124,156.4016637802124,156.4016637802124,156.4016637802124,156.4016637802124,156.4016637802124,156.4016637802124,157.7209062576294,2,1.4504444599151611,None,,,,,,,,,,,,,,,,,,87,1,2025-02-24_10h58.19.856,comp,2024.2.4,57.959354008702945,2025-02-24 10h58.39.260728 -0500,
51,51,0,filler_square,None,None,None,None,None,None,None,None,None,None,2,2.612879991531372,None,,,,,0,0,0,0,0,51,51,175,157.73895454406738,,,,,,,,,,,,,,,,,,,,,,,,,,,,,,,,,,,,,,,,,,,,,,,,,,,,,,,,,,,,,,,,,,,,,,,,,,,,,,,,,,69.16916476968547,121.21585486291569,153.990479673137,153.990479673137,108.05996566069811,133.20920837637482,3.0,3.2,-234,-252,0,-16,240,274,157.72282814979553,157.72291707992554,157.7258322238922,157.73895454406738,157.88421988487244,157.88421988487244,157.88421988487244,157.88421988487244,157.88421988487244,157.88421988487244,157.88421988487244,160.3719162940979,2,2.612879991531372,None,,,,,,,,,,,,,,,,,,87,1,2025-02-24_10h58.19.856,comp,2024.2.4,57.959354008702945,2025-02-24 10h58.39.260728 -0500,
52,52,0,critical,dwh,20.0,2.1,lower,78.0,78.0,57.0,133.0,133.0,57.0,3,1.377702236175537,None,,,,,0,0,0,0,0,52,52,30,160.39007091522217,,,,,,,,,,,,,,,,,,,,,,,,,,,,,,,,,,,,,,,,,,,,,,,,,,,,,,,,,,,,,,,,,,,,,,,,,,,,,,,,,,78.0,78.0,57.0,133.0,133.0,57.0,2.1,2.11,-202,278,0,276,191,-253,160.37344694137573,160.37352395057678,160.3765835762024,160.39007091522217,160.53600668907166,160.53600668907166,160.53600668907166,160.53600668907166,160.53600668907166,160.53600668907166,160.53600668907166,161.76988697052002,3,1.377702236175537,None,,,,,,,,,,,,,,,,,,87,1,2025-02-24_10h58.19.856,comp,2024.2.4,57.959354008702945,2025-02-24 10h58.39.260728 -0500,
53,53,0,critical,dwh,35.0,4.0,upper,127.0,127.0,125.0,200.0,200.0,125.0,3,1.1823759078979492,None,,,,,0,0,0,0,0,53,53,65,161.78550720214844,,,,,,,,,,,,,,,,,,,,,,,,,,,,,,,,,,,,,,,,,,,,,,,,,,,,,,,,,,,,,,,,,,,,,,,,,,,,,,,,,,127.0,127.0,125.0,200.0,200.0,125.0,4.0,4.1,-260,-256,0,18,258,-253,161.77139568328857,161.77147221565247,161.77479553222656,161.78550720214844,161.9374921321869,161.9374921321869,161.9374921321869,161.9374921321869,161.9374921321869,161.9374921321869,161.9374921321869,162.98467636108398,3,1.1823759078979492,None,,,,,,,,,,,,,,,,,,87,1,2025-02-24_10h58.19.856,comp,2024.2.4,57.959354008702945,2025-02-24 10h58.39.260728 -0500,
54,54,0,filler_square,None,None,None,None,None,None,None,None,None,None,1,1.1786832809448242,None,,,,,0,0,0,0,0,54,54,198,163.0051076412201,,,,,,,,,,,,,,,,,,,,,,,,,,,,,,,,,,,,,,,,,,,,,,,,,,,,,,,,,,,,,,,,,,,,,,,,,,,,,,,,,,81.93522224823737,81.93522224823737,67.57672980637537,81.57144260851089,66.05014806593961,75.85896314580212,1.0,1.3,302,-262,480,-265,655,-260,162.98668026924133,162.98675680160522,162.9899332523346,163.0051076412201,163.15336561203003,163.15336561203003,163.15336561203003,163.15336561203003,163.15336561203003,163.15336561203003,163.15336561203003,164.1876621246338,1,1.1786832809448242,None,,,,,,,,,,,,,,,,,,87,1,2025-02-24_10h58.19.856,comp,2024.2.4,57.959354008702945,2025-02-24 10h58.39.260728 -0500,
55,55,0,filler_random,None,None,None,None,None,None,None,None,None,None,1,1.157151699066162,None,,,,,0,0,0,0,0,55,55,151,164.20419716835022,,,,,,,,,,,,,,,,,,,,,,,,,,,,,,,,,,,,,,,,,,,,,,,,,,,,,,,,,,,,,,,,,,,,,,,,,,,,,,,,,,195.90993906671494,148.54505119390276,96.80337755046025,118.55628350527608,141.0198785021227,83.95794678194218,4.0,4.1,-230,-265,0,-12,197,-250,164.18947291374207,164.18960046768188,164.1934072971344,164.20419716835022,164.35309982299805,164.35309982299805,164.35309982299805,164.35309982299805,164.35309982299805,164.35309982299805,164.35309982299805,165.37078976631165,1,1.157151699066162,None,,,,,,,,,,,,,,,,,,87,1,2025-02-24_10h58.19.856,comp,2024.2.4,57.959354008702945,2025-02-24 10h58.39.260728 -0500,
56,56,0,critical,hwd,35.0,2.1,lower,133.0,57.0,57.0,133.0,70.0,70.0,2,2.259037494659424,None,,,,,0,0,0,0,0,56,56,16,165.3888967037201,,,,,,,,,,,,,,,,,,,,,,,,,,,,,,,,,,,,,,,,,,,,,,,,,,,,,,,,,,,,,,,,,,,,,,,,,,,,,,,,,,133.0,57.0,57.0,133.0,70.0,70.0,2.1,2.11,-191,286,0,286,198,-265,165.3723030090332,165.3723783493042,165.3755178451538,165.3888967037201,165.53428173065186,165.53428173065186,165.53428173065186,165.53428173065186,165.53428173065186,165.53428173065186,165.53428173065186,167.65873908996582,2,2.259037494659424,None,,,,,,,,,,,,,,,,,,87,1,2025-02-24_10h58.19.856,comp,2024.2.4,57.959354008702945,2025-02-24 10h58.39.260728 -0500,
57,57,0,filler_random,None,None,None,None,None,None,None,None,None,None,3,1.1172139644622803,None,,,,,0,0,0,0,0,57,57,135,167.67579770088196,,,,,,,,,,,,,,,,,,,,,,,,,,,,,,,,,,,,,,,,,,,,,,,,,,,,,,,,,,,,,,,,,,,,,,,,,,,,,,,,,,59.363813803046334,127.25938550848046,99.35160744893719,84.3389629787999,127.8352423217878,156.78580363401022,1.0,1.2,-202,6,0,0,217,-1,167.66056442260742,167.66067337989807,167.6639039516449,167.67579770088196,167.82375526428223,167.82375526428223,167.82375526428223,167.82375526428223,167.82375526428223,167.82375526428223,167.82375526428223,168.79694509506226,3,1.1172139644622803,None,,,,,,,,,,,,,,,,,,87,1,2025-02-24_10h58.19.856,comp,2024.2.4,57.959354008702945,2025-02-24 10h58.39.260728 -0500,
58,58,0,filler_square,None,None,None,None,None,None,None,None,None,None,1,1.4304792881011963,None,,,,,0,0,0,0,0,58,58,177,168.81732821464539,,,,,,,,,,,,,,,,,,,,,,,,,,,,,,,,,,,,,,,,,,,,,,,,,,,,,,,,,,,,,,,,,,,,,,,,,,,,,,,,,,110.53117025695553,110.53117025695553,89.56740945891796,71.84978963118044,65.94504841787743,104.87345731620717,4.0,4.1,-187,-259,0,9,184,-283,168.79869747161865,168.79877471923828,168.80161309242249,168.81732821464539,168.9554944038391,168.9554944038391,168.9554944038391,168.9554944038391,168.9554944038391,168.9554944038391,168.9554944038391,170.26229667663574,1,1.4304792881011963,None,,,,,,,,,,,,,,,,,,87,1,2025-02-24_10h58.19.856,comp,2024.2.4,57.959354008702945,2025-02-24 10h58.39.260728 -0500,
59,59,0,critical,hdw,35.0,4.0,upper,200.0,125.0,127.0,127.0,125.0,200.0,3,1.6915483474731445,None,,,,,0,0,0,0,0,59,59,113,170.27710700035095,,,,,,,,,,,,,,,,,,,,,,,,,,,,,,,,,,,,,,,,,,,,,,,,,,,,,,,,,,,,,,,,,,,,,,,,,,,,,,,,,,200.0,125.0,127.0,127.0,125.0,200.0,4.0,4.1,-222,-276,0,15,260,-276,170.26383876800537,170.26391577720642,170.26674580574036,170.27710700035095,170.41989398002625,170.41989398002625,170.41989398002625,170.41989398002625,170.41989398002625,170.41989398002625,170.41989398002625,171.9739372730255,3,1.6915483474731445,None,,,,,,,,,,,,,,,,,,87,1,2025-02-24_10h58.19.856,comp,2024.2.4,57.959354008702945,2025-02-24 10h58.39.260728 -0500,
60,60,0,critical,hdw,35.0,3.0,lower,133.0,57.0,70.0,70.0,57.0,133.0,1,1.5049011707305908,None,,,,,0,0,0,0,0,60,60,110,171.991219997406,,,,,,,,,,,,,,,,,,,,,,,,,,,,,,,,,,,,,,,,,,,,,,,,,,,,,,,,,,,,,,,,,,,,,,,,,,,,,,,,,,133.0,57.0,70.0,70.0,57.0,133.0,3.0,3.1,-160,266,0,-20,198,-258,171.9757375717163,171.97584795951843,171.97963738441467,171.991219997406,172.13877964019775,172.13877964019775,172.13877964019775,172.13877964019775,172.13877964019775,172.13877964019775,172.13877964019775,173.5051190853119,1,1.5049011707305908,None,,,,,,,,,,,,,,,,,,87,1,2025-02-24_10h58.19.856,comp,2024.2.4,57.959354008702945,2025-02-24 10h58.39.260728 -0500,
61,61,0,filler_square,None,None,None,None,None,None,None,None,None,None,2,1.1589443683624268,None,,,,,0,0,0,0,0,61,61,195,173.52203059196472,,,,,,,,,,,,,,,,,,,,,,,,,,,,,,,,,,,,,,,,,,,,,,,,,,,,,,,,,,,,,,,,,,,,,,,,,,,,,,,,,,75.80179357490832,103.64058086717986,157.78103707570048,157.78103707570048,121.12729038302251,77.8059202223787,1.0,1.1,-707,267,-480,274,-266,265,173.50688004493713,173.50695657730103,173.50999331474304,173.52203059196472,173.6732633113861,173.6732633113861,173.6732633113861,173.6732633113861,173.6732633113861,173.6732633113861,173.6732633113861,174.68900060653687,2,1.1589443683624268,None,,,,,,,,,,,,,,,,,,87,1,2025-02-24_10h58.19.856,comp,2024.2.4,57.959354008702945,2025-02-24 10h58.39.260728 -0500,
62,62,0,filler_square,None,None,None,None,None,None,None,None,None,None,2,1.1426010131835938,None,,,,,0,0,0,0,0,62,62,204,174.7054123878479,,,,,,,,,,,,,,,,,,,,,,,,,,,,,,,,,,,,,,,,,,,,,,,,,,,,,,,,,,,,,,,,,,,,,,,,,,,,,,,,,,99.28091306568798,63.7873341075577,125.50318433389295,125.50318433389295,57.778460458908505,112.77215276937088,2.2,2.22,-191,260,0,-270,215,-262,174.6906976699829,174.69077396392822,174.6938247680664,174.7054123878479,174.8562717437744,174.8562717437744,174.8562717437744,174.8562717437744,174.8562717437744,174.8562717437744,174.8562717437744,175.86143803596497,2,1.1426010131835938,None,,,,,,,,,,,,,,,,,,87,1,2025-02-24_10h58.19.856,comp,2024.2.4,57.959354008702945,2025-02-24 10h58.39.260728 -0500,
63,63,0,filler_random,None,None,None,None,None,None,None,None,None,None,3,0.9976675510406494,None,,,,,0,0,0,0,0,63,63,138,175.8823697566986,,,,,,,,,,,,,,,,,,,,,,,,,,,,,,,,,,,,,,,,,,,,,,,,,,,,,,,,,,,,,,,,,,,,,,,,,,,,,,,,,,127.09037989975542,65.72002151446961,118.87016966087263,84.42497082803219,180.01988944372803,106.10149362264733,3.0,3.1,-171,289,0,-2,191,-290,175.86313462257385,175.86321306228638,175.86609530448914,175.8823697566986,176.02367496490479,176.02367496490479,176.02367496490479,176.02367496490479,176.02367496490479,176.02367496490479,176.02367496490479,176.88849258422852,3,0.9976675510406494,None,,,,,,,,,,,,,,,,,,87,1,2025-02-24_10h58.19.856,comp,2024.2.4,57.959354008702945,2025-02-24 10h58.39.260728 -0500,
64,64,0,critical,hwd,20.0,2.1,lower,133.0,57.0,57.0,133.0,78.0,78.0,1,1.9756691455841064,None,,,,,0,0,0,0,0,64,64,42,176.9048843383789,,,,,,,,,,,,,,,,,,,,,,,,,,,,,,,,,,,,,,,,,,,,,,,,,,,,,,,,,,,,,,,,,,,,,,,,,,,,,,,,,,133.0,57.0,57.0,133.0,78.0,78.0,2.1,2.11,-191,280,0,264,202,-280,176.88996481895447,176.89004135131836,176.8928668498993,176.9048843383789,177.05692410469055,177.05692410469055,177.05692410469055,177.05692410469055,177.05692410469055,177.05692410469055,177.05692410469055,178.88806653022766,1,1.9756691455841064,None,,,,,,,,,,,,,,,,,,87,1,2025-02-24_10h58.19.856,comp,2024.2.4,57.959354008702945,2025-02-24 10h58.39.260728 -0500,
65,65,0,filler_square,None,None,None,None,None,None,None,None,None,None,2,1.119483470916748,None,,,,,0,0,0,0,0,65,65,186,178.90504789352417,,,,,,,,,,,,,,,,,,,,,,,,,,,,,,,,,,,,,,,,,,,,,,,,,,,,,,,,,,,,,,,,,,,,,,,,,,,,,,,,,,63.55223547984191,64.1747044305628,144.55238002359243,144.55238002359243,93.27917242821715,104.08247100432041,4.0,4.2,-200,-14,0,-264,220,-5,178.89002108573914,178.89014768600464,178.89336681365967,178.90504789352417,179.05491590499878,179.05491590499878,179.05491590499878,179.05491590499878,179.05491590499878,179.05491590499878,179.05491590499878,180.0272843837738,2,1.119483470916748,None,,,,,,,,,,,,,,,,,,87,1,2025-02-24_10h58.19.856,comp,2024.2.4,57.959354008702945,2025-02-24 10h58.39.260728 -0500,
66,66,0,critical,whd,35.0,4.0,upper,125.0,200.0,200.0,125.0,127.0,127.0,2,1.3650341033935547,None,,,,,0,0,0,0,0,66,66,89,180.0429491996765,,,,,,,,,,,,,,,,,,,,,,,,,,,,,,,,,,,,,,,,,,,,,,,,,,,,,,,,,,,,,,,,,,,,,,,,,,,,,,,,,,125.0,200.0,200.0,125.0,127.0,127.0,4.0,4.2,-258,-18,0,-283,222,3,180.0289590358734,180.02903771400452,180.03196215629578,180.0429491996765,180.18885493278503,180.18885493278503,180.18885493278503,180.18885493278503,180.18885493278503,180.18885493278503,180.18885493278503,181.4098596572876,2,1.3650341033935547,None,,,,,,,,,,,,,,,,,,87,1,2025-02-24_10h58.19.856,comp,2024.2.4,57.959354008702945,2025-02-24 10h58.39.260728 -0500,
67,67,0,critical,wdh,35.0,3.0,lower,57.0,133.0,70.0,70.0,133.0,57.0,3,1.133188009262085,None,,,,,0,0,0,0,0,67,67,74,181.42673015594482,,,,,,,,,,,,,,,,,,,,,,,,,,,,,,,,,,,,,,,,,,,,,,,,,,,,,,,,,,,,,,,,,,,,,,,,,,,,,,,,,,57.0,133.0,70.0,70.0,133.0,57.0,3.0,3.2,-198,-267,0,7,160,264,181.41136288642883,181.41144919395447,181.4144802093506,181.42673015594482,181.57489657402039,181.57489657402039,181.57489657402039,181.57489657402039,181.57489657402039,181.57489657402039,181.57489657402039,182.5749204158783,3,1.133188009262085,None,,,,,,,,,,,,,,,,,,87,1,2025-02-24_10h58.19.856,comp,2024.2.4,57.959354008702945,2025-02-24 10h58.39.260728 -0500,
68,68,0,filler_random,None,None,None,None,None,None,None,None,None,None,2,0.836989164352417,None,,,,,0,0,0,0,0,68,68,143,182.5948007106781,,,,,,,,,,,,,,,,,,,,,,,,,,,,,,,,,,,,,,,,,,,,,,,,,,,,,,,,,,,,,,,,,,,,,,,,,,,,,,,,,,149.5701937744904,136.5275070884431,197.9163920634296,135.93480747123672,156.22471476723945,71.97017557655438,1.0,1.1,-712,284,-480,258,-280,271,182.57665085792542,182.57672452926636,182.5798454284668,182.5948007106781,182.7419228553772,182.7419228553772,182.7419228553772,182.7419228553772,182.7419228553772,182.7419228553772,182.7419228553772,183.44076895713806,2,0.836989164352417,None,,,,,,,,,,,,,,,,,,87,1,2025-02-24_10h58.19.856,comp,2024.2.4,57.959354008702945,2025-02-24 10h58.39.260728 -0500,
69,69,0,critical,wdh,20.0,3.0,lower,57.0,133.0,78.0,78.0,133.0,57.0,3,1.358593225479126,None,,,,,0,0,0,0,0,69,69,80,183.45793986320496,,,,,,,,,,,,,,,,,,,,,,,,,,,,,,,,,,,,,,,,,,,,,,,,,,,,,,,,,,,,,,,,,,,,,,,,,,,,,,,,,,57.0,133.0,78.0,78.0,133.0,57.0,3.0,3.2,-202,-281,0,-12,164,276,183.44229817390442,183.44237661361694,183.44530200958252,183.45793986320496,183.61205744743347,183.61205744743347,183.61205744743347,183.61205744743347,183.61205744743347,183.61205744743347,183.61205744743347,184.82651925086975,3,1.358593225479126,None,,,,,,,,,,,,,,,,,,87,1,2025-02-24_10h58.19.856,comp,2024.2.4,57.959354008702945,2025-02-24 10h58.39.260728 -0500,
70,70,0,filler_random,None,None,None,None,None,None,None,None,None,None,1,1.5253081321716309,None,,,,,0,0,0,0,0,70,70,158,184.8424427509308,,,,,,,,,,,,,,,,,,,,,,,,,,,,,,,,,,,,,,,,,,,,,,,,,,,,,,,,,,,,,,,,,,,,,,,,,,,,,,,,,,140.03265378310152,155.14241065234023,68.98345190037097,125.33071005604548,157.87268254938408,110.26080789554479,1.0,1.2,-236,-12,0,15,214,-18,184.82830047607422,184.82838606834412,184.83169293403625,184.8424427509308,184.9938600063324,184.9938600063324,184.9938600063324,184.9938600063324,184.9938600063324,184.9938600063324,184.9938600063324,186.3824725151062,1,1.5253081321716309,None,,,,,,,,,,,,,,,,,,87,1,2025-02-24_10h58.19.856,comp,2024.2.4,57.959354008702945,2025-02-24 10h58.39.260728 -0500,
71,71,0,critical,hdw,35.0,2.1,lower,133.0,57.0,70.0,70.0,57.0,133.0,1,1.4024791717529297,None,,,,,0,0,0,0,0,71,71,20,186.3977415561676,,,,,,,,,,,,,,,,,,,,,,,,,,,,,,,,,,,,,,,,,,,,,,,,,,,,,,,,,,,,,,,,,,,,,,,,,,,,,,,,,,133.0,57.0,70.0,70.0,57.0,133.0,2.1,2.12,-160,-286,0,-281,198,265,186.384094953537,186.38417053222656,186.38740491867065,186.3977415561676,186.5439214706421,186.5439214706421,186.5439214706421,186.5439214706421,186.5439214706421,186.5439214706421,186.5439214706421,187.81324076652527,1,1.4024791717529297,None,,,,,,,,,,,,,,,,,,87,1,2025-02-24_10h58.19.856,comp,2024.2.4,57.959354008702945,2025-02-24 10h58.39.260728 -0500,
72,72,0,filler_square,None,None,None,None,None,None,None,None,None,None,1,1.7877252101898193,None,,,,,0,0,0,0,0,72,72,205,187.82951140403748,,,,,,,,,,,,,,,,,,,,,,,,,,,,,,,,,,,,,,,,,,,,,,,,,,,,,,,,,,,,,,,,,,,,,,,,,,,,,,,,,,86.11563242419454,86.11563242419454,84.88333368813777,60.270612479662624,81.1472788311568,79.46683752206724,4.0,4.1,-169,-281,0,-9,166,-253,187.81525778770447,187.81533765792847,187.81865763664246,187.82951140403748,187.97740077972412,187.97740077972412,187.97740077972412,187.97740077972412,187.97740077972412,187.97740077972412,187.97740077972412,189.6279673576355,1,1.7877252101898193,None,,,,,,,,,,,,,,,,,,87,1,2025-02-24_10h58.19.856,comp,2024.2.4,57.959354008702945,2025-02-24 10h58.39.260728 -0500,
73,73,0,critical,whd,20.0,2.1,upper,125.0,200.0,200.0,125.0,141.0,141.0,2,1.6521697044372559,None,,,,,0,0,0,0,0,73,73,39,189.6436893939972,,,,,,,,,,,,,,,,,,,,,,,,,,,,,,,,,,,,,,,,,,,,,,,,,,,,,,,,,,,,,,,,,,,,,,,,,,,,,,,,,,125.0,200.0,200.0,125.0,141.0,141.0,2.1,2.11,-258,274,0,285,229,-273,189.62950730323792,189.6295862197876,189.63297605514526,189.6436893939972,189.793194770813,189.793194770813,189.793194770813,189.793194770813,189.793194770813,189.793194770813,189.793194770813,191.31268978118896,2,1.6521697044372559,None,,,,,,,,,,,,,,,,,,87,1,2025-02-24_10h58.19.856,comp,2024.2.4,57.959354008702945,2025-02-24 10h58.39.260728 -0500,
74,74,0,catch,None,None,None,None,None,None,None,None,None,None,1,0.9190914630889893,None,,,,,0,0,0,0,0,74,74,127,191.32883048057556,,,,,,,,,,,,,,,,,,,,,,,,,,,,,,,,,,,,,,,,,,,,,,,,,,,,,,,,,,,,,,,,,,,,,,,,,,,,,,,,,,162,163,110,80,96,94,1.0,1.1,-698,281,-480,286,-297,286,191.31490564346313,191.31498312950134,191.31854724884033,191.32883048057556,191.4775207042694,191.4775207042694,191.4775207042694,191.4775207042694,191.4775207042694,191.4775207042694,191.4775207042694,192.25134181976318,1,0.9190914630889893,None,,,,,,,,,,,,,,,,,,87,1,2025-02-24_10h58.19.856,comp,2024.2.4,57.959354008702945,2025-02-24 10h58.39.260728 -0500,
75,75,0,critical,wdh,35.0,4.0,upper,125.0,200.0,127.0,127.0,200.0,125.0,3,1.114318609237671,None,,,,,0,0,0,0,0,75,75,77,192.26947259902954,,,,,,,,,,,,,,,,,,,,,,,,,,,,,,,,,,,,,,,,,,,,,,,,,,,,,,,,,,,,,,,,,,,,,,,,,,,,,,,,,,125.0,200.0,127.0,127.0,200.0,125.0,4.0,4.1,-260,-259,0,19,222,-265,192.25290632247925,192.25298309326172,192.2565519809723,192.26947259902954,192.40539026260376,192.40539026260376,192.40539026260376,192.40539026260376,192.40539026260376,192.40539026260376,192.40539026260376,193.39457988739014,3,1.114318609237671,None,,,,,,,,,,,,,,,,,,87,1,2025-02-24_10h58.19.856,comp,2024.2.4,57.959354008702945,2025-02-24 10h58.39.260728 -0500,
76,76,0,filler_square,None,None,None,None,None,None,None,None,None,None,1,1.3615808486938477,None,,,,,0,0,0,0,0,76,76,189,193.41460061073303,,,,,,,,,,,,,,,,,,,,,,,,,,,,,,,,,,,,,,,,,,,,,,,,,,,,,,,,,,,,,,,,,,,,,,,,,,,,,,,,,,189.71581306897838,189.71581306897838,171.7267911064127,148.29769734124076,177.18030174877242,156.42340591862046,2.2,2.22,-265,279,0,-251,248,-288,193.39641666412354,193.3964946269989,193.39956212043762,193.41460061073303,193.56231212615967,193.56231212615967,193.56231212615967,193.56231212615967,193.56231212615967,193.56231212615967,193.56231212615967,194.77817177772522,1,1.3615808486938477,None,,,,,,,,,,,,,,,,,,87,1,2025-02-24_10h58.19.856,comp,2024.2.4,57.959354008702945,2025-02-24 10h58.39.260728 -0500,
77,77,0,critical,whd,20.0,2.1,lower,57.0,133.0,133.0,57.0,78.0,78.0,2,1.2218194007873535,None,,,,,0,0,0,0,0,77,77,38,194.79399919509888,,,,,,,,,,,,,,,,,,,,,,,,,,,,,,,,,,,,,,,,,,,,,,,,,,,,,,,,,,,,,,,,,,,,,,,,,,,,,,,,,,57.0,133.0,133.0,57.0,78.0,78.0,2.1,2.12,-191,-290,0,-262,164,280,194.77974247932434,194.77985644340515,194.7831847667694,194.79399919509888,194.95126938819885,194.95126938819885,194.95126938819885,194.95126938819885,194.95126938819885,194.95126938819885,194.95126938819885,196.02909016609192,2,1.2218194007873535,None,,,,,,,,,,,,,,,,,,87,1,2025-02-24_10h58.19.856,comp,2024.2.4,57.959354008702945,2025-02-24 10h58.39.260728 -0500,
78,78,0,filler_random,None,None,None,None,None,None,None,None,None,None,3,1.2985913753509521,None,,,,,0,0,0,0,0,78,78,136,196.0459282398224,,,,,,,,,,,,,,,,,,,,,,,,,,,,,,,,,,,,,,,,,,,,,,,,,,,,,,,,,,,,,,,,,,,,,,,,,,,,,,,,,,107.8145617245558,74.96626554105566,78.79898287795157,116.49034532436153,159.0139333276109,60.723055695860495,1.0,1.2,-192,-12,0,-18,185,10,196.03091502189636,196.03103137016296,196.03471088409424,196.0459282398224,196.2026641368866,196.2026641368866,196.2026641368866,196.2026641368866,196.2026641368866,196.2026641368866,196.2026641368866,197.36285281181335,3,1.2985913753509521,None,,,,,,,,,,,,,,,,,,87,1,2025-02-24_10h58.19.856,comp,2024.2.4,57.959354008702945,2025-02-24 10h58.39.260728 -0500,
79,79,0,filler_random,None,None,None,None,None,None,None,None,None,None,1,1.5492594242095947,None,,,,,0,0,0,0,0,79,79,163,197.3786792755127,,,,,,,,,,,,,,,,,,,,,,,,,,,,,,,,,,,,,,,,,,,,,,,,,,,,,,,,,,,,,,,,,,,,,,,,,,,,,,,,,,103.86333267837847,182.37037186476863,80.8993532455775,192.40061182684892,107.6372275850965,80.80742202949752,4.0,4.2,-283,5,0,-279,233,17,197.36443161964417,197.36450695991516,197.3674328327179,197.3786792755127,197.53884935379028,197.53884935379028,197.53884935379028,197.53884935379028,197.53884935379028,197.53884935379028,197.53884935379028,198.93328428268433,1,1.5492594242095947,None,,,,,,,,,,,,,,,,,,87,1,2025-02-24_10h58.19.856,comp,2024.2.4,57.959354008702945,2025-02-24 10h58.39.260728 -0500,
80,80,0,critical,hdw,35.0,3.0,upper,200.0,125.0,127.0,127.0,125.0,200.0,1,2.117765188217163,None,,,,,0,0,0,0,0,80,80,111,198.95401406288147,,,,,,,,,,,,,,,,,,,,,,,,,,,,,,,,,,,,,,,,,,,,,,,,,,,,,,,,,,,,,,,,,,,,,,,,,,,,,,,,,,200.0,125.0,127.0,127.0,125.0,200.0,3.0,3.1,-222,277,0,10,260,-282,198.9351189136505,198.93525004386902,198.93846249580383,198.95401406288147,199.0976436138153,199.0976436138153,199.0976436138153,199.0976436138153,199.0976436138153,199.0976436138153,199.0976436138153,201.0840084552765,1,2.117765188217163,None,,,,,,,,,,,,,,,,,,87,1,2025-02-24_10h58.19.856,comp,2024.2.4,57.959354008702945,2025-02-24 10h58.39.260728 -0500,
81,81,0,critical,dwh,20.0,3.0,upper,141.0,141.0,125.0,200.0,200.0,125.0,3,1.2681984901428223,None,,,,,0,0,0,0,0,81,81,69,201.09982824325562,,,,,,,,,,,,,,,,,,,,,,,,,,,,,,,,,,,,,,,,,,,,,,,,,,,,,,,,,,,,,,,,,,,,,,,,,,,,,,,,,,141.0,141.0,125.0,200.0,200.0,125.0,3.0,3.1,-266,276,0,-17,258,-255,201.08602929115295,201.08613777160645,201.08912086486816,201.09982824325562,201.24575638771057,201.24575638771057,201.24575638771057,201.24575638771057,201.24575638771057,201.24575638771057,201.24575638771057,202.38700675964355,3,1.2681984901428223,None,,,,,,,,,,,,,,,,,,87,1,2025-02-24_10h58.19.856,comp,2024.2.4,57.959354008702945,2025-02-24 10h58.39.260728 -0500,
82,82,0,critical,dhw,35.0,2.1,upper,127.0,127.0,200.0,125.0,125.0,200.0,3,1.3184115886688232,None,,,,,0,0,0,0,0,82,82,25,202.40288543701172,,,,,,,,,,,,,,,,,,,,,,,,,,,,,,,,,,,,,,,,,,,,,,,,,,,,,,,,,,,,,,,,,,,,,,,,,,,,,,,,,,127.0,127.0,200.0,125.0,125.0,200.0,2.1,2.11,-222,288,0,251,258,-256,202.38856863975525,202.38864421844482,202.39189624786377,202.40288543701172,202.54955577850342,202.54955577850342,202.54955577850342,202.54955577850342,202.54955577850342,202.54955577850342,202.54955577850342,203.73241066932678,3,1.3184115886688232,None,,,,,,,,,,,,,,,,,,87,1,2025-02-24_10h58.19.856,comp,2024.2.4,57.959354008702945,2025-02-24 10h58.39.260728 -0500,
83,83,0,critical,whd,35.0,3.0,lower,57.0,133.0,133.0,57.0,70.0,70.0,2,1.571721076965332,None,,,,,0,0,0,0,0,83,83,86,203.7482578754425,,,,,,,,,,,,,,,,,,,,,,,,,,,,,,,,,,,,,,,,,,,,,,,,,,,,,,,,,,,,,,,,,,,,,,,,,,,,,,,,,,57.0,133.0,133.0,57.0,70.0,70.0,3.0,3.1,-191,281,0,-11,160,-284,203.7338559627533,203.7339358329773,203.73731970787048,203.7482578754425,203.90254187583923,203.90254187583923,203.90254187583923,203.90254187583923,203.90254187583923,203.90254187583923,203.90254187583923,205.33424711227417,2,1.571721076965332,None,,,,,,,,,,,,,,,,,,87,1,2025-02-24_10h58.19.856,comp,2024.2.4,57.959354008702945,2025-02-24 10h58.39.260728 -0500,
84,84,0,critical,whd,20.0,1.0,upper,125.0,200.0,200.0,125.0,141.0,141.0,2,1.250349998474121,None,,,,,0,0,0,0,0,84,84,91,205.34970331192017,,,,,,,,,,,,,,,,,,,,,,,,,,,,,,,,,,,,,,,,,,,,,,,,,,,,,,,,,,,,,,,,,,,,,,,,,,,,,,,,,,125.0,200.0,200.0,125.0,141.0,141.0,1.0,1.3,222,-265,480,-263,709,-254,205.3357813358307,205.33591866493225,205.33938431739807,205.34970331192017,205.49977827072144,205.49977827072144,205.49977827072144,205.49977827072144,205.49977827072144,205.49977827072144,205.49977827072144,206.60297870635986,2,1.250349998474121,None,,,,,,,,,,,,,,,,,,87,1,2025-02-24_10h58.19.856,comp,2024.2.4,57.959354008702945,2025-02-24 10h58.39.260728 -0500,
85,85,0,critical,dhw,20.0,1.0,lower,78.0,78.0,133.0,57.0,57.0,133.0,2,1.5498790740966797,None,,,,,0,0,0,0,0,85,85,54,206.61822485923767,,,,,,,,,,,,,,,,,,,,,,,,,,,,,,,,,,,,,,,,,,,,,,,,,,,,,,,,,,,,,,,,,,,,,,,,,,,,,,,,,,78.0,78.0,133.0,57.0,57.0,133.0,1.0,1.3,316,-266,480,-279,671,-272,206.6045377254486,206.60461473464966,206.60762429237366,206.61822485923767,206.7663857936859,206.7663857936859,206.7663857936859,206.7663857936859,206.7663857936859,206.7663857936859,206.7663857936859,208.18357753753662,2,1.5498790740966797,None,,,,,,,,,,,,,,,,,,87,1,2025-02-24_10h58.19.856,comp,2024.2.4,57.959354008702945,2025-02-24 10h58.39.260728 -0500,
86,86,0,critical,hdw,35.0,2.1,upper,200.0,125.0,127.0,127.0,125.0,200.0,3,1.0573029518127441,None,,,,,0,0,0,0,0,86,86,45,208.19951725006104,,,,,,,,,,,,,,,,,,,,,,,,,,,,,,,,,,,,,,,,,,,,,,,,,,,,,,,,,,,,,,,,,,,,,,,,,,,,,,,,,,200.0,125.0,127.0,127.0,125.0,200.0,2.1,2.11,-222,286,0,290,260,-257,208.1851110458374,208.18518447875977,208.18824768066406,208.19951725006104,208.3531482219696,208.3531482219696,208.3531482219696,208.3531482219696,208.3531482219696,208.3531482219696,208.3531482219696,209.26775979995728,3,1.0573029518127441,None,,,,,,,,,,,,,,,,,,87,1,2025-02-24_10h58.19.856,comp,2024.2.4,57.959354008702945,2025-02-24 10h58.39.260728 -0500,
87,87,0,critical,wdh,20.0,1.0,lower,57.0,133.0,78.0,78.0,133.0,57.0,3,1.828294038772583,None,,,,,0,0,0,0,0,87,87,78,209.28412699699402,,,,,,,,,,,,,,,,,,,,,,,,,,,,,,,,,,,,,,,,,,,,,,,,,,,,,,,,,,,,,,,,,,,,,,,,,,,,,,,,,,57.0,133.0,78.0,78.0,133.0,57.0,1.0,1.3,278,-255,480,-271,644,-277,209.26935982704163,209.2694375514984,209.27348923683167,209.28412699699402,209.42185807228088,209.42185807228088,209.42185807228088,209.42185807228088,209.42185807228088,209.42185807228088,209.42185807228088,211.1179757118225,3,1.828294038772583,None,,,,,,,,,,,,,,,,,,87,1,2025-02-24_10h58.19.856,comp,2024.2.4,57.959354008702945,2025-02-24 10h58.39.260728 -0500,
88,88,0,filler_square,None,None,None,None,None,None,None,None,None,None,1,2.9944851398468018,None,,,,,0,0,0,0,0,88,88,199,211.13409638404846,,,,,,,,,,,,,,,,,,,,,,,,,,,,,,,,,,,,,,,,,,,,,,,,,,,,,,,,,,,,,,,,,,,,,,,,,,,,,,,,,,188.54552667930406,188.54552667930406,186.1405297215661,162.12112618530682,183.97432314349066,138.8804105155334,4.0,4.2,-271,-4,0,-281,247,1,211.11979627609253,211.11990427970886,211.12323546409607,211.13409638404846,211.28274750709534,211.28274750709534,211.28274750709534,211.28274750709534,211.28274750709534,211.28274750709534,211.28274750709534,214.13442659378052,1,2.9944851398468018,None,,,,,,,,,,,,,,,,,,87,1,2025-02-24_10h58.19.856,comp,2024.2.4,57.959354008702945,2025-02-24 10h58.39.260728 -0500,
89,89,0,filler_random,None,None,None,None,None,None,None,None,None,None,3,1.5131678581237793,None,,,,,0,0,0,0,0,89,89,137,214.15112376213074,,,,,,,,,,,,,,,,,,,,,,,,,,,,,,,,,,,,,,,,,,,,,,,,,,,,,,,,,,,,,,,,,,,,,,,,,,,,,,,,,,100.57346903715947,107.62814223106604,132.73586182690875,163.9663591477628,112.86386339517657,198.37389204140104,2.2,2.22,-232,278,0,-259,277,-260,214.1360731124878,214.1361494064331,214.1392753124237,214.15112376213074,214.30849814414978,214.30849814414978,214.30849814414978,214.30849814414978,214.30849814414978,214.30849814414978,214.30849814414978,215.67057728767395,3,1.5131678581237793,None,,,,,,,,,,,,,,,,,,87,1,2025-02-24_10h58.19.856,comp,2024.2.4,57.959354008702945,2025-02-24 10h58.39.260728 -0500,
90,90,0,critical,hwd,35.0,3.0,lower,133.0,57.0,57.0,133.0,70.0,70.0,2,1.6653804779052734,None,,,,,0,0,0,0,0,90,90,98,215.68665981292725,,,,,,,,,,,,,,,,,,,,,,,,,,,,,,,,,,,,,,,,,,,,,,,,,,,,,,,,,,,,,,,,,,,,,,,,,,,,,,,,,,133.0,57.0,57.0,133.0,70.0,70.0,3.0,3.2,-191,-274,0,-6,198,263,215.6722321510315,215.67231059074402,215.67585277557373,215.68665981292725,215.83590030670166,215.83590030670166,215.83590030670166,215.83590030670166,215.83590030670166,215.83590030670166,215.83590030670166,217.36429691314697,2,1.6653804779052734,None,,,,,,,,,,,,,,,,,,87,1,2025-02-24_10h58.19.856,comp,2024.2.4,57.959354008702945,2025-02-24 10h58.39.260728 -0500,
91,91,0,critical,dhw,20.0,1.0,upper,141.0,141.0,200.0,125.0,125.0,200.0,2,1.0896992683410645,None,,,,,0,0,0,0,0,91,91,55,217.3823585510254,,,,,,,,,,,,,,,,,,,,,,,,,,,,,,,,,,,,,,,,,,,,,,,,,,,,,,,,,,,,,,,,,,,,,,,,,,,,,,,,,,141.0,141.0,200.0,125.0,125.0,200.0,1.0,1.2,-229,11,0,20,258,1,217.36587119102478,217.36595106124878,217.36920070648193,217.3823585510254,217.51912450790405,217.51912450790405,217.51912450790405,217.51912450790405,217.51912450790405,217.51912450790405,217.51912450790405,218.48675656318665,2,1.0896992683410645,None,,,,,,,,,,,,,,,,,,87,1,2025-02-24_10h58.19.856,comp,2024.2.4,57.959354008702945,2025-02-24 10h58.39.260728 -0500,
92,92,0,critical,hdw,20.0,3.0,lower,133.0,57.0,78.0,78.0,57.0,133.0,3,1.1462621688842773,None,,,,,0,0,0,0,0,92,92,116,218.50198578834534,,,,,,,,,,,,,,,,,,,,,,,,,,,,,,,,,,,,,,,,,,,,,,,,,,,,,,,,,,,,,,,,,,,,,,,,,,,,,,,,,,133.0,57.0,78.0,78.0,57.0,133.0,3.0,3.1,-164,263,0,-2,202,-280,218.48830103874207,218.48837685585022,218.49151062965393,218.50198578834534,218.6504511833191,218.6504511833191,218.6504511833191,218.6504511833191,218.6504511833191,218.6504511833191,218.6504511833191,219.65542149543762,3,1.1462621688842773,None,,,,,,,,,,,,,,,,,,87,1,2025-02-24_10h58.19.856,comp,2024.2.4,57.959354008702945,2025-02-24 10h58.39.260728 -0500,
93,93,0,critical,dwh,35.0,3.0,upper,127.0,127.0,125.0,200.0,200.0,125.0,3,1.2151119709014893,None,,,,,0,0,0,0,0,93,93,63,219.67286229133606,,,,,,,,,,,,,,,,,,,,,,,,,,,,,,,,,,,,,,,,,,,,,,,,,,,,,,,,,,,,,,,,,,,,,,,,,,,,,,,,,,127.0,127.0,125.0,200.0,200.0,125.0,3.0,3.1,-260,290,0,-14,258,-273,219.65694618225098,219.65702366828918,219.65996408462524,219.67286229133606,219.81856083869934,219.81856083869934,219.81856083869934,219.81856083869934,219.81856083869934,219.81856083869934,219.81856083869934,220.90469932556152,3,1.2151119709014893,None,,,,,,,,,,,,,,,,,,87,1,2025-02-24_10h58.19.856,comp,2024.2.4,57.959354008702945,2025-02-24 10h58.39.260728 -0500,
94,94,0,filler_square,None,None,None,None,None,None,None,None,None,None,3,1.3114137649536133,None,,,,,0,0,0,0,0,94,94,208,220.92057156562805,,,,,,,,,,,,,,,,,,,,,,,,,,,,,,,,,,,,,,,,,,,,,,,,,,,,,,,,,,,,,,,,,,,,,,,,,,,,,,,,,,68.16681023314325,77.60053007458994,92.80314980053564,65.58409471771195,97.36850784722097,97.36850784722097,2.1,2.12,-168,-270,0,-288,177,279,220.90672397613525,220.90683031082153,220.91023349761963,220.92057156562805,221.07318925857544,221.07318925857544,221.07318925857544,221.07318925857544,221.07318925857544,221.07318925857544,221.07318925857544,222.24200296401978,3,1.3114137649536133,None,,,,,,,,,,,,,,,,,,87,1,2025-02-24_10h58.19.856,comp,2024.2.4,57.959354008702945,2025-02-24 10h58.39.260728 -0500,
95,95,0,filler_square,None,None,None,None,None,None,None,None,None,None,3,1.1835486888885498,None,,,,,0,0,0,0,0,95,95,171,222.256334066391,,,,,,,,,,,,,,,,,,,,,,,,,,,,,,,,,,,,,,,,,,,,,,,,,,,,,,,,,,,,,,,,,,,,,,,,,,,,,,,,,,66.07258260468004,59.36354464515603,78.64794665040529,71.22766152798876,92.40828884783461,92.40828884783461,2.2,2.22,-161,255,0,-283,178,-277,222.24385023117065,222.24392986297607,222.24685215950012,222.256334066391,222.40204858779907,222.40204858779907,222.40204858779907,222.40204858779907,222.40204858779907,222.40204858779907,222.40204858779907,223.45230102539062,3,1.1835486888885498,None,,,,,,,,,,,,,,,,,,87,1,2025-02-24_10h58.19.856,comp,2024.2.4,57.959354008702945,2025-02-24 10h58.39.260728 -0500,
96,96,0,filler_random,None,None,None,None,None,None,None,None,None,None,1,1.2118031978607178,None,,,,,0,0,0,0,0,96,96,168,223.468670129776,,,,,,,,,,,,,,,,,,,,,,,,,,,,,,,,,,,,,,,,,,,,,,,,,,,,,,,,,,,,,,,,,,,,,,,,,,,,,,,,,,193.6623409559376,196.28618419456808,145.69430676366662,90.58512630612998,85.14671809129099,193.46461659104466,2.2,2.21,-239,-262,0,264,238,282,223.45399022102356,223.45406579971313,223.4569652080536,223.468670129776,223.6205337047577,223.6205337047577,223.6205337047577,223.6205337047577,223.6205337047577,223.6205337047577,223.6205337047577,224.68925380706787,1,1.2118031978607178,None,,,,,,,,,,,,,,,,,,87,1,2025-02-24_10h58.19.856,comp,2024.2.4,57.959354008702945,2025-02-24 10h58.39.260728 -0500,
97,97,0,catch,None,None,None,None,None,None,None,None,None,None,1,0.7500789165496826,None,,,,,0,0,0,0,0,97,97,128,224.70586824417114,,,,,,,,,,,,,,,,,,,,,,,,,,,,,,,,,,,,,,,,,,,,,,,,,,,,,,,,,,,,,,,,,,,,,,,,,,,,,,,,,,155,170,121,69,83,107,3.0,3.2,-216,-274,0,-4,184,280,224.69143342971802,224.69151306152344,224.69501185417175,224.70586824417114,224.8603162765503,224.8603162765503,224.8603162765503,224.8603162765503,224.8603162765503,224.8603162765503,224.8603162765503,225.47246861457825,1,0.7500789165496826,None,,,,,,,,,,,,,,,,,,87,1,2025-02-24_10h58.19.856,comp,2024.2.4,57.959354008702945,2025-02-24 10h58.39.260728 -0500,
98,98,0,critical,hdw,20.0,4.0,lower,133.0,57.0,78.0,78.0,57.0,133.0,1,2.231907367706299,None,,,,,0,0,0,0,0,98,98,118,225.4883472919464,,,,,,,,,,,,,,,,,,,,,,,,,,,,,,,,,,,,,,,,,,,,,,,,,,,,,,,,,,,,,,,,,,,,,,,,,,,,,,,,,,133.0,57.0,78.0,78.0,57.0,133.0,4.0,4.2,-164,3,0,-290,202,4,225.47402930259705,225.47410583496094,225.4780788421631,225.4883472919464,225.6397349834442,225.6397349834442,225.6397349834442,225.6397349834442,225.6397349834442,225.6397349834442,225.6397349834442,227.73820567131042,1,2.231907367706299,None,,,,,,,,,,,,,,,,,,87,1,2025-02-24_10h58.19.856,comp,2024.2.4,57.959354008702945,2025-02-24 10h58.39.260728 -0500,
99,99,0,critical,hwd,35.0,1.0,lower,133.0,57.0,57.0,133.0,70.0,70.0,2,1.0219471454620361,None,,,,,0,0,0,0,0,99,99,96,227.7540442943573,,,,,,,,,,,,,,,,,,,,,,,,,,,,,,,,,,,,,,,,,,,,,,,,,,,,,,,,,,,,,,,,,,,,,,,,,,,,,,,,,,133.0,57.0,57.0,133.0,70.0,70.0,1.0,1.2,-191,-18,0,-17,198,1,227.7397129535675,227.73978972434998,227.74266958236694,227.7540442943573,227.89125180244446,227.89125180244446,227.89125180244446,227.89125180244446,227.89125180244446,227.89125180244446,227.89125180244446,228.7799654006958,2,1.0219471454620361,None,,,,,,,,,,,,,,,,,,87,1,2025-02-24_10h58.19.856,comp,2024.2.4,57.959354008702945,2025-02-24 10h58.39.260728 -0500,
100,100,0,critical,hwd,35.0,4.0,lower,133.0,57.0,57.0,133.0,70.0,70.0,2,0.9465601444244385,None,,,,,0,0,0,0,0,100,100,100,228.79743099212646,,,,,,,,,,,,,,,,,,,,,,,,,,,,,,,,,,,,,,,,,,,,,,,,,,,,,,,,,,,,,,,,,,,,,,,,,,,,,,,,,,133.0,57.0,57.0,133.0,70.0,70.0,4.0,4.1,-191,-281,0,15,198,-277,228.78145670890808,228.78153491020203,228.78446578979492,228.79743099212646,228.93941164016724,228.93941164016724,228.93941164016724,228.93941164016724,228.93941164016724,228.93941164016724,228.93941164016724,229.76061415672302,2,0.9465601444244385,None,,,,,,,,,,,,,,,,,,87,1,2025-02-24_10h58.19.856,comp,2024.2.4,57.959354008702945,2025-02-24 10h58.39.260728 -0500,
101,101,0,filler_square,None,None,None,None,None,None,None,None,None,None,3,1.0271859169006348,None,,,,,0,0,0,0,0,101,101,206,229.78100538253784,,,,,,,,,,,,,,,,,,,,,,,,,,,,,,,,,,,,,,,,,,,,,,,,,,,,,,,,,,,,,,,,,,,,,,,,,,,,,,,,,,103.71972183550918,104.8907240710882,62.885921661230896,92.34539582222382,118.33169362038103,118.33169362038103,2.2,2.22,-195,254,0,-284,201,-270,229.76265859603882,229.7627363204956,229.76583790779114,229.78100538253784,229.92952847480774,229.92952847480774,229.92952847480774,229.92952847480774,229.92952847480774,229.92952847480774,229.92952847480774,230.8141782283783,3,1.0271859169006348,None,,,,,,,,,,,,,,,,,,87,1,2025-02-24_10h58.19.856,comp,2024.2.4,57.959354008702945,2025-02-24 10h58.39.260728 -0500,
102,102,0,critical,hwd,20.0,4.0,upper,200.0,125.0,125.0,200.0,141.0,141.0,1,1.18186616897583,None,,,,,0,0,0,0,0,102,102,107,230.83408641815186,,,,,,,,,,,,,,,,,,,,,,,,,,,,,,,,,,,,,,,,,,,,,,,,,,,,,,,,,,,,,,,,,,,,,,,,,,,,,,,,,,200.0,125.0,125.0,200.0,141.0,141.0,4.0,4.2,-258,-18,0,-273,266,-7,230.81561088562012,230.81568694114685,230.81849026679993,230.83408641815186,230.97489023208618,230.97489023208618,230.97489023208618,230.97489023208618,230.97489023208618,230.97489023208618,230.97489023208618,232.02609372138977,1,1.18186616897583,None,,,,,,,,,,,,,,,,,,87,1,2025-02-24_10h58.19.856,comp,2024.2.4,57.959354008702945,2025-02-24 10h58.39.260728 -0500,
103,103,0,filler_square,None,None,None,None,None,None,None,None,None,None,1,0.9584579467773438,None,,,,,0,0,0,0,0,103,103,197,232.0423059463501,,,,,,,,,,,,,,,,,,,,,,,,,,,,,,,,,,,,,,,,,,,,,,,,,,,,,,,,,,,,,,,,,,,,,,,,,,,,,,,,,,158.36360418991535,158.36360418991535,59.41809815528721,126.9292020136226,62.56013605999803,139.14967008161665,4.0,4.1,-239,-284,0,17,229,-279,232.0280406475067,232.02812695503235,232.03152799606323,232.0423059463501,232.19155979156494,232.19155979156494,232.19155979156494,232.19155979156494,232.19155979156494,232.19155979156494,232.19155979156494,233.00837635993958,1,0.9584579467773438,None,,,,,,,,,,,,,,,,,,87,1,2025-02-24_10h58.19.856,comp,2024.2.4,57.959354008702945,2025-02-24 10h58.39.260728 -0500,
104,104,0,critical,wdh,35.0,2.1,lower,57.0,133.0,70.0,70.0,133.0,57.0,3,1.0796337127685547,None,,,,,0,0,0,0,0,104,104,32,233.0244460105896,,,,,,,,,,,,,,,,,,,,,,,,,,,,,,,,,,,,,,,,,,,,,,,,,,,,,,,,,,,,,,,,,,,,,,,,,,,,,,,,,,57.0,133.0,70.0,70.0,133.0,57.0,2.1,2.12,-198,-272,0,-253,160,262,233.0099446773529,233.01004600524902,233.01369547843933,233.0244460105896,233.17864155769348,233.17864155769348,233.17864155769348,233.17864155769348,233.17864155769348,233.17864155769348,233.17864155769348,234.11026763916016,3,1.0796337127685547,None,,,,,,,,,,,,,,,,,,87,1,2025-02-24_10h58.19.856,comp,2024.2.4,57.959354008702945,2025-02-24 10h58.39.260728 -0500,
105,105,0,filler_random,None,None,None,None,None,None,None,None,None,None,1,0.8080060482025146,None,,,,,0,0,0,0,0,105,105,147,234.12852334976196,,,,,,,,,,,,,,,,,,,,,,,,,,,,,,,,,,,,,,,,,,,,,,,,,,,,,,,,,,,,,,,,,,,,,,,,,,,,,,,,,,168.36188714339582,164.71848912613314,83.85846131495373,78.76592297337301,90.3212308751731,111.99889221963613,1.0,1.1,-698,277,-480,279,-289,287,234.1121747493744,234.11229991912842,234.11566281318665,234.12852334976196,234.27457857131958,234.27457857131958,234.27457857131958,234.27457857131958,234.27457857131958,234.27457857131958,234.27457857131958,234.94264221191406,1,0.8080060482025146,None,,,,,,,,,,,,,,,,,,87,1,2025-02-24_10h58.19.856,comp,2024.2.4,57.959354008702945,2025-02-24 10h58.39.260728 -0500,
106,106,0,critical,hwd,20.0,3.0,lower,133.0,57.0,57.0,133.0,78.0,78.0,2,1.2179009914398193,None,,,,,0,0,0,0,0,106,106,104,234.95842742919922,,,,,,,,,,,,,,,,,,,,,,,,,,,,,,,,,,,,,,,,,,,,,,,,,,,,,,,,,,,,,,,,,,,,,,,,,,,,,,,,,,133.0,57.0,57.0,133.0,78.0,78.0,3.0,3.1,-191,254,0,0,202,-265,234.94419384002686,234.9442708492279,234.94771146774292,234.95842742919922,235.10857725143433,235.10857725143433,235.10857725143433,235.10857725143433,235.10857725143433,235.10857725143433,235.10857725143433,236.18014550209045,2,1.2179009914398193,None,,,,,,,,,,,,,,,,,,87,1,2025-02-24_10h58.19.856,comp,2024.2.4,57.959354008702945,2025-02-24 10h58.39.260728 -0500,
107,107,0,critical,whd,20.0,3.0,lower,57.0,133.0,133.0,57.0,78.0,78.0,2,0.9044280052185059,None,,,,,0,0,0,0,0,107,107,92,236.20021963119507,,,,,,,,,,,,,,,,,,,,,,,,,,,,,,,,,,,,,,,,,,,,,,,,,,,,,,,,,,,,,,,,,,,,,,,,,,,,,,,,,,57.0,133.0,133.0,57.0,78.0,78.0,3.0,3.1,-191,258,0,0,164,-284,236.18170022964478,236.18177890777588,236.18462204933167,236.20021963119507,236.3442850112915,236.3442850112915,236.3442850112915,236.3442850112915,236.3442850112915,236.3442850112915,236.3442850112915,237.11179423332214,2,0.9044280052185059,None,,,,,,,,,,,,,,,,,,87,1,2025-02-24_10h58.19.856,comp,2024.2.4,57.959354008702945,2025-02-24 10h58.39.260728 -0500,
108,108,0,filler_random,None,None,None,None,None,None,None,None,None,None,1,0.9186804294586182,None,,,,,0,0,0,0,0,108,108,167,237.1292061805725,,,,,,,,,,,,,,,,,,,,,,,,,,,,,,,,,,,,,,,,,,,,,,,,,,,,,,,,,,,,,,,,,,,,,,,,,,,,,,,,,,186.08516588251732,167.34598655698665,70.80449324309598,145.39839580526353,97.77789325372527,157.71948451869827,3.0,3.2,-252,-255,0,13,248,284,237.11368894577026,237.11376762390137,237.11761927604675,237.1292061805725,237.28118085861206,237.28118085861206,237.28118085861206,237.28118085861206,237.28118085861206,237.28118085861206,237.28118085861206,238.05819535255432,1,0.9186804294586182,None,,,,,,,,,,,,,,,,,,87,1,2025-02-24_10h58.19.856,comp,2024.2.4,57.959354008702945,2025-02-24 10h58.39.260728 -0500,
109,109,0,filler_random,None,None,None,None,None,None,None,None,None,None,3,1.021089792251587,None,,,,,0,0,0,0,0,109,109,164,238.0749158859253,,,,,,,,,,,,,,,,,,,,,,,,,,,,,,,,,,,,,,,,,,,,,,,,,,,,,,,,,,,,,,,,,,,,,,,,,,,,,,,,,,174.90085419583085,199.63209257867382,127.71776050344492,174.85857932139018,189.31207266040826,189.17798349889117,2.1,2.12,-283,-260,0,-264,278,276,238.06006693840027,238.06017112731934,238.0633647441864,238.0749158859253,238.22691202163696,238.22691202163696,238.22691202163696,238.22691202163696,238.22691202163696,238.22691202163696,238.22691202163696,239.11224484443665,3,1.021089792251587,None,,,,,,,,,,,,,,,,,,87,1,2025-02-24_10h58.19.856,comp,2024.2.4,57.959354008702945,2025-02-24 10h58.39.260728 -0500,
110,110,0,critical,hwd,20.0,3.0,upper,200.0,125.0,125.0,200.0,141.0,141.0,2,0.9196884632110596,None,,,,,0,0,0,0,0,110,110,105,239.12831139564514,,,,,,,,,,,,,,,,,,,,,,,,,,,,,,,,,,,,,,,,,,,,,,,,,,,,,,,,,,,,,,,,,,,,,,,,,,,,,,,,,,200.0,125.0,125.0,200.0,141.0,141.0,3.0,3.1,-258,260,0,12,266,-263,239.11369967460632,239.113774061203,239.11670851707458,239.12831139564514,239.27692651748657,239.27692651748657,239.27692651748657,239.27692651748657,239.27692651748657,239.27692651748657,239.27692651748657,240.0623950958252,2,0.9196884632110596,None,,,,,,,,,,,,,,,,,,87,1,2025-02-24_10h58.19.856,comp,2024.2.4,57.959354008702945,2025-02-24 10h58.39.260728 -0500,
111,111,0,critical,dhw,35.0,4.0,lower,70.0,70.0,133.0,57.0,57.0,133.0,3,1.123939037322998,None,,,,,0,0,0,0,0,111,111,52,240.07795786857605,,,,,,,,,,,,,,,,,,,,,,,,,,,,,,,,,,,,,,,,,,,,,,,,,,,,,,,,,,,,,,,,,,,,,,,,,,,,,,,,,,70.0,70.0,133.0,57.0,57.0,133.0,4.0,4.2,-160,11,0,-273,191,-17,240.06390857696533,240.06400632858276,240.0670680999756,240.07795786857605,240.22778344154358,240.22778344154358,240.22778344154358,240.22778344154358,240.22778344154358,240.22778344154358,240.22778344154358,241.20741605758667,3,1.123939037322998,None,,,,,,,,,,,,,,,,,,87,1,2025-02-24_10h58.19.856,comp,2024.2.4,57.959354008702945,2025-02-24 10h58.39.260728 -0500,
112,112,0,filler_square,None,None,None,None,None,None,None,None,None,None,3,1.2395646572113037,None,,,,,0,0,0,0,0,112,112,185,241.22434782981873,,,,,,,,,,,,,,,,,,,,,,,,,,,,,,,,,,,,,,,,,,,,,,,,,,,,,,,,,,,,,,,,,,,,,,,,,,,,,,,,,,66.62156189707473,60.89866389086891,64.98216891321678,76.34303447098107,85.11076401893602,85.11076401893602,1.0,1.3,315,-286,480,-279,657,-272,241.20920729637146,241.2092833518982,241.21215534210205,241.22434782981873,241.36094069480896,241.36094069480896,241.36094069480896,241.36094069480896,241.36094069480896,241.36094069480896,241.36094069480896,242.47612380981445,3,1.2395646572113037,None,,,,,,,,,,,,,,,,,,87,1,2025-02-24_10h58.19.856,comp,2024.2.4,57.959354008702945,2025-02-24 10h58.39.260728 -0500,
113,113,0,critical,wdh,20.0,2.1,lower,57.0,133.0,78.0,78.0,133.0,57.0,2,1.3326334953308105,None,,,,,0,0,0,0,0,113,113,10,242.49197459220886,,,,,,,,,,,,,,,,,,,,,,,,,,,,,,,,,,,,,,,,,,,,,,,,,,,,,,,,,,,,,,,,,,,,,,,,,,,,,,,,,,57.0,133.0,78.0,78.0,133.0,57.0,2.1,2.11,-202,287,0,254,164,-250,242.47768712043762,242.47776317596436,242.48063683509827,242.49197459220886,242.64048194885254,242.64048194885254,242.64048194885254,242.64048194885254,242.64048194885254,242.64048194885254,242.64048194885254,243.82659721374512,2,1.3326334953308105,None,,,,,,,,,,,,,,,,,,87,1,2025-02-24_10h58.19.856,comp,2024.2.4,57.959354008702945,2025-02-24 10h58.39.260728 -0500,
114,114,0,critical,wdh,20.0,4.0,lower,57.0,133.0,78.0,78.0,133.0,57.0,3,0.9398574829101562,None,,,,,0,0,0,0,0,114,114,82,243.84478974342346,,,,,,,,,,,,,,,,,,,,,,,,,,,,,,,,,,,,,,,,,,,,,,,,,,,,,,,,,,,,,,,,,,,,,,,,,,,,,,,,,,57.0,133.0,78.0,78.0,133.0,57.0,4.0,4.1,-202,-253,0,18,164,-274,243.82824635505676,243.82832431793213,243.83168172836304,243.84478974342346,243.99875664710999,243.99875664710999,243.99875664710999,243.99875664710999,243.99875664710999,243.99875664710999,243.99875664710999,244.79542875289917,3,0.9398574829101562,None,,,,,,,,,,,,,,,,,,87,1,2025-02-24_10h58.19.856,comp,2024.2.4,57.959354008702945,2025-02-24 10h58.39.260728 -0500,
115,115,0,critical,dhw,20.0,4.0,lower,78.0,78.0,133.0,57.0,57.0,133.0,2,1.2455904483795166,None,,,,,0,0,0,0,0,115,115,58,244.8108732700348,,,,,,,,,,,,,,,,,,,,,,,,,,,,,,,,,,,,,,,,,,,,,,,,,,,,,,,,,,,,,,,,,,,,,,,,,,,,,,,,,,78.0,78.0,133.0,57.0,57.0,133.0,4.0,4.2,-164,6,0,-286,191,-5,244.79689979553223,244.79697632789612,244.80027770996094,244.8108732700348,244.96544218063354,244.96544218063354,244.96544218063354,244.96544218063354,244.96544218063354,244.96544218063354,244.96544218063354,246.06485962867737,2,1.2455904483795166,None,,,,,,,,,,,,,,,,,,87,1,2025-02-24_10h58.19.856,comp,2024.2.4,57.959354008702945,2025-02-24 10h58.39.260728 -0500,
116,116,0,critical,wdh,20.0,2.1,lower,57.0,133.0,78.0,78.0,133.0,57.0,3,1.4691162109375,None,,,,,0,0,0,0,0,116,116,34,246.083349943161,,,,,,,,,,,,,,,,,,,,,,,,,,,,,,,,,,,,,,,,,,,,,,,,,,,,,,,,,,,,,,,,,,,,,,,,,,,,,,,,,,57.0,133.0,78.0,78.0,133.0,57.0,2.1,2.12,-202,-268,0,-255,164,251,246.06649255752563,246.06657099723816,246.0695025920868,246.083349943161,246.22875094413757,246.22875094413757,246.22875094413757,246.22875094413757,246.22875094413757,246.22875094413757,246.22875094413757,247.56079626083374,3,1.4691162109375,None,,,,,,,,,,,,,,,,,,87,1,2025-02-24_10h58.19.856,comp,2024.2.4,57.959354008702945,2025-02-24 10h58.39.260728 -0500,
117,117,0,critical,hwd,35.0,2.1,upper,200.0,125.0,125.0,200.0,127.0,127.0,2,1.3194184303283691,None,,,,,0,0,0,0,0,117,117,41,247.5770218372345,,,,,,,,,,,,,,,,,,,,,,,,,,,,,,,,,,,,,,,,,,,,,,,,,,,,,,,,,,,,,,,,,,,,,,,,,,,,,,,,,,200.0,125.0,125.0,200.0,127.0,127.0,2.1,2.12,-258,-265,0,-266,260,281,247.56230449676514,247.56237936019897,247.56527662277222,247.5770218372345,247.7132875919342,247.7132875919342,247.7132875919342,247.7132875919342,247.7132875919342,247.7132875919342,247.7132875919342,248.90472531318665,2,1.3194184303283691,None,,,,,,,,,,,,,,,,,,87,1,2025-02-24_10h58.19.856,comp,2024.2.4,57.959354008702945,2025-02-24 10h58.39.260728 -0500,
118,118,0,filler_square,None,None,None,None,None,None,None,None,None,None,3,1.238628625869751,None,,,,,0,0,0,0,0,118,118,173,248.9215805530548,,,,,,,,,,,,,,,,,,,,,,,,,,,,,,,,,,,,,,,,,,,,,,,,,,,,,,,,,,,,,,,,,,,,,,,,,,,,,,,,,,88.08621520780281,88.08621520780281,62.352394818511875,57.768730618356564,58.75625660753955,79.99210751488636,3.0,3.1,-169,267,0,-19,165,-275,248.90664768218994,248.90672850608826,248.90989446640015,248.9215805530548,249.0608811378479,249.0608811378479,249.0608811378479,249.0608811378479,249.0608811378479,249.0608811378479,249.0608811378479,250.16888976097107,3,1.238628625869751,None,,,,,,,,,,,,,,,,,,87,1,2025-02-24_10h58.19.856,comp,2024.2.4,57.959354008702945,2025-02-24 10h58.39.260728 -0500,
119,119,0,filler_square,None,None,None,None,None,None,None,None,None,None,2,1.1171331405639648,None,,,,,0,0,0,0,0,119,119,174,250.18779110908508,,,,,,,,,,,,,,,,,,,,,,,,,,,,,,,,,,,,,,,,,,,,,,,,,,,,,,,,,,,,,,,,,,,,,,,,,,,,,,,,,,130.0146183496289,151.9181011046198,170.49376974796365,170.49376974796365,87.38879571138398,57.49099976637762,2.2,2.22,-257,281,0,-269,210,-271,250.17121195793152,250.17129278182983,250.1746063232422,250.18779110908508,250.3335280418396,250.3335280418396,250.3335280418396,250.3335280418396,250.3335280418396,250.3335280418396,250.3335280418396,251.31075024604797,2,1.1171331405639648,None,,,,,,,,,,,,,,,,,,87,1,2025-02-24_10h58.19.856,comp,2024.2.4,57.959354008702945,2025-02-24 10h58.39.260728 -0500,
120,120,0,critical,dhw,20.0,2.1,lower,78.0,78.0,133.0,57.0,57.0,133.0,3,1.0967597961425781,None,,,,,0,0,0,0,0,120,120,2,251.32775449752808,,,,,,,,,,,,,,,,,,,,,,,,,,,,,,,,,,,,,,,,,,,,,,,,,,,,,,,,,,,,,,,,,,,,,,,,,,,,,,,,,,78.0,78.0,133.0,57.0,57.0,133.0,2.1,2.11,-164,261,0,275,191,-284,251.31221079826355,251.31228733062744,251.31517887115479,251.32775449752808,251.46826314926147,251.46826314926147,251.46826314926147,251.46826314926147,251.46826314926147,251.46826314926147,251.46826314926147,252.429949760437,3,1.0967597961425781,None,,,,,,,,,,,,,,,,,,87,1,2025-02-24_10h58.19.856,comp,2024.2.4,57.959354008702945,2025-02-24 10h58.39.260728 -0500,
121,121,0,filler_random,None,None,None,None,None,None,None,None,None,None,2,1.3745393753051758,None,,,,,0,0,0,0,0,121,121,142,252.45010542869568,,,,,,,,,,,,,,,,,,,,,,,,,,,,,,,,,,,,,,,,,,,,,,,,,,,,,,,,,,,,,,,,,,,,,,,,,,,,,,,,,,170.17956543899948,106.64967305715373,182.25035875486236,115.64798370989493,136.38367667197258,163.3060374095675,4.0,4.2,-207,8,0,-271,235,-7,252.43160939216614,252.4316864013672,252.43479132652283,252.45010542869568,252.59830522537231,252.59830522537231,252.59830522537231,252.59830522537231,252.59830522537231,252.59830522537231,252.59830522537231,253.83135056495667,2,1.3745393753051758,None,,,,,,,,,,,,,,,,,,87,1,2025-02-24_10h58.19.856,comp,2024.2.4,57.959354008702945,2025-02-24 10h58.39.260728 -0500,
122,122,0,filler_random,None,None,None,None,None,None,None,None,None,None,3,1.1045124530792236,None,,,,,0,0,0,0,0,122,122,159,253.8480887413025,,,,,,,,,,,,,,,,,,,,,,,,,,,,,,,,,,,,,,,,,,,,,,,,,,,,,,,,,,,,,,,,,,,,,,,,,,,,,,,,,,191.3438441789058,199.3224224607133,109.6503775203726,89.58493454866351,189.26629556140887,153.93956445359944,3.0,3.1,-240,282,0,15,218,-264,253.83307337760925,253.8331491947174,253.8373613357544,253.8480887413025,253.99775409698486,253.99775409698486,253.99775409698486,253.99775409698486,253.99775409698486,253.99775409698486,253.99775409698486,254.9557135105133,3,1.1045124530792236,None,,,,,,,,,,,,,,,,,,87,1,2025-02-24_10h58.19.856,comp,2024.2.4,57.959354008702945,2025-02-24 10h58.39.260728 -0500,
123,123,0,filler_random,None,None,None,None,None,None,None,None,None,None,3,1.2044901847839355,None,,,,,0,0,0,0,0,123,123,165,254.9717218875885,,,,,,,,,,,,,,,,,,,,,,,,,,,,,,,,,,,,,,,,,,,,,,,,,,,,,,,,,,,,,,,,,,,,,,,,,,,,,,,,,,116.15397136929832,90.1653426316181,102.23235469433148,61.92143236840447,100.847824270221,130.83202467416177,3.0,3.1,-172,267,0,15,192,-271,254.95758891105652,254.95768976211548,254.96088528633118,254.9717218875885,255.1147210597992,255.1147210597992,255.1147210597992,255.1147210597992,255.1147210597992,255.1147210597992,255.1147210597992,256.1843671798706,3,1.2044901847839355,None,,,,,,,,,,,,,,,,,,87,1,2025-02-24_10h58.19.856,comp,2024.2.4,57.959354008702945,2025-02-24 10h58.39.260728 -0500,
124,124,0,critical,whd,20.0,1.0,lower,57.0,133.0,133.0,57.0,78.0,78.0,2,2.356879234313965,None,,,,,0,0,0,0,0,124,124,90,256.20391392707825,,,,,,,,,,,,,,,,,,,,,,,,,,,,,,,,,,,,,,,,,,,,,,,,,,,,,,,,,,,,,,,,,,,,,,,,,,,,,,,,,,57.0,133.0,133.0,57.0,78.0,78.0,1.0,1.2,-191,-14,0,1,164,10,256.18595266342163,256.18602991104126,256.18907499313354,256.20391392707825,256.35133242607117,256.35133242607117,256.35133242607117,256.35133242607117,256.35133242607117,256.35133242607117,256.35133242607117,258.5676701068878,2,2.356879234313965,None,,,,,,,,,,,,,,,,,,87,1,2025-02-24_10h58.19.856,comp,2024.2.4,57.959354008702945,2025-02-24 10h58.39.260728 -0500,
125,125,0,catch,None,None,None,None,None,None,None,None,None,None,3,0.840111494064331,None,,,,,0,0,0,0,0,125,125,122,258.5845148563385,,,,,,,,,,,,,,,,,,,,,,,,,,,,,,,,,,,,,,,,,,,,,,,,,,,,,,,,,,,,,,,,,,,,,,,,,,,,,,,,,,74,116,108,82,200,125,1.0,1.3,285,-255,480,-255,680,-262,258.5696840286255,258.56976342201233,258.572979927063,258.5845148563385,258.73209285736084,258.73209285736084,258.73209285736084,258.73209285736084,258.73209285736084,258.73209285736084,258.73209285736084,259.4322636127472,3,0.840111494064331,None,,,,,,,,,,,,,,,,,,87,1,2025-02-24_10h58.19.856,comp,2024.2.4,57.959354008702945,2025-02-24 10h58.39.260728 -0500,
126,126,0,critical,dwh,20.0,1.0,lower,78.0,78.0,57.0,133.0,133.0,57.0,3,1.4952704906463623,None,,,,,0,0,0,0,0,126,126,66,259.44901633262634,,,,,,,,,,,,,,,,,,,,,,,,,,,,,,,,,,,,,,,,,,,,,,,,,,,,,,,,,,,,,,,,,,,,,,,,,,,,,,,,,,78.0,78.0,57.0,133.0,133.0,57.0,1.0,1.3,278,-265,480,-271,671,-270,259.4337637424469,259.43386030197144,259.43693709373474,259.44901633262634,259.6018617153168,259.6018617153168,259.6018617153168,259.6018617153168,259.6018617153168,259.6018617153168,259.6018617153168,260.9492931365967,3,1.4952704906463623,None,,,,,,,,,,,,,,,,,,87,1,2025-02-24_10h58.19.856,comp,2024.2.4,57.959354008702945,2025-02-24 10h58.39.260728 -0500,
127,127,0,critical,hdw,20.0,1.0,upper,200.0,125.0,141.0,141.0,125.0,200.0,3,1.1383492946624756,None,,,,,0,0,0,0,0,127,127,115,260.96590209007263,,,,,,,,,,,,,,,,,,,,,,,,,,,,,,,,,,,,,,,,,,,,,,,,,,,,,,,,,,,,,,,,,,,,,,,,,,,,,,,,,,200.0,125.0,141.0,141.0,125.0,200.0,1.0,1.2,-229,-9,0,-18,266,-3,260.95084953308105,260.95092844963074,260.95418071746826,260.96590209007263,261.1158905029297,261.1158905029297,261.1158905029297,261.1158905029297,261.1158905029297,261.1158905029297,261.1158905029297,262.10643887519836,3,1.1383492946624756,None,,,,,,,,,,,,,,,,,,87,1,2025-02-24_10h58.19.856,comp,2024.2.4,57.959354008702945,2025-02-24 10h58.39.260728 -0500,
128,128,0,catch,None,None,None,None,None,None,None,None,None,None,2,0.8723859786987305,None,,,,,0,0,0,0,0,128,128,120,262.12212204933167,,,,,,,,,,,,,,,,,,,,,,,,,,,,,,,,,,,,,,,,,,,,,,,,,,,,,,,,,,,,,,,,,,,,,,,,,,,,,,,,,,126,64,182,143,112,78,1.0,1.3,280,-280,480,-286,686,-280,262.1083278656006,262.1084051132202,262.11137104034424,262.12212204933167,262.26728796958923,262.26728796958923,262.26728796958923,262.26728796958923,262.26728796958923,262.26728796958923,262.26728796958923,262.99995255470276,2,0.8723859786987305,None,,,,,,,,,,,,,,,,,,87,1,2025-02-24_10h58.19.856,comp,2024.2.4,57.959354008702945,2025-02-24 10h58.39.260728 -0500,
129,129,0,critical,hdw,35.0,1.0,upper,200.0,125.0,127.0,127.0,125.0,200.0,3,1.5478298664093018,None,,,,,0,0,0,0,0,129,129,109,263.02020144462585,,,,,,,,,,,,,,,,,,,,,,,,,,,,,,,,,,,,,,,,,,,,,,,,,,,,,,,,,,,,,,,,,,,,,,,,,,,,,,,,,,200.0,125.0,127.0,127.0,125.0,200.0,1.0,1.3,258,-264,480,-254,740,-280,263.00141763687134,263.00149297714233,263.00448751449585,263.02020144462585,263.16778564453125,263.16778564453125,263.16778564453125,263.16778564453125,263.16778564453125,263.16778564453125,263.16778564453125,264.5824239253998,3,1.5478298664093018,None,,,,,,,,,,,,,,,,,,87,1,2025-02-24_10h58.19.856,comp,2024.2.4,57.959354008702945,2025-02-24 10h58.39.260728 -0500,
130,130,0,critical,dhw,20.0,2.1,upper,141.0,141.0,200.0,125.0,125.0,200.0,3,0.9135534763336182,None,,,,,0,0,0,0,0,130,130,3,264.5987973213196,,,,,,,,,,,,,,,,,,,,,,,,,,,,,,,,,,,,,,,,,,,,,,,,,,,,,,,,,,,,,,,,,,,,,,,,,,,,,,,,,,141.0,141.0,200.0,125.0,125.0,200.0,2.1,2.11,-229,276,0,267,258,-258,264.583868265152,264.58394384384155,264.5868570804596,264.5987973213196,264.75020027160645,264.75020027160645,264.75020027160645,264.75020027160645,264.75020027160645,264.75020027160645,264.75020027160645,265.51911520957947,3,0.9135534763336182,None,,,,,,,,,,,,,,,,,,87,1,2025-02-24_10h58.19.856,comp,2024.2.4,57.959354008702945,2025-02-24 10h58.39.260728 -0500,
131,131,0,critical,dwh,35.0,1.0,lower,70.0,70.0,57.0,133.0,133.0,57.0,3,1.0419890880584717,None,,,,,0,0,0,0,0,131,131,60,265.5349383354187,,,,,,,,,,,,,,,,,,,,,,,,,,,,,,,,,,,,,,,,,,,,,,,,,,,,,,,,,,,,,,,,,,,,,,,,,,,,,,,,,,70.0,70.0,57.0,133.0,133.0,57.0,1.0,1.1,-678,265,-480,277,-289,257,265.52074432373047,265.52085638046265,265.52426290512085,265.5349383354187,265.68360686302185,265.68360686302185,265.68360686302185,265.68360686302185,265.68360686302185,265.68360686302185,265.68360686302185,266.5853440761566,3,1.0419890880584717,None,,,,,,,,,,,,,,,,,,87,1,2025-02-24_10h58.19.856,comp,2024.2.4,57.959354008702945,2025-02-24 10h58.39.260728 -0500,
132,132,0,filler_random,None,None,None,None,None,None,None,None,None,None,2,1.4869215488433838,None,,,,,0,0,0,0,0,132,132,169,266.6011278629303,,,,,,,,,,,,,,,,,,,,,,,,,,,,,,,,,,,,,,,,,,,,,,,,,,,,,,,,,,,,,,,,,,,,,,,,,,,,,,,,,,85.1999883932687,73.13278619486681,167.0132745244906,183.02656348806477,150.0989138444495,194.94125636562313,3.0,3.1,-224,268,0,0,285,-276,266.5869996547699,266.5870771408081,266.5904288291931,266.6011278629303,266.74999165534973,266.74999165534973,266.74999165534973,266.74999165534973,266.74999165534973,266.74999165534973,266.74999165534973,268.10258531570435,2,1.4869215488433838,None,,,,,,,,,,,,,,,,,,87,1,2025-02-24_10h58.19.856,comp,2024.2.4,57.959354008702945,2025-02-24 10h58.39.260728 -0500,
133,133,0,filler_random,None,None,None,None,None,None,None,None,None,None,3,1.2506706714630127,None,,,,,0,0,0,0,0,133,133,150,268.11731123924255,,,,,,,,,,,,,,,,,,,,,,,,,,,,,,,,,,,,,,,,,,,,,,,,,,,,,,,,,,,,,,,,,,,,,,,,,,,,,,,,,,69.38874187601377,188.2187666512039,82.53023773975062,128.64743657855126,139.5383254781234,63.199122492609206,4.0,4.1,-254,-254,0,0,192,-270,268.1043698787689,268.1045002937317,268.1077890396118,268.11731123924255,268.2684450149536,268.2684450149536,268.2684450149536,268.2684450149536,268.2684450149536,268.2684450149536,268.2684450149536,269.3700797557831,3,1.2506706714630127,None,,,,,,,,,,,,,,,,,,87,1,2025-02-24_10h58.19.856,comp,2024.2.4,57.959354008702945,2025-02-24 10h58.39.260728 -0500,
134,134,0,critical,hwd,20.0,4.0,lower,133.0,57.0,57.0,133.0,78.0,78.0,2,1.6135709285736084,None,,,,,0,0,0,0,0,134,134,106,269.38635444641113,,,,,,,,,,,,,,,,,,,,,,,,,,,,,,,,,,,,,,,,,,,,,,,,,,,,,,,,,,,,,,,,,,,,,,,,,,,,,,,,,,133.0,57.0,57.0,133.0,78.0,78.0,4.0,4.1,-191,-285,0,-14,202,-285,269.3717155456543,269.37185168266296,269.3755660057068,269.38635444641113,269.5363395214081,269.5363395214081,269.5363395214081,269.5363395214081,269.5363395214081,269.5363395214081,269.5363395214081,271.0034863948822,2,1.6135709285736084,None,,,,,,,,,,,,,,,,,,87,1,2025-02-24_10h58.19.856,comp,2024.2.4,57.959354008702945,2025-02-24 10h58.39.260728 -0500,
135,135,0,critical,dhw,35.0,3.0,upper,127.0,127.0,200.0,125.0,125.0,200.0,3,1.0849766731262207,None,,,,,0,0,0,0,0,135,135,51,271.01964044570923,,,,,,,,,,,,,,,,,,,,,,,,,,,,,,,,,,,,,,,,,,,,,,,,,,,,,,,,,,,,,,,,,,,,,,,,,,,,,,,,,,127.0,127.0,200.0,125.0,125.0,200.0,3.0,3.1,-222,271,0,-16,258,-261,271.00526213645935,271.00535345077515,271.0087881088257,271.01964044570923,271.1707172393799,271.1707172393799,271.1707172393799,271.1707172393799,271.1707172393799,271.1707172393799,271.1707172393799,272.1069755554199,3,1.0849766731262207,None,,,,,,,,,,,,,,,,,,87,1,2025-02-24_10h58.19.856,comp,2024.2.4,57.959354008702945,2025-02-24 10h58.39.260728 -0500,
136,136,0,filler_random,None,None,None,None,None,None,None,None,None,None,3,0.837599515914917,None,,,,,0,0,0,0,0,136,136,161,272.122430562973,,,,,,,,,,,,,,,,,,,,,,,,,,,,,,,,,,,,,,,,,,,,,,,,,,,,,,,,,,,,,,,,,,,,,,,,,,,,,,,,,,157.76468915574821,64.99954628627493,104.4374123794417,130.4888889839146,126.24061296306775,148.75789586181395,2.2,2.22,-194,251,0,-257,236,-277,272.10871601104736,272.1087956428528,272.111709356308,272.122430562973,272.26997566223145,272.26997566223145,272.26997566223145,272.26997566223145,272.26997566223145,272.26997566223145,272.26997566223145,272.9791564941406,3,0.837599515914917,None,,,,,,,,,,,,,,,,,,87,1,2025-02-24_10h58.19.856,comp,2024.2.4,57.959354008702945,2025-02-24 10h58.39.260728 -0500,
137,137,0,filler_random,None,None,None,None,None,None,None,None,None,None,3,1.0192365646362305,None,,,,,0,0,0,0,0,137,137,130,272.9970672130585,,,,,,,,,,,,,,,,,,,,,,,,,,,,,,,,,,,,,,,,,,,,,,,,,,,,,,,,,,,,,,,,,,,,,,,,,,,,,,,,,,166.0192097003106,128.30535994778273,163.27984687525566,99.54808883303399,97.87928583744,172.8395846790193,4.0,4.1,-210,-267,0,10,232,-282,272.9807348251343,272.9808328151703,272.9836754798889,272.9970672130585,273.1392285823822,273.1392285823822,273.1392285823822,273.1392285823822,273.1392285823822,273.1392285823822,273.1392285823822,274.0199739933014,3,1.0192365646362305,None,,,,,,,,,,,,,,,,,,87,1,2025-02-24_10h58.19.856,comp,2024.2.4,57.959354008702945,2025-02-24 10h58.39.260728 -0500,
138,138,0,critical,wdh,35.0,2.1,lower,57.0,133.0,70.0,70.0,133.0,57.0,3,1.738464593887329,None,,,,,0,0,0,0,0,138,138,8,274.03751707077026,,,,,,,,,,,,,,,,,,,,,,,,,,,,,,,,,,,,,,,,,,,,,,,,,,,,,,,,,,,,,,,,,,,,,,,,,,,,,,,,,,57.0,133.0,70.0,70.0,133.0,57.0,2.1,2.11,-198,281,0,271,160,-254,274.0215034484863,274.0215802192688,274.02463269233704,274.03751707077026,274.1751182079315,274.1751182079315,274.1751182079315,274.1751182079315,274.1751182079315,274.1751182079315,274.1751182079315,275.7872061729431,3,1.738464593887329,None,,,,,,,,,,,,,,,,,,87,1,2025-02-24_10h58.19.856,comp,2024.2.4,57.959354008702945,2025-02-24 10h58.39.260728 -0500,
139,139,0,catch,None,None,None,None,None,None,None,None,None,None,3,0.9524366855621338,None,,,,,0,0,0,0,0,139,139,123,275.80793356895447,,,,,,,,,,,,,,,,,,,,,,,,,,,,,,,,,,,,,,,,,,,,,,,,,,,,,,,,,,,,,,,,,,,,,,,,,,,,,,,,,,88,102,88,102,133,192,4.0,4.2,-198,-12,0,-260,243,12,275.78910660743713,275.78918266296387,275.79229164123535,275.80793356895447,275.9547472000122,275.9547472000122,275.9547472000122,275.9547472000122,275.9547472000122,275.9547472000122,275.9547472000122,276.77160573005676,3,0.9524366855621338,None,,,,,,,,,,,,,,,,,,87,1,2025-02-24_10h58.19.856,comp,2024.2.4,57.959354008702945,2025-02-24 10h58.39.260728 -0500,
