thisN,thisTrialN,thisRepN,effect,order,distance,config,diag,h_1,w_1,h_2,w_2,h_3,w_3,rect_choice.keys,rect_choice.rt,rect_choice.duration,instructions_loop.thisRepN,instructions_loop.thisTrialN,instructions_loop.thisN,instructions_loop.thisIndex,blocks.thisRepN,blocks.thisTrialN,blocks.thisN,blocks.thisIndex,trials.thisRepN,trials.thisTrialN,trials.thisN,trials.thisIndex,thisRow.t,notes,consent.started,agree_button.started,decline_button.started,consent_img.started,mouse.started,consent.stopped,agree_button.numClicks,agree_button.timesOn,agree_button.timesOff,decline_button.numClicks,decline_button.timesOn,decline_button.timesOff,mouse.x,mouse.y,mouse.leftButton,mouse.midButton,mouse.rightButton,mouse.time,mouse.clicked_name,exp_params.started,exp_params.stopped,welcome.started,welcome_text.started,welcome.stopped,instructions_1.started,instructions_1_text_1.started,instructions_1_text_2.started,key_resp.started,instructions_1.stopped,instructions_loop.key_resp.keys,instructions_loop.key_resp.rt,instructions_loop.key_resp.duration,instructions_2.started,instructions_2_text_1.started,instructions_2_text_2.started,key_resp_2.started,instructions_2.stopped,instructions_loop.key_resp_2.keys,instructions_loop.key_resp_2.rt,instructions_loop.key_resp_2.duration,instructions_3.started,instructions_3_text_1.started,r1_instr3.started,r2_instr3.started,r3_instr3.started,r1_instr3_label.started,r2_instr3_label.started,r3_instr3_label.started,instructions_3_text_3.started,instructions_3_text_4.started,key_resp_3.started,instructions_3.stopped,instructions_loop.key_resp_3.keys,instructions_loop.key_resp_3.rt,instructions_loop.key_resp_3.duration,instructions_4.started,instructions_4_text_1.started,instructions_4_text_3.started,instructions_4_text_2.started,key_resp_4.started,instructions_4.stopped,instructions_loop.key_resp_4.keys,instructions_loop.key_resp_4.rt,instructions_loop.key_resp_4.duration,instructions_5.started,instructions_5_text_1.started,instructions_5_text_2.started,key_resp_5.started,instructions_5.stopped,instructions_loop.key_resp_5.keys,instructions_loop.key_resp_5.rt,instructions_loop.key_resp_5.duration,start_exp.started,start_exp_text.started,key_resp_6.started,start_exp.stopped,key_resp_6.keys,key_resp_6.rt,key_resp_6.duration,h_1_tmp,w_1_tmp,h_2_tmp,w_2_tmp,h_3_tmp,w_3_tmp,config_tmp,config_tmp_1,r_1_x,r_1_y,r_2_x,r_2_y,r_3_x,r_3_y,pre_trial.started,pre_trial.stopped,choice_trial.started,rect_choice.started,r_1.started,r_2.started,r_3.started,r_1_label.started,r_2_label.started,r_3_label.started,prompt.started,choice_trial.stopped,trials.rect_choice.keys,trials.rect_choice.rt,trials.rect_choice.duration,end_block.started,end_block_text.started,end_block.stopped,end.started,end_text.started,key_resp_7.started,end.stopped,key_resp_7.keys,key_resp_7.rt,key_resp_7.duration,debriefing.started,debrief_form.started,end_debrief.started,debriefing.stopped,end_debrief.keys,end_debrief.rt,end_debrief.duration,participant,computer,date,expName,psychopyVersion,frameRate,expStart,
,,,,,,,,,,,,,,,,,,,,,,,,,,,,,,,0.015109062194824219,0.04142904281616211,0.04142904281616211,0.04142904281616211,0.014605522155761719,51.70624542236328,1,[51.66357111930847],[51.66358208656311],0,,,[-114.0],[-503.0],[1],[0],[0],[51.69055795669556],['agree_button'],,,,,,,,,,,,,,,,,,,,,,,,,,,,,,,,,,,,,,,,,,,,,,,,,,,,,,,,,,,,,,,,,,,,,,,,,,,,,,,,,,,,,,,,,,,,,,,,,,,,,,,,,,,88,3,2025-02-24_10h58.43.017,comp,2024.2.4,60.102283979187824,2025-02-24 10h58.54.250690 -0500,
,,,,,,,,,,,,,,,,,,,,,,,,,,,,,,,,,,,,,,,,,,,,,,,,,,51.70655536651611,51.70658993721008,,,,,,,,,,,,,,,,,,,,,,,,,,,,,,,,,,,,,,,,,,,,,,,,,,,,,,,,,,,,,,,,,,,,,,,,,,,,,,,,,,,,,,,,,,,,,,,,,,,,,,,,,88,3,2025-02-24_10h58.43.017,comp,2024.2.4,60.102283979187824,2025-02-24 10h58.54.250690 -0500,
,,,,,,,,,,,,,,,,,,,,,,,,,,,,,,,,,,,,,,,,,,,,,,,,,,,,51.706613540649414,51.72014379501343,53.71827530860901,,,,,,,,,,,,,,,,,,,,,,,,,,,,,,,,,,,,,,,,,,,,,,,,,,,,,,,,,,,,,,,,,,,,,,,,,,,,,,,,,,,,,,,,,,,,,,,,,,,,,,88,3,2025-02-24_10h58.43.017,comp,2024.2.4,60.102283979187824,2025-02-24 10h58.54.250690 -0500,
0,0,0,,,,,,,,,,,,,,,0,0,0,0,,,,,,,,,53.73509407043457,,,,,,,,,,,,,,,,,,,,,,,,,,53.71881341934204,53.73509407043457,53.73509407043457,55.21868181228638,61.169623136520386,space,5.933610916137695,None,61.16970729827881,61.18504357337952,61.18504357337952,62.6849639415741,77.3691987991333,space,14.667104721069336,None,77.36930465698242,77.39041185379028,77.39041185379028,77.39041185379028,77.39041185379028,77.39041185379028,77.39041185379028,77.39041185379028,77.39041185379028,77.39041185379028,78.86860728263855,84.33641338348389,space,5.459980010986328,None,84.33650207519531,84.35217261314392,84.35217261314392,84.35217261314392,85.85143637657166,91.13594818115234,space,5.268154144287109,None,91.13603377342224,91.15158367156982,91.15158367156982,92.65139865875244,93.5858461856842,space,0.9250698089599609,None,93.58595418930054,93.60168170928955,93.60168170928955,94.9023323059082,space,1.2945857048034668,None,,,,,,,,,,,,,,,,,,,,,,,,,,,,,,,,,,,,,,,,,,,,,,,88,3,2025-02-24_10h58.43.017,comp,2024.2.4,60.102283979187824,2025-02-24 10h58.54.250690 -0500,
0,0,0,filler_square,None,None,None,None,None,None,None,None,None,None,2,3.742091417312622,None,,,,,0,0,0,0,0,0,0,199,94.96160507202148,,,,,,,,,,,,,,,,,,,,,,,,,,,,,,,,,,,,,,,,,,,,,,,,,,,,,,,,,,,,,,,,,,,,,,,,,,,,,,,,,109.90423043548944,175.18107701066225,184.6274367209602,184.6274367209602,97.27210078511354,89.15156562308312,2.1,2.11,-276,260,0,267,233,-263,94.9479308128357,94.9479775428772,94.94993996620178,94.96160507202148,95.10490894317627,95.10490894317627,95.10490894317627,95.10490894317627,95.10490894317627,95.10490894317627,95.10490894317627,98.71949529647827,2,3.742091417312622,None,,,,,,,,,,,,,,,,,,88,3,2025-02-24_10h58.43.017,comp,2024.2.4,60.102283979187824,2025-02-24 10h58.54.250690 -0500,
1,1,0,critical,wdh,20.0,2.1,upper,125.0,200.0,141.0,141.0,200.0,125.0,1,4.945568561553955,None,,,,,0,0,0,0,0,1,1,11,98.7347481250763,,,,,,,,,,,,,,,,,,,,,,,,,,,,,,,,,,,,,,,,,,,,,,,,,,,,,,,,,,,,,,,,,,,,,,,,,,,,,,,,,125.0,200.0,141.0,141.0,200.0,125.0,2.1,2.12,-266,-275,0,-252,229,280,98.72025680541992,98.7203094959259,98.72350764274597,98.7347481250763,98.88491868972778,98.88491868972778,98.88491868972778,98.88491868972778,98.88491868972778,98.88491868972778,98.88491868972778,103.68620300292969,1,4.945568561553955,None,,,,,,,,,,,,,,,,,,88,3,2025-02-24_10h58.43.017,comp,2024.2.4,60.102283979187824,2025-02-24 10h58.54.250690 -0500,
2,2,0,critical,dhw,20.0,2.1,lower,78.0,78.0,133.0,57.0,57.0,133.0,1,6.410612344741821,None,,,,,0,0,0,0,0,2,2,2,103.7016007900238,,,,,,,,,,,,,,,,,,,,,,,,,,,,,,,,,,,,,,,,,,,,,,,,,,,,,,,,,,,,,,,,,,,,,,,,,,,,,,,,,78.0,78.0,133.0,57.0,57.0,133.0,2.1,2.12,-164,-283,0,-280,191,287,103.68701577186584,103.6870551109314,103.68911218643188,103.7016007900238,103.8514461517334,103.8514461517334,103.8514461517334,103.8514461517334,103.8514461517334,103.8514461517334,103.8514461517334,110.11909914016724,1,6.410612344741821,None,,,,,,,,,,,,,,,,,,88,3,2025-02-24_10h58.43.017,comp,2024.2.4,60.102283979187824,2025-02-24 10h58.54.250690 -0500,
3,3,0,filler_random,None,None,None,None,None,None,None,None,None,None,1,5.400590419769287,None,,,,,0,0,0,0,0,3,3,144,110.1348614692688,,,,,,,,,,,,,,,,,,,,,,,,,,,,,,,,,,,,,,,,,,,,,,,,,,,,,,,,,,,,,,,,,,,,,,,,,,,,,,,,,97.68172763300771,183.44259551948326,125.36467096754266,145.79528477429943,105.9349698713566,164.170407448072,2.1,2.12,-261,-267,0,-255,251,252,110.12000131607056,110.12004208564758,110.12245845794678,110.1348614692688,110.28483152389526,110.28483152389526,110.28483152389526,110.28483152389526,110.28483152389526,110.28483152389526,110.28483152389526,115.5527458190918,1,5.400590419769287,None,,,,,,,,,,,,,,,,,,88,3,2025-02-24_10h58.43.017,comp,2024.2.4,60.102283979187824,2025-02-24 10h58.54.250690 -0500,
4,4,0,catch,None,None,None,None,None,None,None,None,None,None,3,3.0968239307403564,None,,,,,0,0,0,0,0,4,4,126,115.56792449951172,,,,,,,,,,,,,,,,,,,,,,,,,,,,,,,,,,,,,,,,,,,,,,,,,,,,,,,,,,,,,,,,,,,,,,,,,,,,,,,,,125,65,80,110,189,136,3.0,3.2,-184,-269,0,-15,219,285,115.5538022518158,115.55384373664856,115.55618739128113,115.56792449951172,115.71809411048889,115.71809411048889,115.71809411048889,115.71809411048889,115.71809411048889,115.71809411048889,115.71809411048889,118.66925930976868,3,3.0968239307403564,None,,,,,,,,,,,,,,,,,,88,3,2025-02-24_10h58.43.017,comp,2024.2.4,60.102283979187824,2025-02-24 10h58.54.250690 -0500,
5,5,0,filler_square,None,None,None,None,None,None,None,None,None,None,3,1.8346240520477295,None,,,,,0,0,0,0,0,5,5,171,118.68477749824524,,,,,,,,,,,,,,,,,,,,,,,,,,,,,,,,,,,,,,,,,,,,,,,,,,,,,,,,,,,,,,,,,,,,,,,,,,,,,,,,,101.96705988415076,115.86956107406435,87.55008781576133,112.25487364523823,126.10616304785165,126.10616304785165,1.0,1.3,270,-283,480,-273,695,-254,118.67016816139221,118.67020726203918,118.67218017578125,118.68477749824524,118.83471393585205,118.83471393585205,118.83471393585205,118.83471393585205,118.83471393585205,118.83471393585205,118.83471393585205,120.53582882881165,3,1.8346240520477295,None,,,,,,,,,,,,,,,,,,88,3,2025-02-24_10h58.43.017,comp,2024.2.4,60.102283979187824,2025-02-24 10h58.54.250690 -0500,
6,6,0,filler_square,None,None,None,None,None,None,None,None,None,None,3,3.144868850708008,None,,,,,0,0,0,0,0,6,6,192,120.55122447013855,,,,,,,,,,,,,,,,,,,,,,,,,,,,,,,,,,,,,,,,,,,,,,,,,,,,,,,,,,,,,,,,,,,,,,,,,,,,,,,,,73.33179256084908,73.25718583667522,75.10441496933879,93.41757867410925,95.77541101696687,95.77541101696687,4.0,4.1,-179,-263,0,9,191,-281,120.53678750991821,120.53682684898376,120.53923082351685,120.55122447013855,120.70161008834839,120.70161008834839,120.70161008834839,120.70161008834839,120.70161008834839,120.70161008834839,120.70161008834839,123.70230507850647,3,3.144868850708008,None,,,,,,,,,,,,,,,,,,88,3,2025-02-24_10h58.43.017,comp,2024.2.4,60.102283979187824,2025-02-24 10h58.54.250690 -0500,
7,7,0,critical,dhw,20.0,2.1,upper,141.0,141.0,200.0,125.0,125.0,200.0,2,5.185387134552002,None,,,,,0,0,0,0,0,7,7,27,123.71810388565063,,,,,,,,,,,,,,,,,,,,,,,,,,,,,,,,,,,,,,,,,,,,,,,,,,,,,,,,,,,,,,,,,,,,,,,,,,,,,,,,,141.0,141.0,200.0,125.0,125.0,200.0,2.1,2.12,-229,-264,0,-255,258,271,123.70309352874756,123.70313286781311,123.70538091659546,123.71810388565063,123.86855673789978,123.86855673789978,123.86855673789978,123.86855673789978,123.86855673789978,123.86855673789978,123.86855673789978,128.9191825389862,2,5.185387134552002,None,,,,,,,,,,,,,,,,,,88,3,2025-02-24_10h58.43.017,comp,2024.2.4,60.102283979187824,2025-02-24 10h58.54.250690 -0500,
8,8,0,critical,dhw,35.0,3.0,lower,70.0,70.0,133.0,57.0,57.0,133.0,3,4.530532360076904,None,,,,,0,0,0,0,0,8,8,50,128.93438339233398,,,,,,,,,,,,,,,,,,,,,,,,,,,,,,,,,,,,,,,,,,,,,,,,,,,,,,,,,,,,,,,,,,,,,,,,,,,,,,,,,70.0,70.0,133.0,57.0,57.0,133.0,3.0,3.1,-160,257,0,-7,191,-272,128.91995072364807,128.91999053955078,128.92211413383484,128.93438339233398,129.0845980644226,129.0845980644226,129.0845980644226,129.0845980644226,129.0845980644226,129.0845980644226,129.0845980644226,133.4690978527069,3,4.530532360076904,None,,,,,,,,,,,,,,,,,,88,3,2025-02-24_10h58.43.017,comp,2024.2.4,60.102283979187824,2025-02-24 10h58.54.250690 -0500,
9,9,0,filler_square,None,None,None,None,None,None,None,None,None,None,3,2.4755985736846924,None,,,,,0,0,0,0,0,9,9,170,133.4846897125244,,,,,,,,,,,,,,,,,,,,,,,,,,,,,,,,,,,,,,,,,,,,,,,,,,,,,,,,,,,,,,,,,,,,,,,,,,,,,,,,,164.61544407556107,78.850269172533,136.64135196230276,104.97210108984329,180.832984627638,180.832984627638,2.1,2.12,-188,-271,0,-283,239,289,133.4700574874878,133.4700973033905,133.472510099411,133.4846897125244,133.63467001914978,133.63467001914978,133.63467001914978,133.63467001914978,133.63467001914978,133.63467001914978,133.63467001914978,135.9691481590271,3,2.4755985736846924,None,,,,,,,,,,,,,,,,,,88,3,2025-02-24_10h58.43.017,comp,2024.2.4,60.102283979187824,2025-02-24 10h58.54.250690 -0500,
10,10,0,filler_random,None,None,None,None,None,None,None,None,None,None,2,1.9834504127502441,None,,,,,0,0,0,0,0,10,10,167,135.9847002029419,,,,,,,,,,,,,,,,,,,,,,,,,,,,,,,,,,,,,,,,,,,,,,,,,,,,,,,,,,,,,,,,,,,,,,,,,,,,,,,,,117.10581909586517,61.542047859899455,136.17840464855607,157.6467353417444,69.155006422874,110.68268134690713,2.2,2.22,-206,285,0,-280,230,-279,135.97007942199707,135.97012162208557,135.97207856178284,135.9847002029419,136.13455843925476,136.13455843925476,136.13455843925476,136.13455843925476,136.13455843925476,136.13455843925476,136.13455843925476,137.98569416999817,2,1.9834504127502441,None,,,,,,,,,,,,,,,,,,88,3,2025-02-24_10h58.43.017,comp,2024.2.4,60.102283979187824,2025-02-24 10h58.54.250690 -0500,
11,11,0,critical,wdh,35.0,2.1,upper,125.0,200.0,127.0,127.0,200.0,125.0,1,2.8004074096679688,None,,,,,0,0,0,0,0,11,11,33,138.0011658668518,,,,,,,,,,,,,,,,,,,,,,,,,,,,,,,,,,,,,,,,,,,,,,,,,,,,,,,,,,,,,,,,,,,,,,,,,,,,,,,,,125.0,200.0,127.0,127.0,200.0,125.0,2.1,2.12,-260,-289,0,-256,222,265,137.9864945411682,137.98653411865234,137.98890614509583,138.0011658668518,138.15163278579712,138.15163278579712,138.15163278579712,138.15163278579712,138.15163278579712,138.15163278579712,138.15163278579712,140.80285048484802,1,2.8004074096679688,None,,,,,,,,,,,,,,,,,,88,3,2025-02-24_10h58.43.017,comp,2024.2.4,60.102283979187824,2025-02-24 10h58.54.250690 -0500,
12,12,0,critical,dhw,20.0,1.0,upper,141.0,141.0,200.0,125.0,125.0,200.0,2,3.3834755420684814,None,,,,,0,0,0,0,0,12,12,55,140.81802034378052,,,,,,,,,,,,,,,,,,,,,,,,,,,,,,,,,,,,,,,,,,,,,,,,,,,,,,,,,,,,,,,,,,,,,,,,,,,,,,,,,141.0,141.0,200.0,125.0,125.0,200.0,1.0,1.2,-229,-11,0,0,258,14,140.80363821983337,140.80367875099182,140.80599117279053,140.81802034378052,140.96802282333374,140.96802282333374,140.96802282333374,140.96802282333374,140.96802282333374,140.96802282333374,140.96802282333374,144.20280051231384,2,3.3834755420684814,None,,,,,,,,,,,,,,,,,,88,3,2025-02-24_10h58.43.017,comp,2024.2.4,60.102283979187824,2025-02-24 10h58.54.250690 -0500,
13,13,0,critical,dwh,20.0,4.0,lower,78.0,78.0,57.0,133.0,133.0,57.0,2,5.383692264556885,None,,,,,0,0,0,0,0,13,13,70,144.21795415878296,,,,,,,,,,,,,,,,,,,,,,,,,,,,,,,,,,,,,,,,,,,,,,,,,,,,,,,,,,,,,,,,,,,,,,,,,,,,,,,,,78.0,78.0,57.0,133.0,133.0,57.0,4.0,4.1,-202,-265,0,7,191,-267,144.2035882472992,144.2036280632019,144.20591807365417,144.21795415878296,144.367821931839,144.367821931839,144.367821931839,144.367821931839,144.367821931839,144.367821931839,144.367821931839,149.6188769340515,2,5.383692264556885,None,,,,,,,,,,,,,,,,,,88,3,2025-02-24_10h58.43.017,comp,2024.2.4,60.102283979187824,2025-02-24 10h58.54.250690 -0500,
14,14,0,critical,dwh,35.0,2.1,upper,127.0,127.0,125.0,200.0,200.0,125.0,2,4.172760963439941,None,,,,,0,0,0,0,0,14,14,29,149.63428378105164,,,,,,,,,,,,,,,,,,,,,,,,,,,,,,,,,,,,,,,,,,,,,,,,,,,,,,,,,,,,,,,,,,,,,,,,,,,,,,,,,127.0,127.0,125.0,200.0,200.0,125.0,2.1,2.12,-260,-280,0,-286,258,283,149.61970353126526,149.61974358558655,149.6222107410431,149.63428378105164,149.78501558303833,149.78501558303833,149.78501558303833,149.78501558303833,149.78501558303833,149.78501558303833,149.78501558303833,153.8190312385559,2,4.172760963439941,None,,,,,,,,,,,,,,,,,,88,3,2025-02-24_10h58.43.017,comp,2024.2.4,60.102283979187824,2025-02-24 10h58.54.250690 -0500,
15,15,0,critical,whd,20.0,3.0,lower,57.0,133.0,133.0,57.0,78.0,78.0,2,2.9417333602905273,None,,,,,0,0,0,0,0,15,15,92,153.83419752120972,,,,,,,,,,,,,,,,,,,,,,,,,,,,,,,,,,,,,,,,,,,,,,,,,,,,,,,,,,,,,,,,,,,,,,,,,,,,,,,,,57.0,133.0,133.0,57.0,78.0,78.0,3.0,3.1,-191,278,0,-15,164,-252,153.81981444358826,153.8198549747467,153.82234358787537,153.83419752120972,153.98443126678467,153.98443126678467,153.98443126678467,153.98443126678467,153.98443126678467,153.98443126678467,153.98443126678467,156.78538179397583,2,2.9417333602905273,None,,,,,,,,,,,,,,,,,,88,3,2025-02-24_10h58.43.017,comp,2024.2.4,60.102283979187824,2025-02-24 10h58.54.250690 -0500,
16,16,0,filler_random,None,None,None,None,None,None,None,None,None,None,2,3.7106592655181885,None,,,,,0,0,0,0,0,16,16,140,156.80118322372437,,,,,,,,,,,,,,,,,,,,,,,,,,,,,,,,,,,,,,,,,,,,,,,,,,,,,,,,,,,,,,,,,,,,,,,,,,,,,,,,,91.41937371520373,143.64733535698178,113.38837070471425,175.34893035204556,116.55260978528317,120.3308876162966,3.0,3.2,-255,-266,0,3,244,282,156.7862765789032,156.7863199710846,156.7886507511139,156.80118322372437,156.95118355751038,156.95118355751038,156.95118355751038,156.95118355751038,156.95118355751038,156.95118355751038,156.95118355751038,160.5189163684845,2,3.7106592655181885,None,,,,,,,,,,,,,,,,,,88,3,2025-02-24_10h58.43.017,comp,2024.2.4,60.102283979187824,2025-02-24 10h58.54.250690 -0500,
17,17,0,filler_square,None,None,None,None,None,None,None,None,None,None,2,3.457329273223877,None,,,,,0,0,0,0,0,17,17,183,160.5345323085785,,,,,,,,,,,,,,,,,,,,,,,,,,,,,,,,,,,,,,,,,,,,,,,,,,,,,,,,,,,,,,,,,,,,,,,,,,,,,,,,,153.98660768851698,76.3472600406347,189.15576363444984,189.15576363444984,64.41413177032248,122.04782248631552,1.0,1.3,251,-256,480,-262,732,-284,160.51984930038452,160.51988816261292,160.5222363471985,160.5345323085785,160.68447494506836,160.68447494506836,160.68447494506836,160.68447494506836,160.68447494506836,160.68447494506836,160.68447494506836,164.00226378440857,2,3.457329273223877,None,,,,,,,,,,,,,,,,,,88,3,2025-02-24_10h58.43.017,comp,2024.2.4,60.102283979187824,2025-02-24 10h58.54.250690 -0500,
18,18,0,critical,dwh,20.0,3.0,lower,78.0,78.0,57.0,133.0,133.0,57.0,2,4.357956647872925,None,,,,,0,0,0,0,0,18,18,68,164.0179419517517,,,,,,,,,,,,,,,,,,,,,,,,,,,,,,,,,,,,,,,,,,,,,,,,,,,,,,,,,,,,,,,,,,,,,,,,,,,,,,,,,78.0,78.0,57.0,133.0,133.0,57.0,3.0,3.1,-202,262,0,-11,191,-271,164.00319862365723,164.00324010849,164.00555515289307,164.0179419517517,164.16763854026794,164.16763854026794,164.16763854026794,164.16763854026794,164.16763854026794,164.16763854026794,164.16763854026794,168.38536548614502,2,4.357956647872925,None,,,,,,,,,,,,,,,,,,88,3,2025-02-24_10h58.43.017,comp,2024.2.4,60.102283979187824,2025-02-24 10h58.54.250690 -0500,
19,19,0,filler_random,None,None,None,None,None,None,None,None,None,None,1,4.016490936279297,None,,,,,0,0,0,0,0,19,19,131,168.40099239349365,,,,,,,,,,,,,,,,,,,,,,,,,,,,,,,,,,,,,,,,,,,,,,,,,,,,,,,,,,,,,,,,,,,,,,,,,,,,,,,,,182.72636471520792,94.43161016796687,82.59087016171576,127.06478494675872,61.760208135564014,159.6106556466289,1.0,1.3,273,-278,480,-287,719,-272,168.38623452186584,168.38628840446472,168.38854384422302,168.40099239349365,168.55109238624573,168.55109238624573,168.55109238624573,168.55109238624573,168.55109238624573,168.55109238624573,168.55109238624573,172.43549060821533,1,4.016490936279297,None,,,,,,,,,,,,,,,,,,88,3,2025-02-24_10h58.43.017,comp,2024.2.4,60.102283979187824,2025-02-24 10h58.54.250690 -0500,
20,20,0,critical,dhw,35.0,4.0,upper,127.0,127.0,200.0,125.0,125.0,200.0,3,3.3005993366241455,None,,,,,0,0,0,0,0,20,20,53,172.45088410377502,,,,,,,,,,,,,,,,,,,,,,,,,,,,,,,,,,,,,,,,,,,,,,,,,,,,,,,,,,,,,,,,,,,,,,,,,,,,,,,,,127.0,127.0,200.0,125.0,125.0,200.0,4.0,4.2,-222,-17,0,-287,258,17,172.43625497817993,172.43630695343018,172.4385929107666,172.45088410377502,172.60111951828003,172.60111951828003,172.60111951828003,172.60111951828003,172.60111951828003,172.60111951828003,172.60111951828003,175.75260090827942,3,3.3005993366241455,None,,,,,,,,,,,,,,,,,,88,3,2025-02-24_10h58.43.017,comp,2024.2.4,60.102283979187824,2025-02-24 10h58.54.250690 -0500,
21,21,0,filler_random,None,None,None,None,None,None,None,None,None,None,1,2.2499170303344727,None,,,,,0,0,0,0,0,21,21,138,175.76774525642395,,,,,,,,,,,,,,,,,,,,,,,,,,,,,,,,,,,,,,,,,,,,,,,,,,,,,,,,,,,,,,,,,,,,,,,,,,,,,,,,,183.41255603345073,199.92223854798965,197.58515875748384,107.4581840541213,121.26424400304028,79.55165575806583,4.0,4.2,-250,-15,0,-264,190,-18,175.7534773349762,175.75351691246033,175.75585436820984,175.76774525642395,175.91785621643066,175.91785621643066,175.91785621643066,175.91785621643066,175.91785621643066,175.91785621643066,175.91785621643066,178.0190234184265,1,2.2499170303344727,None,,,,,,,,,,,,,,,,,,88,3,2025-02-24_10h58.43.017,comp,2024.2.4,60.102283979187824,2025-02-24 10h58.54.250690 -0500,
22,22,0,critical,whd,35.0,2.1,lower,57.0,133.0,133.0,57.0,70.0,70.0,1,3.7006192207336426,None,,,,,0,0,0,0,0,22,22,36,178.03431725502014,,,,,,,,,,,,,,,,,,,,,,,,,,,,,,,,,,,,,,,,,,,,,,,,,,,,,,,,,,,,,,,,,,,,,,,,,,,,,,,,,57.0,133.0,133.0,57.0,70.0,70.0,2.1,2.11,-191,262,0,274,160,-281,178.0198302268982,178.0198712348938,178.02197694778442,178.03431725502014,178.1841778755188,178.1841778755188,178.1841778755188,178.1841778755188,178.1841778755188,178.1841778755188,178.1841778755188,181.7522578239441,1,3.7006192207336426,None,,,,,,,,,,,,,,,,,,88,3,2025-02-24_10h58.43.017,comp,2024.2.4,60.102283979187824,2025-02-24 10h58.54.250690 -0500,
23,23,0,critical,whd,35.0,2.1,upper,125.0,200.0,200.0,125.0,127.0,127.0,1,5.008468151092529,None,,,,,0,0,0,0,0,23,23,13,181.76771783828735,,,,,,,,,,,,,,,,,,,,,,,,,,,,,,,,,,,,,,,,,,,,,,,,,,,,,,,,,,,,,,,,,,,,,,,,,,,,,,,,,125.0,200.0,200.0,125.0,127.0,127.0,2.1,2.12,-258,-281,0,-256,222,269,181.75322127342224,181.7532615661621,181.75673627853394,181.76771783828735,181.91798734664917,181.91798734664917,181.91798734664917,181.91798734664917,181.91798734664917,181.91798734664917,181.91798734664917,186.78558731079102,1,5.008468151092529,None,,,,,,,,,,,,,,,,,,88,3,2025-02-24_10h58.43.017,comp,2024.2.4,60.102283979187824,2025-02-24 10h58.54.250690 -0500,
24,24,0,critical,hdw,20.0,2.1,lower,133.0,57.0,78.0,78.0,57.0,133.0,1,3.3999524116516113,None,,,,,0,0,0,0,0,24,24,46,186.80109024047852,,,,,,,,,,,,,,,,,,,,,,,,,,,,,,,,,,,,,,,,,,,,,,,,,,,,,,,,,,,,,,,,,,,,,,,,,,,,,,,,,133.0,57.0,78.0,78.0,57.0,133.0,2.1,2.11,-164,285,0,270,202,-290,186.78640842437744,186.7864499092102,186.7885069847107,186.80109024047852,186.95087552070618,186.95087552070618,186.95087552070618,186.95087552070618,186.95087552070618,186.95087552070618,186.95087552070618,190.21923089027405,1,3.3999524116516113,None,,,,,,,,,,,,,,,,,,88,3,2025-02-24_10h58.43.017,comp,2024.2.4,60.102283979187824,2025-02-24 10h58.54.250690 -0500,
25,25,0,critical,whd,20.0,4.0,upper,125.0,200.0,200.0,125.0,141.0,141.0,1,3.2931244373321533,None,,,,,0,0,0,0,0,25,25,95,190.23467803001404,,,,,,,,,,,,,,,,,,,,,,,,,,,,,,,,,,,,,,,,,,,,,,,,,,,,,,,,,,,,,,,,,,,,,,,,,,,,,,,,,125.0,200.0,200.0,125.0,141.0,141.0,4.0,4.1,-258,-261,0,11,229,-258,190.22002911567688,190.22006940841675,190.22220826148987,190.23467803001404,190.38506817817688,190.38506817817688,190.38506817817688,190.38506817817688,190.38506817817688,190.38506817817688,190.38506817817688,193.53550839424133,1,3.2931244373321533,None,,,,,,,,,,,,,,,,,,88,3,2025-02-24_10h58.43.017,comp,2024.2.4,60.102283979187824,2025-02-24 10h58.54.250690 -0500,
26,26,0,critical,wdh,35.0,2.1,upper,125.0,200.0,127.0,127.0,200.0,125.0,1,2.0004994869232178,None,,,,,0,0,0,0,0,26,26,9,193.5511291027069,,,,,,,,,,,,,,,,,,,,,,,,,,,,,,,,,,,,,,,,,,,,,,,,,,,,,,,,,,,,,,,,,,,,,,,,,,,,,,,,,125.0,200.0,127.0,127.0,200.0,125.0,2.1,2.12,-260,-284,0,-268,222,260,193.53631377220154,193.5363540649414,193.53838562965393,193.5511291027069,193.70099472999573,193.70099472999573,193.70099472999573,193.70099472999573,193.70099472999573,193.70099472999573,193.70099472999573,195.5687861442566,1,2.0004994869232178,None,,,,,,,,,,,,,,,,,,88,3,2025-02-24_10h58.43.017,comp,2024.2.4,60.102283979187824,2025-02-24 10h58.54.250690 -0500,
27,27,0,critical,dhw,20.0,2.1,lower,78.0,78.0,133.0,57.0,57.0,133.0,2,3.52754282951355,None,,,,,0,0,0,0,0,27,27,26,195.58409929275513,,,,,,,,,,,,,,,,,,,,,,,,,,,,,,,,,,,,,,,,,,,,,,,,,,,,,,,,,,,,,,,,,,,,,,,,,,,,,,,,,78.0,78.0,133.0,57.0,57.0,133.0,2.1,2.11,-164,263,0,262,191,-259,195.56958842277527,195.56962752342224,195.57292366027832,195.58409929275513,195.73418402671814,195.73418402671814,195.73418402671814,195.73418402671814,195.73418402671814,195.73418402671814,195.73418402671814,199.11846446990967,2,3.52754282951355,None,,,,,,,,,,,,,,,,,,88,3,2025-02-24_10h58.43.017,comp,2024.2.4,60.102283979187824,2025-02-24 10h58.54.250690 -0500,
28,28,0,critical,hdw,35.0,4.0,lower,133.0,57.0,70.0,70.0,57.0,133.0,1,2.120879888534546,None,,,,,0,0,0,0,0,28,28,112,199.13458728790283,,,,,,,,,,,,,,,,,,,,,,,,,,,,,,,,,,,,,,,,,,,,,,,,,,,,,,,,,,,,,,,,,,,,,,,,,,,,,,,,,133.0,57.0,70.0,70.0,57.0,133.0,4.0,4.1,-160,-264,0,8,198,-276,199.1192364692688,199.11929082870483,199.12131929397583,199.13458728790283,199.28417778015137,199.28417778015137,199.28417778015137,199.28417778015137,199.28417778015137,199.28417778015137,199.28417778015137,201.2685465812683,1,2.120879888534546,None,,,,,,,,,,,,,,,,,,88,3,2025-02-24_10h58.43.017,comp,2024.2.4,60.102283979187824,2025-02-24 10h58.54.250690 -0500,
29,29,0,catch,None,None,None,None,None,None,None,None,None,None,1,1.395646095275879,None,,,,,0,0,0,0,0,29,29,121,201.28399348258972,,,,,,,,,,,,,,,,,,,,,,,,,,,,,,,,,,,,,,,,,,,,,,,,,,,,,,,,,,,,,,,,,,,,,,,,,,,,,,,,,187,138,105,85,107,83,1.0,1.3,272,-286,480,-278,660,-251,201.26958632469177,201.26962637901306,201.27198815345764,201.28399348258972,201.43410658836365,201.43410658836365,201.43410658836365,201.43410658836365,201.43410658836365,201.43410658836365,201.43410658836365,202.68529295921326,1,1.395646095275879,None,,,,,,,,,,,,,,,,,,88,3,2025-02-24_10h58.43.017,comp,2024.2.4,60.102283979187824,2025-02-24 10h58.54.250690 -0500,
30,30,0,critical,dwh,35.0,2.1,lower,70.0,70.0,57.0,133.0,133.0,57.0,2,2.99479603767395,None,,,,,0,0,0,0,0,30,30,4,202.70081686973572,,,,,,,,,,,,,,,,,,,,,,,,,,,,,,,,,,,,,,,,,,,,,,,,,,,,,,,,,,,,,,,,,,,,,,,,,,,,,,,,,70.0,70.0,57.0,133.0,133.0,57.0,2.1,2.11,-198,261,0,279,191,-275,202.68607091903687,202.6861114501953,202.68814659118652,202.70081686973572,202.85077285766602,202.85077285766602,202.85077285766602,202.85077285766602,202.85077285766602,202.85077285766602,202.85077285766602,205.7017900943756,2,2.99479603767395,None,,,,,,,,,,,,,,,,,,88,3,2025-02-24_10h58.43.017,comp,2024.2.4,60.102283979187824,2025-02-24 10h58.54.250690 -0500,
31,31,0,critical,hdw,20.0,2.1,lower,133.0,57.0,78.0,78.0,57.0,133.0,3,3.089137554168701,None,,,,,0,0,0,0,0,31,31,22,205.71751260757446,,,,,,,,,,,,,,,,,,,,,,,,,,,,,,,,,,,,,,,,,,,,,,,,,,,,,,,,,,,,,,,,,,,,,,,,,,,,,,,,,133.0,57.0,78.0,78.0,57.0,133.0,2.1,2.11,-164,260,0,271,202,-271,205.70271849632263,205.7027599811554,205.70522236824036,205.71751260757446,205.86733031272888,205.86733031272888,205.86733031272888,205.86733031272888,205.86733031272888,205.86733031272888,205.86733031272888,208.81888151168823,3,3.089137554168701,None,,,,,,,,,,,,,,,,,,88,3,2025-02-24_10h58.43.017,comp,2024.2.4,60.102283979187824,2025-02-24 10h58.54.250690 -0500,
32,32,0,filler_random,None,None,None,None,None,None,None,None,None,None,2,5.566985368728638,None,,,,,0,0,0,0,0,32,32,157,208.83400011062622,,,,,,,,,,,,,,,,,,,,,,,,,,,,,,,,,,,,,,,,,,,,,,,,,,,,,,,,,,,,,,,,,,,,,,,,,,,,,,,,,144.5349751485515,116.23693420444914,150.6129845084011,111.13918441417607,163.8970591830673,87.0358177426995,3.0,3.1,-210,261,0,12,195,-265,208.81979417800903,208.81983423233032,208.82226252555847,208.83400011062622,208.98439502716064,208.98439502716064,208.98439502716064,208.98439502716064,208.98439502716064,208.98439502716064,208.98439502716064,214.41853857040405,2,5.566985368728638,None,,,,,,,,,,,,,,,,,,88,3,2025-02-24_10h58.43.017,comp,2024.2.4,60.102283979187824,2025-02-24 10h58.54.250690 -0500,
33,33,0,critical,hdw,35.0,2.1,lower,133.0,57.0,70.0,70.0,57.0,133.0,3,3.284949779510498,None,,,,,0,0,0,0,0,33,33,44,214.4338080883026,,,,,,,,,,,,,,,,,,,,,,,,,,,,,,,,,,,,,,,,,,,,,,,,,,,,,,,,,,,,,,,,,,,,,,,,,,,,,,,,,133.0,57.0,70.0,70.0,57.0,133.0,2.1,2.11,-160,275,0,262,198,-273,214.41931772232056,214.41935539245605,214.42164182662964,214.4338080883026,214.58399105072021,214.58399105072021,214.58399105072021,214.58399105072021,214.58399105072021,214.58399105072021,214.58399105072021,217.73510813713074,3,3.284949779510498,None,,,,,,,,,,,,,,,,,,88,3,2025-02-24_10h58.43.017,comp,2024.2.4,60.102283979187824,2025-02-24 10h58.54.250690 -0500,
34,34,0,critical,dwh,35.0,2.1,lower,70.0,70.0,57.0,133.0,133.0,57.0,2,3.6881601810455322,None,,,,,0,0,0,0,0,34,34,28,217.75050735473633,,,,,,,,,,,,,,,,,,,,,,,,,,,,,,,,,,,,,,,,,,,,,,,,,,,,,,,,,,,,,,,,,,,,,,,,,,,,,,,,,70.0,70.0,57.0,133.0,133.0,57.0,2.1,2.12,-198,-268,0,-270,191,277,217.7358694076538,217.73590636253357,217.7384421825409,217.75050735473633,217.90093278884888,217.90093278884888,217.90093278884888,217.90093278884888,217.90093278884888,217.90093278884888,217.90093278884888,221.45201921463013,2,3.6881601810455322,None,,,,,,,,,,,,,,,,,,88,3,2025-02-24_10h58.43.017,comp,2024.2.4,60.102283979187824,2025-02-24 10h58.54.250690 -0500,
35,35,0,critical,dwh,20.0,2.1,lower,78.0,78.0,57.0,133.0,133.0,57.0,2,2.7085211277008057,None,,,,,0,0,0,0,0,35,35,30,221.4671995639801,,,,,,,,,,,,,,,,,,,,,,,,,,,,,,,,,,,,,,,,,,,,,,,,,,,,,,,,,,,,,,,,,,,,,,,,,,,,,,,,,78.0,78.0,57.0,133.0,133.0,57.0,2.1,2.11,-202,282,0,277,191,-262,221.45282220840454,221.45285987854004,221.45527863502502,221.4671995639801,221.61722326278687,221.61722326278687,221.61722326278687,221.61722326278687,221.61722326278687,221.61722326278687,221.61722326278687,224.18505930900574,2,2.7085211277008057,None,,,,,,,,,,,,,,,,,,88,3,2025-02-24_10h58.43.017,comp,2024.2.4,60.102283979187824,2025-02-24 10h58.54.250690 -0500,
36,36,0,critical,hwd,20.0,1.0,upper,200.0,125.0,125.0,200.0,141.0,141.0,1,3.4788150787353516,None,,,,,0,0,0,0,0,36,36,103,224.20064115524292,,,,,,,,,,,,,,,,,,,,,,,,,,,,,,,,,,,,,,,,,,,,,,,,,,,,,,,,,,,,,,,,,,,,,,,,,,,,,,,,,200.0,125.0,125.0,200.0,141.0,141.0,1.0,1.2,-258,-4,0,-1,266,-13,224.18584442138672,224.185884475708,224.18803477287292,224.20064115524292,224.35100769996643,224.35100769996643,224.35100769996643,224.35100769996643,224.35100769996643,224.35100769996643,224.35100769996643,227.68531322479248,1,3.4788150787353516,None,,,,,,,,,,,,,,,,,,88,3,2025-02-24_10h58.43.017,comp,2024.2.4,60.102283979187824,2025-02-24 10h58.54.250690 -0500,
37,37,0,critical,hdw,35.0,2.1,upper,200.0,125.0,127.0,127.0,125.0,200.0,1,2.369664430618286,None,,,,,0,0,0,0,0,37,37,45,227.70101380348206,,,,,,,,,,,,,,,,,,,,,,,,,,,,,,,,,,,,,,,,,,,,,,,,,,,,,,,,,,,,,,,,,,,,,,,,,,,,,,,,,200.0,125.0,127.0,127.0,125.0,200.0,2.1,2.11,-222,267,0,253,260,-281,227.68609595298767,227.68613505363464,227.68834328651428,227.70101380348206,227.85090279579163,227.85090279579163,227.85090279579163,227.85090279579163,227.85090279579163,227.85090279579163,227.85090279579163,230.0851058959961,1,2.369664430618286,None,,,,,,,,,,,,,,,,,,88,3,2025-02-24_10h58.43.017,comp,2024.2.4,60.102283979187824,2025-02-24 10h58.54.250690 -0500,
38,38,0,critical,dhw,35.0,2.1,lower,70.0,70.0,133.0,57.0,57.0,133.0,2,3.250657796859741,None,,,,,0,0,0,0,0,38,38,0,230.10039281845093,,,,,,,,,,,,,,,,,,,,,,,,,,,,,,,,,,,,,,,,,,,,,,,,,,,,,,,,,,,,,,,,,,,,,,,,,,,,,,,,,70.0,70.0,133.0,57.0,57.0,133.0,2.1,2.11,-160,284,0,282,191,-290,230.0859124660492,230.08595299720764,230.08845138549805,230.10039281845093,230.2504858970642,230.2504858970642,230.2504858970642,230.2504858970642,230.2504858970642,230.2504858970642,230.2504858970642,233.36824297904968,2,3.250657796859741,None,,,,,,,,,,,,,,,,,,88,3,2025-02-24_10h58.43.017,comp,2024.2.4,60.102283979187824,2025-02-24 10h58.54.250690 -0500,
39,39,0,filler_square,None,None,None,None,None,None,None,None,None,None,1,2.4079997539520264,None,,,,,0,0,0,0,0,39,39,173,233.38374996185303,,,,,,,,,,,,,,,,,,,,,,,,,,,,,,,,,,,,,,,,,,,,,,,,,,,,,,,,,,,,,,,,,,,,,,,,,,,,,,,,,125.7119509851264,125.7119509851264,97.3358920726503,71.95108592425753,102.9616763248483,106.23978901116804,4.0,4.2,-195,-11,0,-290,185,-9,233.36920738220215,233.3692491054535,233.37162327766418,233.38374996185303,233.53398752212524,233.53398752212524,233.53398752212524,233.53398752212524,233.53398752212524,233.53398752212524,233.53398752212524,235.80172967910767,1,2.4079997539520264,None,,,,,,,,,,,,,,,,,,88,3,2025-02-24_10h58.43.017,comp,2024.2.4,60.102283979187824,2025-02-24 10h58.54.250690 -0500,
40,40,0,filler_random,None,None,None,None,None,None,None,None,None,None,1,1.47810959815979,None,,,,,0,0,0,0,0,40,40,151,235.8173348903656,,,,,,,,,,,,,,,,,,,,,,,,,,,,,,,,,,,,,,,,,,,,,,,,,,,,,,,,,,,,,,,,,,,,,,,,,,,,,,,,,107.75345540853054,189.7253119041449,66.6883060939688,169.59887591175692,70.38563514772413,152.8648943536529,3.0,3.1,-276,267,0,-1,257,-256,235.80263233184814,235.8026740550995,235.80480074882507,235.8173348903656,235.96735548973083,235.96735548973083,235.96735548973083,235.96735548973083,235.96735548973083,235.96735548973083,235.96735548973083,237.30184483528137,1,1.47810959815979,None,,,,,,,,,,,,,,,,,,88,3,2025-02-24_10h58.43.017,comp,2024.2.4,60.102283979187824,2025-02-24 10h58.54.250690 -0500,
41,41,0,critical,hwd,35.0,3.0,upper,200.0,125.0,125.0,200.0,127.0,127.0,2,2.2266573905944824,None,,,,,0,0,0,0,0,41,41,99,237.31731128692627,,,,,,,,,,,,,,,,,,,,,,,,,,,,,,,,,,,,,,,,,,,,,,,,,,,,,,,,,,,,,,,,,,,,,,,,,,,,,,,,,200.0,125.0,125.0,200.0,127.0,127.0,3.0,3.2,-258,-263,0,8,260,268,237.30266284942627,237.3027048110962,237.305415391922,237.31731128692627,237.4674415588379,237.4674415588379,237.4674415588379,237.4674415588379,237.4674415588379,237.4674415588379,237.4674415588379,239.55204224586487,2,2.2266573905944824,None,,,,,,,,,,,,,,,,,,88,3,2025-02-24_10h58.43.017,comp,2024.2.4,60.102283979187824,2025-02-24 10h58.54.250690 -0500,
42,42,0,filler_square,None,None,None,None,None,None,None,None,None,None,1,1.135389804840088,None,,,,,0,0,0,0,0,42,42,201,239.56733989715576,,,,,,,,,,,,,,,,,,,,,,,,,,,,,,,,,,,,,,,,,,,,,,,,,,,,,,,,,,,,,,,,,,,,,,,,,,,,,,,,,191.17243827084638,191.17243827084638,57.98002938859168,123.79044915317753,167.2399991790062,99.08602420515003,1.0,1.2,-253,-11,0,18,207,4,239.55297446250916,239.55301570892334,239.55507826805115,239.56733989715576,239.7173192501068,239.7173192501068,239.7173192501068,239.7173192501068,239.7173192501068,239.7173192501068,239.7173192501068,240.7185034751892,1,1.135389804840088,None,,,,,,,,,,,,,,,,,,88,3,2025-02-24_10h58.43.017,comp,2024.2.4,60.102283979187824,2025-02-24 10h58.54.250690 -0500,
43,43,0,critical,hdw,35.0,1.0,lower,133.0,57.0,70.0,70.0,57.0,133.0,3,3.2171707153320312,None,,,,,0,0,0,0,0,43,43,108,240.7337520122528,,,,,,,,,,,,,,,,,,,,,,,,,,,,,,,,,,,,,,,,,,,,,,,,,,,,,,,,,,,,,,,,,,,,,,,,,,,,,,,,,133.0,57.0,70.0,70.0,57.0,133.0,1.0,1.2,-160,-19,0,-9,198,-5,240.71928310394287,240.719322681427,240.72219252586365,240.7337520122528,240.88423943519592,240.88423943519592,240.88423943519592,240.88423943519592,240.88423943519592,240.88423943519592,240.88423943519592,243.9680938720703,3,3.2171707153320312,None,,,,,,,,,,,,,,,,,,88,3,2025-02-24_10h58.43.017,comp,2024.2.4,60.102283979187824,2025-02-24 10h58.54.250690 -0500,
44,44,0,filler_random,None,None,None,None,None,None,None,None,None,None,1,1.703474760055542,None,,,,,0,0,0,0,0,44,44,160,243.98360991477966,,,,,,,,,,,,,,,,,,,,,,,,,,,,,,,,,,,,,,,,,,,,,,,,,,,,,,,,,,,,,,,,,,,,,,,,,,,,,,,,,173.96824272071865,172.38786456739223,104.40472676123662,84.58303808521248,90.29739778670753,111.44432034928462,2.2,2.21,-224,-275,0,270,194,275,243.968998670578,243.96903729438782,243.971595287323,243.98360991477966,244.13399839401245,244.13399839401245,244.13399839401245,244.13399839401245,244.13399839401245,244.13399839401245,244.13399839401245,245.70228219032288,1,1.703474760055542,None,,,,,,,,,,,,,,,,,,88,3,2025-02-24_10h58.43.017,comp,2024.2.4,60.102283979187824,2025-02-24 10h58.54.250690 -0500,
45,45,0,filler_random,None,None,None,None,None,None,None,None,None,None,2,2.505281686782837,None,,,,,0,0,0,0,0,45,45,156,245.71711015701294,,,,,,,,,,,,,,,,,,,,,,,,,,,,,,,,,,,,,,,,,,,,,,,,,,,,,,,,,,,,,,,,,,,,,,,,,,,,,,,,,89.55580866618475,57.27875786754119,197.44237211932253,139.60800444397472,86.62117229742327,124.97192711176464,2.2,2.21,-194,-290,0,284,228,277,245.70318245887756,245.70322370529175,245.7053701877594,245.71711015701294,245.86732268333435,245.86732268333435,245.86732268333435,245.86732268333435,245.86732268333435,245.86732268333435,245.86732268333435,248.23508548736572,2,2.505281686782837,None,,,,,,,,,,,,,,,,,,88,3,2025-02-24_10h58.43.017,comp,2024.2.4,60.102283979187824,2025-02-24 10h58.54.250690 -0500,
46,46,0,catch,None,None,None,None,None,None,None,None,None,None,3,1.6202270984649658,None,,,,,0,0,0,0,0,46,46,129,248.25033259391785,,,,,,,,,,,,,,,,,,,,,,,,,,,,,,,,,,,,,,,,,,,,,,,,,,,,,,,,,,,,,,,,,,,,,,,,,,,,,,,,,110,80,129,61,145,180,2.2,2.22,-166,270,0,-256,216,-260,248.23612451553345,248.23616576194763,248.23864078521729,248.25033259391785,248.4004955291748,248.4004955291748,248.4004955291748,248.4004955291748,248.4004955291748,248.4004955291748,248.4004955291748,249.88501071929932,3,1.6202270984649658,None,,,,,,,,,,,,,,,,,,88,3,2025-02-24_10h58.43.017,comp,2024.2.4,60.102283979187824,2025-02-24 10h58.54.250690 -0500,
47,47,0,critical,whd,35.0,2.1,lower,57.0,133.0,133.0,57.0,70.0,70.0,1,3.259113073348999,None,,,,,0,0,0,0,0,47,47,12,249.9002628326416,,,,,,,,,,,,,,,,,,,,,,,,,,,,,,,,,,,,,,,,,,,,,,,,,,,,,,,,,,,,,,,,,,,,,,,,,,,,,,,,,57.0,133.0,133.0,57.0,70.0,70.0,2.1,2.12,-191,-289,0,-268,160,255,249.88578987121582,249.8858299255371,249.88792490959167,249.9002628326416,250.0508258342743,250.0508258342743,250.0508258342743,250.0508258342743,250.0508258342743,250.0508258342743,250.0508258342743,253.16818356513977,1,3.259113073348999,None,,,,,,,,,,,,,,,,,,88,3,2025-02-24_10h58.43.017,comp,2024.2.4,60.102283979187824,2025-02-24 10h58.54.250690 -0500,
48,48,0,filler_square,None,None,None,None,None,None,None,None,None,None,1,1.1504788398742676,None,,,,,0,0,0,0,0,48,48,197,253.1839656829834,,,,,,,,,,,,,,,,,,,,,,,,,,,,,,,,,,,,,,,,,,,,,,,,,,,,,,,,,,,,,,,,,,,,,,,,,,,,,,,,,138.8107894242927,138.8107894242927,58.81190738352299,88.98991238896929,75.7313944549194,84.03681534628745,4.0,4.2,-210,-13,0,-261,183,-13,253.1691448688507,253.16918659210205,253.1712362766266,253.1839656829834,253.33384323120117,253.33384323120117,253.33384323120117,253.33384323120117,253.33384323120117,253.33384323120117,253.33384323120117,254.35137009620667,1,1.1504788398742676,None,,,,,,,,,,,,,,,,,,88,3,2025-02-24_10h58.43.017,comp,2024.2.4,60.102283979187824,2025-02-24 10h58.54.250690 -0500,
49,49,0,filler_random,None,None,None,None,None,None,None,None,None,None,2,2.335557699203491,None,,,,,0,0,0,0,0,49,49,146,254.36693286895752,,,,,,,,,,,,,,,,,,,,,,,,,,,,,,,,,,,,,,,,,,,,,,,,,,,,,,,,,,,,,,,,,,,,,,,,,,,,,,,,,76.54700733851905,69.79295605623544,57.008511594394626,195.02401907432645,151.048344676218,67.69965358304466,2.2,2.22,-228,263,0,-282,227,-278,254.35231351852417,254.35235333442688,254.3546552658081,254.36693286895752,254.5170886516571,254.5170886516571,254.5170886516571,254.5170886516571,254.5170886516571,254.5170886516571,254.5170886516571,256.71814346313477,2,2.335557699203491,None,,,,,,,,,,,,,,,,,,88,3,2025-02-24_10h58.43.017,comp,2024.2.4,60.102283979187824,2025-02-24 10h58.54.250690 -0500,
50,50,0,filler_random,None,None,None,None,None,None,None,None,None,None,1,2.345437526702881,None,,,,,0,0,0,0,0,50,50,139,256.7337086200714,,,,,,,,,,,,,,,,,,,,,,,,,,,,,,,,,,,,,,,,,,,,,,,,,,,,,,,,,,,,,,,,,,,,,,,,,,,,,,,,,106.67682270119126,137.58404245020978,89.0470592560587,64.77605591006626,95.47305953630264,102.33794712682212,1.0,1.1,-677,269,-480,252,-300,277,256.7190511226654,256.71909379959106,256.7217218875885,256.7337086200714,256.8837192058563,256.8837192058563,256.8837192058563,256.8837192058563,256.8837192058563,256.8837192058563,256.8837192058563,259.0848743915558,1,2.345437526702881,None,,,,,,,,,,,,,,,,,,88,3,2025-02-24_10h58.43.017,comp,2024.2.4,60.102283979187824,2025-02-24 10h58.54.250690 -0500,
51,51,0,critical,wdh,20.0,4.0,upper,125.0,200.0,141.0,141.0,200.0,125.0,3,3.4507672786712646,None,,,,,0,0,0,0,0,51,51,83,259.1004889011383,,,,,,,,,,,,,,,,,,,,,,,,,,,,,,,,,,,,,,,,,,,,,,,,,,,,,,,,,,,,,,,,,,,,,,,,,,,,,,,,,125.0,200.0,141.0,141.0,200.0,125.0,4.0,4.1,-266,-283,0,18,229,-261,259.08561396598816,259.085652589798,259.0880219936371,259.1004889011383,259.25058102607727,259.25058102607727,259.25058102607727,259.25058102607727,259.25058102607727,259.25058102607727,259.25058102607727,262.56837153434753,3,3.4507672786712646,None,,,,,,,,,,,,,,,,,,88,3,2025-02-24_10h58.43.017,comp,2024.2.4,60.102283979187824,2025-02-24 10h58.54.250690 -0500,
52,52,0,critical,hdw,35.0,2.1,lower,133.0,57.0,70.0,70.0,57.0,133.0,3,2.9028990268707275,None,,,,,0,0,0,0,0,52,52,20,262.58360028266907,,,,,,,,,,,,,,,,,,,,,,,,,,,,,,,,,,,,,,,,,,,,,,,,,,,,,,,,,,,,,,,,,,,,,,,,,,,,,,,,,133.0,57.0,70.0,70.0,57.0,133.0,2.1,2.11,-160,253,0,266,198,-287,262.5691804885864,262.56922006607056,262.57247710227966,262.58360028266907,262.73376059532166,262.73376059532166,262.73376059532166,262.73376059532166,262.73376059532166,262.73376059532166,262.73376059532166,265.50137209892273,3,2.9028990268707275,None,,,,,,,,,,,,,,,,,,88,3,2025-02-24_10h58.43.017,comp,2024.2.4,60.102283979187824,2025-02-24 10h58.54.250690 -0500,
53,53,0,filler_random,None,None,None,None,None,None,None,None,None,None,2,1.7383084297180176,None,,,,,0,0,0,0,0,53,53,132,265.5167775154114,,,,,,,,,,,,,,,,,,,,,,,,,,,,,,,,,,,,,,,,,,,,,,,,,,,,,,,,,,,,,,,,,,,,,,,,,,,,,,,,,83.50693584659136,95.33754052809655,132.9235329891757,197.15278154629036,60.74828399129845,144.92164183003615,2.1,2.11,-242,259,0,269,267,-289,265.50231289863586,265.50235295295715,265.5046920776367,265.5167775154114,265.6670880317688,265.6670880317688,265.6670880317688,265.6670880317688,265.6670880317688,265.6670880317688,265.6670880317688,267.26817750930786,2,1.7383084297180176,None,,,,,,,,,,,,,,,,,,88,3,2025-02-24_10h58.43.017,comp,2024.2.4,60.102283979187824,2025-02-24 10h58.54.250690 -0500,
54,54,0,catch,None,None,None,None,None,None,None,None,None,None,1,1.907947063446045,None,,,,,0,0,0,0,0,54,54,128,267.28354358673096,,,,,,,,,,,,,,,,,,,,,,,,,,,,,,,,,,,,,,,,,,,,,,,,,,,,,,,,,,,,,,,,,,,,,,,,,,,,,,,,,192,133,111,79,106,84,1.0,1.1,-682,265,-480,252,-302,270,267.2692024707794,267.26924324035645,267.27177906036377,267.28354358673096,267.433798789978,267.433798789978,267.433798789978,267.433798789978,267.433798789978,267.433798789978,267.433798789978,269.2015380859375,1,1.907947063446045,None,,,,,,,,,,,,,,,,,,88,3,2025-02-24_10h58.43.017,comp,2024.2.4,60.102283979187824,2025-02-24 10h58.54.250690 -0500,
55,55,0,critical,dhw,35.0,2.1,upper,127.0,127.0,200.0,125.0,125.0,200.0,2,2.1744003295898438,None,,,,,0,0,0,0,0,55,55,25,269.2171618938446,,,,,,,,,,,,,,,,,,,,,,,,,,,,,,,,,,,,,,,,,,,,,,,,,,,,,,,,,,,,,,,,,,,,,,,,,,,,,,,,,127.0,127.0,200.0,125.0,125.0,200.0,2.1,2.12,-222,-281,0,-282,258,250,269.20233249664307,269.20237278938293,269.2044334411621,269.2171618938446,269.3671977519989,269.3671977519989,269.3671977519989,269.3671977519989,269.3671977519989,269.3671977519989,269.3671977519989,271.4016463756561,2,2.1744003295898438,None,,,,,,,,,,,,,,,,,,88,3,2025-02-24_10h58.43.017,comp,2024.2.4,60.102283979187824,2025-02-24 10h58.54.250690 -0500,
56,56,0,critical,wdh,20.0,1.0,upper,125.0,200.0,141.0,141.0,200.0,125.0,3,2.677952766418457,None,,,,,0,0,0,0,0,56,56,79,271.4171221256256,,,,,,,,,,,,,,,,,,,,,,,,,,,,,,,,,,,,,,,,,,,,,,,,,,,,,,,,,,,,,,,,,,,,,,,,,,,,,,,,,125.0,200.0,141.0,141.0,200.0,125.0,1.0,1.3,214,-267,480,-280,709,-259,271.4024670124054,271.4025068283081,271.40456533432007,271.4171221256256,271.5671298503876,271.5671298503876,271.5671298503876,271.5671298503876,271.5671298503876,271.5671298503876,271.5671298503876,274.10160422325134,3,2.677952766418457,None,,,,,,,,,,,,,,,,,,88,3,2025-02-24_10h58.43.017,comp,2024.2.4,60.102283979187824,2025-02-24 10h58.54.250690 -0500,
57,57,0,critical,hwd,20.0,3.0,upper,200.0,125.0,125.0,200.0,141.0,141.0,2,2.801255702972412,None,,,,,0,0,0,0,0,57,57,105,274.1170151233673,,,,,,,,,,,,,,,,,,,,,,,,,,,,,,,,,,,,,,,,,,,,,,,,,,,,,,,,,,,,,,,,,,,,,,,,,,,,,,,,,200.0,125.0,125.0,200.0,141.0,141.0,3.0,3.1,-258,289,0,4,266,-282,274.1024913787842,274.1025309562683,274.1049790382385,274.1170151233673,274.2671067714691,274.2671067714691,274.2671067714691,274.2671067714691,274.2671067714691,274.2671067714691,274.2671067714691,276.93489599227905,2,2.801255702972412,None,,,,,,,,,,,,,,,,,,88,3,2025-02-24_10h58.43.017,comp,2024.2.4,60.102283979187824,2025-02-24 10h58.54.250690 -0500,
58,58,0,critical,dhw,35.0,2.1,lower,70.0,70.0,133.0,57.0,57.0,133.0,2,2.8007521629333496,None,,,,,0,0,0,0,0,58,58,24,276.95020174980164,,,,,,,,,,,,,,,,,,,,,,,,,,,,,,,,,,,,,,,,,,,,,,,,,,,,,,,,,,,,,,,,,,,,,,,,,,,,,,,,,70.0,70.0,133.0,57.0,57.0,133.0,2.1,2.12,-160,-276,0,-288,191,264,276.9356961250305,276.93573808670044,276.9386305809021,276.95020174980164,277.1003122329712,277.1003122329712,277.1003122329712,277.1003122329712,277.1003122329712,277.1003122329712,277.1003122329712,279.7680678367615,2,2.8007521629333496,None,,,,,,,,,,,,,,,,,,88,3,2025-02-24_10h58.43.017,comp,2024.2.4,60.102283979187824,2025-02-24 10h58.54.250690 -0500,
59,59,0,critical,wdh,35.0,3.0,upper,125.0,200.0,127.0,127.0,200.0,125.0,1,1.9186558723449707,None,,,,,0,0,0,0,0,59,59,75,279.78355646133423,,,,,,,,,,,,,,,,,,,,,,,,,,,,,,,,,,,,,,,,,,,,,,,,,,,,,,,,,,,,,,,,,,,,,,,,,,,,,,,,,125.0,200.0,127.0,127.0,200.0,125.0,3.0,3.1,-260,267,0,-1,222,-260,279.7689094543457,279.76894998550415,279.77149534225464,279.78355646133423,279.93385195732117,279.93385195732117,279.93385195732117,279.93385195732117,279.93385195732117,279.93385195732117,279.93385195732117,281.71806144714355,1,1.9186558723449707,None,,,,,,,,,,,,,,,,,,88,3,2025-02-24_10h58.43.017,comp,2024.2.4,60.102283979187824,2025-02-24 10h58.54.250690 -0500,
60,60,0,filler_square,None,None,None,None,None,None,None,None,None,None,1,2.683241367340088,None,,,,,0,0,0,0,0,60,60,189,281.73343086242676,,,,,,,,,,,,,,,,,,,,,,,,,,,,,,,,,,,,,,,,,,,,,,,,,,,,,,,,,,,,,,,,,,,,,,,,,,,,,,,,,101.78245725550386,101.78245725550386,71.62115655235948,80.48959994266112,83.3318701069692,58.63314729433768,3.0,3.1,-187,273,0,-7,166,-277,281.7189779281616,281.7190172672272,281.7214889526367,281.73343086242676,281.883572101593,281.883572101593,281.883572101593,281.883572101593,281.883572101593,281.883572101593,281.883572101593,284.4181606769562,1,2.683241367340088,None,,,,,,,,,,,,,,,,,,88,3,2025-02-24_10h58.43.017,comp,2024.2.4,60.102283979187824,2025-02-24 10h58.54.250690 -0500,
61,61,0,filler_random,None,None,None,None,None,None,None,None,None,None,2,1.8046298027038574,None,,,,,0,0,0,0,0,61,61,143,284.4336485862732,,,,,,,,,,,,,,,,,,,,,,,,,,,,,,,,,,,,,,,,,,,,,,,,,,,,,,,,,,,,,,,,,,,,,,,,,,,,,,,,,113.75643793213857,104.12996213855725,127.33389212945073,140.67987594924938,172.42394687377578,74.37125746668767,4.0,4.1,-218,-280,0,-12,204,-254,284.4190585613251,284.41909885406494,284.42115354537964,284.4336485862732,284.5836486816406,284.5836486816406,284.5836486816406,284.5836486816406,284.5836486816406,284.5836486816406,284.5836486816406,286.2514820098877,2,1.8046298027038574,None,,,,,,,,,,,,,,,,,,88,3,2025-02-24_10h58.43.017,comp,2024.2.4,60.102283979187824,2025-02-24 10h58.54.250690 -0500,
62,62,0,filler_square,None,None,None,None,None,None,None,None,None,None,2,1.788255214691162,None,,,,,0,0,0,0,0,62,62,208,286.2667098045349,,,,,,,,,,,,,,,,,,,,,,,,,,,,,,,,,,,,,,,,,,,,,,,,,,,,,,,,,,,,,,,,,,,,,,,,,,,,,,,,,74.51797481705361,72.63931780345251,108.63138388137645,90.18578063164699,110.86904608868159,110.86904608868159,2.1,2.11,-177,263,0,289,197,-283,286.2524199485779,286.2524604797363,286.25475883483887,286.2667098045349,286.4168424606323,286.4168424606323,286.4168424606323,286.4168424606323,286.4168424606323,286.4168424606323,286.4168424606323,288.0679304599762,2,1.788255214691162,None,,,,,,,,,,,,,,,,,,88,3,2025-02-24_10h58.43.017,comp,2024.2.4,60.102283979187824,2025-02-24 10h58.54.250690 -0500,
63,63,0,critical,dwh,20.0,2.1,upper,141.0,141.0,125.0,200.0,200.0,125.0,2,3.3801703453063965,None,,,,,0,0,0,0,0,63,63,31,288.0833320617676,,,,,,,,,,,,,,,,,,,,,,,,,,,,,,,,,,,,,,,,,,,,,,,,,,,,,,,,,,,,,,,,,,,,,,,,,,,,,,,,,141.0,141.0,125.0,200.0,200.0,125.0,2.1,2.11,-266,283,0,269,258,-261,288.06867837905884,288.0687162876129,288.0710926055908,288.0833320617676,288.23375630378723,288.23375630378723,288.23375630378723,288.23375630378723,288.23375630378723,288.23375630378723,288.23375630378723,291.46836161613464,2,3.3801703453063965,None,,,,,,,,,,,,,,,,,,88,3,2025-02-24_10h58.43.017,comp,2024.2.4,60.102283979187824,2025-02-24 10h58.54.250690 -0500,
64,64,0,critical,wdh,35.0,4.0,lower,57.0,133.0,70.0,70.0,133.0,57.0,3,3.5001940727233887,None,,,,,0,0,0,0,0,64,64,76,291.48361325263977,,,,,,,,,,,,,,,,,,,,,,,,,,,,,,,,,,,,,,,,,,,,,,,,,,,,,,,,,,,,,,,,,,,,,,,,,,,,,,,,,57.0,133.0,70.0,70.0,133.0,57.0,4.0,4.1,-198,-276,0,19,160,-275,291.4691438674927,291.46918511390686,291.4712586402893,291.48361325263977,291.633517742157,291.633517742157,291.633517742157,291.633517742157,291.633517742157,291.633517742157,291.633517742157,294.9850130081177,3,3.5001940727233887,None,,,,,,,,,,,,,,,,,,88,3,2025-02-24_10h58.43.017,comp,2024.2.4,60.102283979187824,2025-02-24 10h58.54.250690 -0500,
65,65,0,filler_square,None,None,None,None,None,None,None,None,None,None,2,6.463917016983032,None,,,,,0,0,0,0,0,65,65,185,295.00038266181946,,,,,,,,,,,,,,,,,,,,,,,,,,,,,,,,,,,,,,,,,,,,,,,,,,,,,,,,,,,,,,,,,,,,,,,,,,,,,,,,,57.999359751816584,59.37844309719282,65.30735091205628,65.30735091205628,60.842317360532306,59.83604700169877,1.0,1.3,322,-254,480,-260,639,-261,294.9861743450165,294.9862163066864,294.98896408081055,295.00038266181946,295.1504371166229,295.1504371166229,295.1504371166229,295.1504371166229,295.1504371166229,295.1504371166229,295.1504371166229,301.46785020828247,2,6.463917016983032,None,,,,,,,,,,,,,,,,,,88,3,2025-02-24_10h58.43.017,comp,2024.2.4,60.102283979187824,2025-02-24 10h58.54.250690 -0500,
66,66,0,critical,hwd,20.0,3.0,lower,133.0,57.0,57.0,133.0,78.0,78.0,2,2.483543634414673,None,,,,,0,0,0,0,0,66,66,104,301.483514547348,,,,,,,,,,,,,,,,,,,,,,,,,,,,,,,,,,,,,,,,,,,,,,,,,,,,,,,,,,,,,,,,,,,,,,,,,,,,,,,,,133.0,57.0,57.0,133.0,78.0,78.0,3.0,3.1,-191,286,0,10,202,-269,301.46864104270935,301.468683719635,301.471031665802,301.483514547348,301.63343715667725,301.63343715667725,301.63343715667725,301.63343715667725,301.63343715667725,301.63343715667725,301.63343715667725,303.9845712184906,2,2.483543634414673,None,,,,,,,,,,,,,,,,,,88,3,2025-02-24_10h58.43.017,comp,2024.2.4,60.102283979187824,2025-02-24 10h58.54.250690 -0500,
67,67,0,critical,wdh,20.0,2.1,upper,125.0,200.0,141.0,141.0,200.0,125.0,1,2.000479221343994,None,,,,,0,0,0,0,0,67,67,35,304.0000603199005,,,,,,,,,,,,,,,,,,,,,,,,,,,,,,,,,,,,,,,,,,,,,,,,,,,,,,,,,,,,,,,,,,,,,,,,,,,,,,,,,125.0,200.0,141.0,141.0,200.0,125.0,2.1,2.11,-266,276,0,252,229,-280,303.985369682312,303.9854106903076,303.9876763820648,304.0000603199005,304.15033435821533,304.15033435821533,304.15033435821533,304.15033435821533,304.15033435821533,304.15033435821533,304.15033435821533,306.0180633068085,1,2.000479221343994,None,,,,,,,,,,,,,,,,,,88,3,2025-02-24_10h58.43.017,comp,2024.2.4,60.102283979187824,2025-02-24 10h58.54.250690 -0500,
68,68,0,critical,wdh,35.0,4.0,upper,125.0,200.0,127.0,127.0,200.0,125.0,1,1.7830884456634521,None,,,,,0,0,0,0,0,68,68,77,306.0332975387573,,,,,,,,,,,,,,,,,,,,,,,,,,,,,,,,,,,,,,,,,,,,,,,,,,,,,,,,,,,,,,,,,,,,,,,,,,,,,,,,,125.0,200.0,127.0,127.0,200.0,125.0,4.0,4.2,-260,-3,0,-277,222,8,306.01882123947144,306.018860578537,306.02130484580994,306.0332975387573,306.1835608482361,306.1835608482361,306.1835608482361,306.1835608482361,306.1835608482361,306.1835608482361,306.1835608482361,307.81829476356506,1,1.7830884456634521,None,,,,,,,,,,,,,,,,,,88,3,2025-02-24_10h58.43.017,comp,2024.2.4,60.102283979187824,2025-02-24 10h58.54.250690 -0500,
69,69,0,critical,hwd,35.0,3.0,lower,133.0,57.0,57.0,133.0,70.0,70.0,2,2.8365399837493896,None,,,,,0,0,0,0,0,69,69,98,307.83361315727234,,,,,,,,,,,,,,,,,,,,,,,,,,,,,,,,,,,,,,,,,,,,,,,,,,,,,,,,,,,,,,,,,,,,,,,,,,,,,,,,,133.0,57.0,57.0,133.0,70.0,70.0,3.0,3.1,-191,285,0,-7,198,-257,307.81903052330017,307.8190698623657,307.82134556770325,307.83361315727234,307.98370909690857,307.98370909690857,307.98370909690857,307.98370909690857,307.98370909690857,307.98370909690857,307.98370909690857,310.68449664115906,2,2.8365399837493896,None,,,,,,,,,,,,,,,,,,88,3,2025-02-24_10h58.43.017,comp,2024.2.4,60.102283979187824,2025-02-24 10h58.54.250690 -0500,
70,70,0,catch,None,None,None,None,None,None,None,None,None,None,1,1.475005865097046,None,,,,,0,0,0,0,0,70,70,122,310.6999397277832,,,,,,,,,,,,,,,,,,,,,,,,,,,,,,,,,,,,,,,,,,,,,,,,,,,,,,,,,,,,,,,,,,,,,,,,,,,,,,,,,163,162,109,81,95,95,2.1,2.11,-218,282,0,277,184,-284,310.6855194568634,310.68556022644043,310.6879074573517,310.6999397277832,310.850159406662,310.850159406662,310.850159406662,310.850159406662,310.850159406662,310.850159406662,310.850159406662,312.18454003334045,1,1.475005865097046,None,,,,,,,,,,,,,,,,,,88,3,2025-02-24_10h58.43.017,comp,2024.2.4,60.102283979187824,2025-02-24 10h58.54.250690 -0500,
71,71,0,critical,hwd,35.0,2.1,lower,133.0,57.0,57.0,133.0,70.0,70.0,2,1.886343002319336,None,,,,,0,0,0,0,0,71,71,16,312.20012307167053,,,,,,,,,,,,,,,,,,,,,,,,,,,,,,,,,,,,,,,,,,,,,,,,,,,,,,,,,,,,,,,,,,,,,,,,,,,,,,,,,133.0,57.0,57.0,133.0,70.0,70.0,2.1,2.11,-191,285,0,265,198,-274,312.1853115558624,312.18535327911377,312.1876780986786,312.20012307167053,312.35003304481506,312.35003304481506,312.35003304481506,312.35003304481506,312.35003304481506,312.35003304481506,312.35003304481506,314.1011555194855,2,1.886343002319336,None,,,,,,,,,,,,,,,,,,88,3,2025-02-24_10h58.43.017,comp,2024.2.4,60.102283979187824,2025-02-24 10h58.54.250690 -0500,
72,72,0,filler_random,None,None,None,None,None,None,None,None,None,None,1,3.8014063835144043,None,,,,,0,0,0,0,0,72,72,155,314.1165735721588,,,,,,,,,,,,,,,,,,,,,,,,,,,,,,,,,,,,,,,,,,,,,,,,,,,,,,,,,,,,,,,,,,,,,,,,,,,,,,,,,149.70141867469817,199.80168992801137,155.57713511790402,168.72727099040608,150.7105087906408,195.75775988729927,2.2,2.22,-280,254,0,-267,278,-259,314.10204124450684,314.10208082199097,314.10454988479614,314.1165735721588,314.26702904701233,314.26702904701233,314.26702904701233,314.26702904701233,314.26702904701233,314.26702904701233,314.26702904701233,317.9347162246704,1,3.8014063835144043,None,,,,,,,,,,,,,,,,,,88,3,2025-02-24_10h58.43.017,comp,2024.2.4,60.102283979187824,2025-02-24 10h58.54.250690 -0500,
73,73,0,filler_square,None,None,None,None,None,None,None,None,None,None,3,2.560920238494873,None,,,,,0,0,0,0,0,73,73,177,317.94986748695374,,,,,,,,,,,,,,,,,,,,,,,,,,,,,,,,,,,,,,,,,,,,,,,,,,,,,,,,,,,,,,,,,,,,,,,,,,,,,,,,,65.2934265595446,105.96535275415513,117.91677918992727,70.81015407348188,118.73509114155367,118.73509114155367,4.0,4.1,-184,-255,0,0,191,-279,317.93563890457153,317.93567752838135,317.93794655799866,317.94986748695374,318.09991812705994,318.09991812705994,318.09991812705994,318.09991812705994,318.09991812705994,318.09991812705994,318.09991812705994,320.517774105072,3,2.560920238494873,None,,,,,,,,,,,,,,,,,,88,3,2025-02-24_10h58.43.017,comp,2024.2.4,60.102283979187824,2025-02-24 10h58.54.250690 -0500,
74,74,0,filler_square,None,None,None,None,None,None,None,None,None,None,1,3.2993242740631104,None,,,,,0,0,0,0,0,74,74,172,320.53356528282166,,,,,,,,,,,,,,,,,,,,,,,,,,,,,,,,,,,,,,,,,,,,,,,,,,,,,,,,,,,,,,,,,,,,,,,,,,,,,,,,,177.40583319817418,177.40583319817418,171.01350096320346,120.85530823799161,134.02233562126395,168.03917851686143,1.0,1.1,-725,262,-480,268,-240,262,320.5187120437622,320.51875352859497,320.5210642814636,320.53356528282166,320.68356823921204,320.68356823921204,320.68356823921204,320.68356823921204,320.68356823921204,320.68356823921204,320.68356823921204,323.8512246608734,1,3.2993242740631104,None,,,,,,,,,,,,,,,,,,88,3,2025-02-24_10h58.43.017,comp,2024.2.4,60.102283979187824,2025-02-24 10h58.54.250690 -0500,
75,75,0,filler_random,None,None,None,None,None,None,None,None,None,None,3,2.492284059524536,None,,,,,0,0,0,0,0,75,75,165,323.8664491176605,,,,,,,,,,,,,,,,,,,,,,,,,,,,,,,,,,,,,,,,,,,,,,,,,,,,,,,,,,,,,,,,,,,,,,,,,,,,,,,,,75.92657372866105,116.63607066585809,57.550204170832544,156.92979165553294,134.91456638725697,151.20461406924062,1.0,1.2,-233,-6,0,-13,250,2,323.85208225250244,323.85212206840515,323.85406970977783,323.8664491176605,324.0169496536255,324.0169496536255,324.0169496536255,324.0169496536255,324.0169496536255,324.0169496536255,324.0169496536255,326.36768794059753,3,2.492284059524536,None,,,,,,,,,,,,,,,,,,88,3,2025-02-24_10h58.43.017,comp,2024.2.4,60.102283979187824,2025-02-24 10h58.54.250690 -0500,
76,76,0,critical,hwd,35.0,2.1,lower,133.0,57.0,57.0,133.0,70.0,70.0,2,2.5671446323394775,None,,,,,0,0,0,0,0,76,76,40,326.3833427429199,,,,,,,,,,,,,,,,,,,,,,,,,,,,,,,,,,,,,,,,,,,,,,,,,,,,,,,,,,,,,,,,,,,,,,,,,,,,,,,,,133.0,57.0,57.0,133.0,70.0,70.0,2.1,2.12,-191,-275,0,-269,198,254,326.3684992790222,326.368540763855,326.37087082862854,326.3833427429199,326.53326320648193,326.53326320648193,326.53326320648193,326.53326320648193,326.53326320648193,326.53326320648193,326.53326320648193,328.96771025657654,2,2.5671446323394775,None,,,,,,,,,,,,,,,,,,88,3,2025-02-24_10h58.43.017,comp,2024.2.4,60.102283979187824,2025-02-24 10h58.54.250690 -0500,
77,77,0,filler_square,None,None,None,None,None,None,None,None,None,None,2,1.433572769165039,None,,,,,0,0,0,0,0,77,77,193,328.98312878608704,,,,,,,,,,,,,,,,,,,,,,,,,,,,,,,,,,,,,,,,,,,,,,,,,,,,,,,,,,,,,,,,,,,,,,,,,,,,,,,,,105.59263919451521,127.42798537198595,186.02993627133242,186.02993627133242,107.45654564761517,170.29684503817117,4.0,4.2,-253,-8,0,-264,274,20,328.96865677833557,328.9686975479126,328.97109603881836,328.98312878608704,329.13336873054504,329.13336873054504,329.13336873054504,329.13336873054504,329.13336873054504,329.13336873054504,329.13336873054504,330.41806650161743,2,1.433572769165039,None,,,,,,,,,,,,,,,,,,88,3,2025-02-24_10h58.43.017,comp,2024.2.4,60.102283979187824,2025-02-24 10h58.54.250690 -0500,
78,78,0,critical,hdw,35.0,3.0,upper,200.0,125.0,127.0,127.0,125.0,200.0,3,2.6687145233154297,None,,,,,0,0,0,0,0,78,78,111,330.43333673477173,,,,,,,,,,,,,,,,,,,,,,,,,,,,,,,,,,,,,,,,,,,,,,,,,,,,,,,,,,,,,,,,,,,,,,,,,,,,,,,,,200.0,125.0,127.0,127.0,125.0,200.0,3.0,3.2,-222,-284,0,11,260,283,330.4188618659973,330.4189031124115,330.4213900566101,330.43333673477173,330.5835015773773,330.5835015773773,330.5835015773773,330.5835015773773,330.5835015773773,330.5835015773773,330.5835015773773,333.11781334877014,3,2.6687145233154297,None,,,,,,,,,,,,,,,,,,88,3,2025-02-24_10h58.43.017,comp,2024.2.4,60.102283979187824,2025-02-24 10h58.54.250690 -0500,
79,79,0,critical,dwh,20.0,4.0,upper,141.0,141.0,125.0,200.0,200.0,125.0,2,2.434136152267456,None,,,,,0,0,0,0,0,79,79,71,333.13310384750366,,,,,,,,,,,,,,,,,,,,,,,,,,,,,,,,,,,,,,,,,,,,,,,,,,,,,,,,,,,,,,,,,,,,,,,,,,,,,,,,,141.0,141.0,125.0,200.0,200.0,125.0,4.0,4.1,-266,-287,0,-20,258,-286,333.1186192035675,333.1186592578888,333.1210367679596,333.13310384750366,333.283536195755,333.283536195755,333.283536195755,333.283536195755,333.283536195755,333.283536195755,333.283536195755,335.5846562385559,2,2.434136152267456,None,,,,,,,,,,,,,,,,,,88,3,2025-02-24_10h58.43.017,comp,2024.2.4,60.102283979187824,2025-02-24 10h58.54.250690 -0500,
80,80,0,catch,None,None,None,None,None,None,None,None,None,None,2,0.9672760963439941,None,,,,,0,0,0,0,0,80,80,123,335.59981203079224,,,,,,,,,,,,,,,,,,,,,,,,,,,,,,,,,,,,,,,,,,,,,,,,,,,,,,,,,,,,,,,,,,,,,,,,,,,,,,,,,96,94,131,194,131,59,1.0,1.2,-240,14,0,18,222,-11,335.5856578350067,335.58569836616516,335.58798837661743,335.59981203079224,335.7499418258667,335.7499418258667,335.7499418258667,335.7499418258667,335.7499418258667,335.7499418258667,335.7499418258667,336.5684726238251,2,0.9672760963439941,None,,,,,,,,,,,,,,,,,,88,3,2025-02-24_10h58.43.017,comp,2024.2.4,60.102283979187824,2025-02-24 10h58.54.250690 -0500,
81,81,0,critical,hdw,20.0,2.1,upper,200.0,125.0,141.0,141.0,125.0,200.0,1,3.3506407737731934,None,,,,,0,0,0,0,0,81,81,23,336.5833878517151,,,,,,,,,,,,,,,,,,,,,,,,,,,,,,,,,,,,,,,,,,,,,,,,,,,,,,,,,,,,,,,,,,,,,,,,,,,,,,,,,200.0,125.0,141.0,141.0,125.0,200.0,2.1,2.12,-229,-278,0,-273,266,275,336.5694246292114,336.5694661140442,336.57162404060364,336.5833878517151,336.7335002422333,336.7335002422333,336.7335002422333,336.7335002422333,336.7335002422333,336.7335002422333,336.7335002422333,339.95122838020325,1,3.3506407737731934,None,,,,,,,,,,,,,,,,,,88,3,2025-02-24_10h58.43.017,comp,2024.2.4,60.102283979187824,2025-02-24 10h58.54.250690 -0500,
82,82,0,critical,dhw,35.0,1.0,upper,127.0,127.0,200.0,125.0,125.0,200.0,2,1.61739182472229,None,,,,,0,0,0,0,0,82,82,49,339.96642661094666,,,,,,,,,,,,,,,,,,,,,,,,,,,,,,,,,,,,,,,,,,,,,,,,,,,,,,,,,,,,,,,,,,,,,,,,,,,,,,,,,127.0,127.0,200.0,125.0,125.0,200.0,1.0,1.1,-702,282,-480,254,-222,261,339.95205450057983,339.95209431648254,339.95460271835327,339.96642661094666,340.11657786369324,340.11657786369324,340.11657786369324,340.11657786369324,340.11657786369324,340.11657786369324,340.11657786369324,341.60107922554016,2,1.61739182472229,None,,,,,,,,,,,,,,,,,,88,3,2025-02-24_10h58.43.017,comp,2024.2.4,60.102283979187824,2025-02-24 10h58.54.250690 -0500,
83,83,0,critical,dhw,20.0,3.0,upper,141.0,141.0,200.0,125.0,125.0,200.0,2,2.2000529766082764,None,,,,,0,0,0,0,0,83,83,57,341.6163399219513,,,,,,,,,,,,,,,,,,,,,,,,,,,,,,,,,,,,,,,,,,,,,,,,,,,,,,,,,,,,,,,,,,,,,,,,,,,,,,,,,141.0,141.0,200.0,125.0,125.0,200.0,3.0,3.2,-229,-260,0,14,258,258,341.6018660068512,341.6019055843353,341.60439586639404,341.6163399219513,341.7666552066803,341.7666552066803,341.7666552066803,341.7666552066803,341.7666552066803,341.7666552066803,341.7666552066803,343.8182363510132,2,2.2000529766082764,None,,,,,,,,,,,,,,,,,,88,3,2025-02-24_10h58.43.017,comp,2024.2.4,60.102283979187824,2025-02-24 10h58.54.250690 -0500,
84,84,0,filler_random,None,None,None,None,None,None,None,None,None,None,3,2.4526755809783936,None,,,,,0,0,0,0,0,84,84,154,343.8333501815796,,,,,,,,,,,,,,,,,,,,,,,,,,,,,,,,,,,,,,,,,,,,,,,,,,,,,,,,,,,,,,,,,,,,,,,,,,,,,,,,,75.10852177379337,140.58260717213076,70.05237322029335,74.07804207966254,184.481615602047,107.55975576098285,2.1,2.11,-203,290,0,259,187,-283,343.8191328048706,343.81917548179626,343.82168531417847,343.8333501815796,343.9832031726837,343.9832031726837,343.9832031726837,343.9832031726837,343.9832031726837,343.9832031726837,343.9832031726837,346.3009958267212,3,2.4526755809783936,None,,,,,,,,,,,,,,,,,,88,3,2025-02-24_10h58.43.017,comp,2024.2.4,60.102283979187824,2025-02-24 10h58.54.250690 -0500,
85,85,0,critical,hwd,20.0,4.0,lower,133.0,57.0,57.0,133.0,78.0,78.0,2,2.474536180496216,None,,,,,0,0,0,0,0,85,85,106,346.31633138656616,,,,,,,,,,,,,,,,,,,,,,,,,,,,,,,,,,,,,,,,,,,,,,,,,,,,,,,,,,,,,,,,,,,,,,,,,,,,,,,,,133.0,57.0,57.0,133.0,78.0,78.0,4.0,4.1,-191,-280,0,15,202,-257,346.3017795085907,346.3018202781677,346.30425333976746,346.31633138656616,346.46685218811035,346.46685218811035,346.46685218811035,346.46685218811035,346.46685218811035,346.46685218811035,346.46685218811035,348.8008213043213,2,2.474536180496216,None,,,,,,,,,,,,,,,,,,88,3,2025-02-24_10h58.43.017,comp,2024.2.4,60.102283979187824,2025-02-24 10h58.54.250690 -0500,
86,86,0,filler_square,None,None,None,None,None,None,None,None,None,None,1,2.0313942432403564,None,,,,,0,0,0,0,0,86,86,200,348.816593170166,,,,,,,,,,,,,,,,,,,,,,,,,,,,,,,,,,,,,,,,,,,,,,,,,,,,,,,,,,,,,,,,,,,,,,,,,,,,,,,,,173.1939566963475,173.1939566963475,69.73168769671045,110.14093927960022,165.03808206625393,68.18167224505797,3.0,3.2,-238,-282,0,-10,185,274,348.80180525779724,348.8018465042114,348.8044729232788,348.816593170166,348.96652030944824,348.96652030944824,348.96652030944824,348.96652030944824,348.96652030944824,348.96652030944824,348.96652030944824,350.85111474990845,1,2.0313942432403564,None,,,,,,,,,,,,,,,,,,88,3,2025-02-24_10h58.43.017,comp,2024.2.4,60.102283979187824,2025-02-24 10h58.54.250690 -0500,
87,87,0,catch,None,None,None,None,None,None,None,None,None,None,2,1.1712672710418701,None,,,,,0,0,0,0,0,87,87,124,350.86654806137085,,,,,,,,,,,,,,,,,,,,,,,,,,,,,,,,,,,,,,,,,,,,,,,,,,,,,,,,,,,,,,,,,,,,,,,,,,,,,,,,,119,71,187,138,63,127,2.2,2.21,-200,-286,0,260,228,254,350.8521378040314,350.8521795272827,350.8543481826782,350.86654806137085,351.01645588874817,351.01645588874817,351.01645588874817,351.01645588874817,351.01645588874817,351.01645588874817,351.01645588874817,352.0509510040283,2,1.1712672710418701,None,,,,,,,,,,,,,,,,,,88,3,2025-02-24_10h58.43.017,comp,2024.2.4,60.102283979187824,2025-02-24 10h58.54.250690 -0500,
88,88,0,filler_random,None,None,None,None,None,None,None,None,None,None,2,1.5818004608154297,None,,,,,0,0,0,0,0,88,88,141,352.0662546157837,,,,,,,,,,,,,,,,,,,,,,,,,,,,,,,,,,,,,,,,,,,,,,,,,,,,,,,,,,,,,,,,,,,,,,,,,,,,,,,,,114.38631603322008,94.91843284146685,117.2448135486309,189.57475019539754,108.8416886422684,164.0205375837932,2.2,2.22,-238,260,0,-269,273,-260,352.05184268951416,352.05188250541687,352.05432295799255,352.0662546157837,352.2168724536896,352.2168724536896,352.2168724536896,352.2168724536896,352.2168724536896,352.2168724536896,352.2168724536896,353.65109062194824,2,1.5818004608154297,None,,,,,,,,,,,,,,,,,,88,3,2025-02-24_10h58.43.017,comp,2024.2.4,60.102283979187824,2025-02-24 10h58.54.250690 -0500,
89,89,0,critical,dwh,35.0,2.1,upper,127.0,127.0,125.0,200.0,200.0,125.0,2,1.5879623889923096,None,,,,,0,0,0,0,0,89,89,5,353.66650891304016,,,,,,,,,,,,,,,,,,,,,,,,,,,,,,,,,,,,,,,,,,,,,,,,,,,,,,,,,,,,,,,,,,,,,,,,,,,,,,,,,127.0,127.0,125.0,200.0,200.0,125.0,2.1,2.11,-260,284,0,275,258,-276,353.6519148349762,353.65195536613464,353.6540174484253,353.66650891304016,353.8165605068207,353.8165605068207,353.8165605068207,353.8165605068207,353.8165605068207,353.8165605068207,353.8165605068207,355.2677221298218,2,1.5879623889923096,None,,,,,,,,,,,,,,,,,,88,3,2025-02-24_10h58.43.017,comp,2024.2.4,60.102283979187824,2025-02-24 10h58.54.250690 -0500,
90,90,0,filler_square,None,None,None,None,None,None,None,None,None,None,1,1.9226469993591309,None,,,,,0,0,0,0,0,90,90,204,355.282954454422,,,,,,,,,,,,,,,,,,,,,,,,,,,,,,,,,,,,,,,,,,,,,,,,,,,,,,,,,,,,,,,,,,,,,,,,,,,,,,,,,188.8724608942986,188.8724608942986,70.90850468549687,137.12250057326833,162.31223581063412,109.5873357370345,1.0,1.3,221,-265,480,-253,699,-267,355.26870250701904,355.2687420845032,355.2710928916931,355.282954454422,355.43317437171936,355.43317437171936,355.43317437171936,355.43317437171936,355.43317437171936,355.43317437171936,355.43317437171936,357.21790885925293,1,1.9226469993591309,None,,,,,,,,,,,,,,,,,,88,3,2025-02-24_10h58.43.017,comp,2024.2.4,60.102283979187824,2025-02-24 10h58.54.250690 -0500,
91,91,0,critical,hwd,20.0,1.0,lower,133.0,57.0,57.0,133.0,78.0,78.0,2,1.9671227931976318,None,,,,,0,0,0,0,0,91,91,102,357.23287868499756,,,,,,,,,,,,,,,,,,,,,,,,,,,,,,,,,,,,,,,,,,,,,,,,,,,,,,,,,,,,,,,,,,,,,,,,,,,,,,,,,133.0,57.0,57.0,133.0,78.0,78.0,1.0,1.2,-191,5,0,-16,202,-3,357.2186846733093,357.2187247276306,357.2210874557495,357.23287868499756,357.38325691223145,357.38325691223145,357.38325691223145,357.38325691223145,357.38325691223145,357.38325691223145,357.38325691223145,359.21745443344116,2,1.9671227931976318,None,,,,,,,,,,,,,,,,,,88,3,2025-02-24_10h58.43.017,comp,2024.2.4,60.102283979187824,2025-02-24 10h58.54.250690 -0500,
92,92,0,filler_random,None,None,None,None,None,None,None,None,None,None,3,2.6149489879608154,None,,,,,0,0,0,0,0,92,92,149,359.23288083076477,,,,,,,,,,,,,,,,,,,,,,,,,,,,,,,,,,,,,,,,,,,,,,,,,,,,,,,,,,,,,,,,,,,,,,,,,,,,,,,,,174.04773143923853,141.99910364657867,77.73704415349121,183.19695211399346,194.58650943444445,131.51836467505808,1.0,1.1,-739,279,-480,277,-227,267,359.21833395957947,359.21837401390076,359.22066926956177,359.23288083076477,359.38322830200195,359.38322830200195,359.38322830200195,359.38322830200195,359.38322830200195,359.38322830200195,359.38322830200195,361.851110458374,3,2.6149489879608154,None,,,,,,,,,,,,,,,,,,88,3,2025-02-24_10h58.43.017,comp,2024.2.4,60.102283979187824,2025-02-24 10h58.54.250690 -0500,
93,93,0,critical,hdw,20.0,3.0,lower,133.0,57.0,78.0,78.0,57.0,133.0,3,2.7167019844055176,None,,,,,0,0,0,0,0,93,93,116,361.86649560928345,,,,,,,,,,,,,,,,,,,,,,,,,,,,,,,,,,,,,,,,,,,,,,,,,,,,,,,,,,,,,,,,,,,,,,,,,,,,,,,,,133.0,57.0,78.0,78.0,57.0,133.0,3.0,3.1,-164,264,0,-9,202,-281,361.8519036769867,361.8519444465637,361.85434103012085,361.86649560928345,362.01632475852966,362.01632475852966,362.01632475852966,362.01632475852966,362.01632475852966,362.01632475852966,362.01632475852966,364.58438301086426,3,2.7167019844055176,None,,,,,,,,,,,,,,,,,,88,3,2025-02-24_10h58.43.017,comp,2024.2.4,60.102283979187824,2025-02-24 10h58.54.250690 -0500,
94,94,0,filler_random,None,None,None,None,None,None,None,None,None,None,3,1.4864966869354248,None,,,,,0,0,0,0,0,94,94,136,364.5997610092163,,,,,,,,,,,,,,,,,,,,,,,,,,,,,,,,,,,,,,,,,,,,,,,,,,,,,,,,,,,,,,,,,,,,,,,,,,,,,,,,,155.2339480870289,95.11424337969908,129.2508886067699,107.03188711912351,105.89119870120422,199.56895730567453,4.0,4.2,-197,-12,0,-285,249,-5,364.58525228500366,364.5853123664856,364.5875082015991,364.5997610092163,364.74966979026794,364.74966979026794,364.74966979026794,364.74966979026794,364.74966979026794,364.74966979026794,364.74966979026794,366.100919008255,3,1.4864966869354248,None,,,,,,,,,,,,,,,,,,88,3,2025-02-24_10h58.43.017,comp,2024.2.4,60.102283979187824,2025-02-24 10h58.54.250690 -0500,
95,95,0,filler_square,None,None,None,None,None,None,None,None,None,None,2,2.3535704612731934,None,,,,,0,0,0,0,0,95,95,184,366.1162509918213,,,,,,,,,,,,,,,,,,,,,,,,,,,,,,,,,,,,,,,,,,,,,,,,,,,,,,,,,,,,,,,,,,,,,,,,,,,,,,,,,174.91205497152043,161.05836761482377,198.95404207792936,198.95404207792936,136.4170075739377,145.93826271295478,4.0,4.1,-276,-263,0,18,268,-288,366.10189414024353,366.10193490982056,366.10396695137024,366.1162509918213,366.26675629615784,366.26675629615784,366.26675629615784,366.26675629615784,366.26675629615784,366.26675629615784,366.26675629615784,368.4845139980316,2,2.3535704612731934,None,,,,,,,,,,,,,,,,,,88,3,2025-02-24_10h58.43.017,comp,2024.2.4,60.102283979187824,2025-02-24 10h58.54.250690 -0500,
96,96,0,filler_random,None,None,None,None,None,None,None,None,None,None,2,1.4837696552276611,None,,,,,0,0,0,0,0,96,96,159,368.4996225833893,,,,,,,,,,,,,,,,,,,,,,,,,,,,,,,,,,,,,,,,,,,,,,,,,,,,,,,,,,,,,,,,,,,,,,,,,,,,,,,,,134.485190895318,136.79831715050335,108.18856037186313,191.3159388977331,143.99273365522407,97.76470107961072,4.0,4.2,-260,17,0,-280,241,5,368.48539996147156,368.4854407310486,368.48747086524963,368.4996225833893,368.64992094039917,368.64992094039917,368.64992094039917,368.64992094039917,368.64992094039917,368.64992094039917,368.64992094039917,370.0008444786072,2,1.4837696552276611,None,,,,,,,,,,,,,,,,,,88,3,2025-02-24_10h58.43.017,comp,2024.2.4,60.102283979187824,2025-02-24 10h58.54.250690 -0500,
97,97,0,critical,dwh,20.0,2.1,upper,141.0,141.0,125.0,200.0,200.0,125.0,2,1.9423158168792725,None,,,,,0,0,0,0,0,97,97,7,370.01617765426636,,,,,,,,,,,,,,,,,,,,,,,,,,,,,,,,,,,,,,,,,,,,,,,,,,,,,,,,,,,,,,,,,,,,,,,,,,,,,,,,,141.0,141.0,125.0,200.0,200.0,125.0,2.1,2.12,-266,-251,0,-283,258,257,370.00164699554443,370.00168776512146,370.0041012763977,370.01617765426636,370.1665201187134,370.1665201187134,370.1665201187134,370.1665201187134,370.1665201187134,370.1665201187134,370.1665201187134,371.9675762653351,2,1.9423158168792725,None,,,,,,,,,,,,,,,,,,88,3,2025-02-24_10h58.43.017,comp,2024.2.4,60.102283979187824,2025-02-24 10h58.54.250690 -0500,
98,98,0,filler_square,None,None,None,None,None,None,None,None,None,None,1,2.3669650554656982,None,,,,,0,0,0,0,0,98,98,182,371.98310232162476,,,,,,,,,,,,,,,,,,,,,,,,,,,,,,,,,,,,,,,,,,,,,,,,,,,,,,,,,,,,,,,,,,,,,,,,,,,,,,,,,113.37108538022895,113.37108538022895,81.29900736886788,80.35607806795446,67.1354382179879,97.53303049074557,4.0,4.2,-193,-9,0,-288,185,-7,371.96851420402527,371.9685549736023,371.9705812931061,371.98310232162476,372.13330245018005,372.13330245018005,372.13330245018005,372.13330245018005,372.13330245018005,372.13330245018005,372.13330245018005,374.3676302433014,1,2.3669650554656982,None,,,,,,,,,,,,,,,,,,88,3,2025-02-24_10h58.43.017,comp,2024.2.4,60.102283979187824,2025-02-24 10h58.54.250690 -0500,
99,99,0,critical,wdh,35.0,2.1,lower,57.0,133.0,70.0,70.0,133.0,57.0,3,3.0655722618103027,None,,,,,0,0,0,0,0,99,99,32,374.38282346725464,,,,,,,,,,,,,,,,,,,,,,,,,,,,,,,,,,,,,,,,,,,,,,,,,,,,,,,,,,,,,,,,,,,,,,,,,,,,,,,,,57.0,133.0,70.0,70.0,133.0,57.0,2.1,2.12,-198,-257,0,-261,160,255,374.3684329986572,374.3684730529785,374.370774269104,374.38282346725464,374.53296995162964,374.53296995162964,374.53296995162964,374.53296995162964,374.53296995162964,374.53296995162964,374.53296995162964,377.4508435726166,3,3.0655722618103027,None,,,,,,,,,,,,,,,,,,88,3,2025-02-24_10h58.43.017,comp,2024.2.4,60.102283979187824,2025-02-24 10h58.54.250690 -0500,
100,100,0,critical,dwh,35.0,4.0,upper,127.0,127.0,125.0,200.0,200.0,125.0,3,2.4193332195281982,None,,,,,0,0,0,0,0,100,100,65,377.4663915634155,,,,,,,,,,,,,,,,,,,,,,,,,,,,,,,,,,,,,,,,,,,,,,,,,,,,,,,,,,,,,,,,,,,,,,,,,,,,,,,,,127.0,127.0,125.0,200.0,200.0,125.0,4.0,4.1,-260,-253,0,10,258,-275,377.45162200927734,377.4516625404358,377.4537115097046,377.4663915634155,377.6166136264801,377.6166136264801,377.6166136264801,377.6166136264801,377.6166136264801,377.6166136264801,377.6166136264801,379.9009304046631,3,2.4193332195281982,None,,,,,,,,,,,,,,,,,,88,3,2025-02-24_10h58.43.017,comp,2024.2.4,60.102283979187824,2025-02-24 10h58.54.250690 -0500,
101,101,0,critical,hwd,35.0,1.0,lower,133.0,57.0,57.0,133.0,70.0,70.0,2,3.369717836380005,None,,,,,0,0,0,0,0,101,101,96,379.9161946773529,,,,,,,,,,,,,,,,,,,,,,,,,,,,,,,,,,,,,,,,,,,,,,,,,,,,,,,,,,,,,,,,,,,,,,,,,,,,,,,,,133.0,57.0,57.0,133.0,70.0,70.0,1.0,1.1,-671,266,-480,284,-282,264,379.90174674987793,379.90178775787354,379.904217004776,379.9161946773529,380.066201210022,380.066201210022,380.066201210022,380.066201210022,380.066201210022,380.066201210022,380.066201210022,383.3007354736328,2,3.369717836380005,None,,,,,,,,,,,,,,,,,,88,3,2025-02-24_10h58.43.017,comp,2024.2.4,60.102283979187824,2025-02-24 10h58.54.250690 -0500,
102,102,0,filler_random,None,None,None,None,None,None,None,None,None,None,1,1.4263830184936523,None,,,,,0,0,0,0,0,102,102,158,383.31606912612915,,,,,,,,,,,,,,,,,,,,,,,,,,,,,,,,,,,,,,,,,,,,,,,,,,,,,,,,,,,,,,,,,,,,,,,,,,,,,,,,,178.43073852942925,195.58140484703284,152.326508609874,126.54718410602145,142.7642690609797,85.52109104768813,4.0,4.1,-257,-254,0,-2,202,-264,383.3016242980957,383.30166482925415,383.3040370941162,383.31606912612915,383.46635246276855,383.46635246276855,383.46635246276855,383.46635246276855,383.46635246276855,383.46635246276855,383.46635246276855,384.75079703330994,1,1.4263830184936523,None,,,,,,,,,,,,,,,,,,88,3,2025-02-24_10h58.43.017,comp,2024.2.4,60.102283979187824,2025-02-24 10h58.54.250690 -0500,
103,103,0,critical,hwd,35.0,4.0,lower,133.0,57.0,57.0,133.0,70.0,70.0,2,2.6551284790039062,None,,,,,0,0,0,0,0,103,103,100,384.76632809638977,,,,,,,,,,,,,,,,,,,,,,,,,,,,,,,,,,,,,,,,,,,,,,,,,,,,,,,,,,,,,,,,,,,,,,,,,,,,,,,,,133.0,57.0,57.0,133.0,70.0,70.0,4.0,4.2,-191,-15,0,-287,198,-19,384.75157928466797,384.75161838531494,384.75399947166443,384.76632809638977,384.91614866256714,384.91614866256714,384.91614866256714,384.91614866256714,384.91614866256714,384.91614866256714,384.91614866256714,387.43391251564026,2,2.6551284790039062,None,,,,,,,,,,,,,,,,,,88,3,2025-02-24_10h58.43.017,comp,2024.2.4,60.102283979187824,2025-02-24 10h58.54.250690 -0500,
104,104,0,critical,whd,20.0,1.0,lower,57.0,133.0,133.0,57.0,78.0,78.0,2,2.516951084136963,None,,,,,0,0,0,0,0,104,104,90,387.4494378566742,,,,,,,,,,,,,,,,,,,,,,,,,,,,,,,,,,,,,,,,,,,,,,,,,,,,,,,,,,,,,,,,,,,,,,,,,,,,,,,,,57.0,133.0,133.0,57.0,78.0,78.0,1.0,1.3,289,-264,480,-286,644,-252,387.43471336364746,387.43475341796875,387.437198638916,387.4494378566742,387.59962463378906,387.59962463378906,387.59962463378906,387.59962463378906,387.59962463378906,387.59962463378906,387.59962463378906,389.98389315605164,2,2.516951084136963,None,,,,,,,,,,,,,,,,,,88,3,2025-02-24_10h58.43.017,comp,2024.2.4,60.102283979187824,2025-02-24 10h58.54.250690 -0500,
105,105,0,critical,wdh,20.0,2.1,lower,57.0,133.0,78.0,78.0,133.0,57.0,3,2.8002727031707764,None,,,,,0,0,0,0,0,105,105,10,389.9993751049042,,,,,,,,,,,,,,,,,,,,,,,,,,,,,,,,,,,,,,,,,,,,,,,,,,,,,,,,,,,,,,,,,,,,,,,,,,,,,,,,,57.0,133.0,78.0,78.0,133.0,57.0,2.1,2.11,-202,277,0,260,164,-252,389.9846525192261,389.9846909046173,389.9870707988739,389.9993751049042,390.14960265159607,390.14960265159607,390.14960265159607,390.14960265159607,390.14960265159607,390.14960265159607,390.14960265159607,392.80085730552673,3,2.8002727031707764,None,,,,,,,,,,,,,,,,,,88,3,2025-02-24_10h58.43.017,comp,2024.2.4,60.102283979187824,2025-02-24 10h58.54.250690 -0500,
106,106,0,critical,hwd,35.0,2.1,upper,200.0,125.0,125.0,200.0,127.0,127.0,2,2.18351149559021,None,,,,,0,0,0,0,0,106,106,17,392.81631231307983,,,,,,,,,,,,,,,,,,,,,,,,,,,,,,,,,,,,,,,,,,,,,,,,,,,,,,,,,,,,,,,,,,,,,,,,,,,,,,,,,200.0,125.0,125.0,200.0,127.0,127.0,2.1,2.12,-258,-271,0,-273,260,286,392.80163168907166,392.80167269706726,392.80402755737305,392.81631231307983,392.9664132595062,392.9664132595062,392.9664132595062,392.9664132595062,392.9664132595062,392.9664132595062,392.9664132595062,395.00097274780273,2,2.18351149559021,None,,,,,,,,,,,,,,,,,,88,3,2025-02-24_10h58.43.017,comp,2024.2.4,60.102283979187824,2025-02-24 10h58.54.250690 -0500,
107,107,0,filler_random,None,None,None,None,None,None,None,None,None,None,1,1.5668144226074219,None,,,,,0,0,0,0,0,107,107,133,395.0163366794586,,,,,,,,,,,,,,,,,,,,,,,,,,,,,,,,,,,,,,,,,,,,,,,,,,,,,,,,,,,,,,,,,,,,,,,,,,,,,,,,,195.04128076459983,176.3302076063989,60.66689635885242,75.25480892234548,187.17728799641225,64.19770827974607,2.2,2.22,-222,252,0,-276,166,-277,395.00188755989075,395.0019292831421,395.0043544769287,395.0163366794586,395.1663341522217,395.1663341522217,395.1663341522217,395.1663341522217,395.1663341522217,395.1663341522217,395.1663341522217,396.5843024253845,1,1.5668144226074219,None,,,,,,,,,,,,,,,,,,88,3,2025-02-24_10h58.43.017,comp,2024.2.4,60.102283979187824,2025-02-24 10h58.54.250690 -0500,
108,108,0,filler_random,None,None,None,None,None,None,None,None,None,None,2,1.9107398986816406,None,,,,,0,0,0,0,0,108,108,142,396.5995452404022,,,,,,,,,,,,,,,,,,,,,,,,,,,,,,,,,,,,,,,,,,,,,,,,,,,,,,,,,,,,,,,,,,,,,,,,,,,,,,,,,103.4155570121406,101.05144035795094,129.61366270481358,89.99731746573582,87.60416877574421,103.6259730950279,2.1,2.12,-192,-269,0,-289,193,251,396.5851709842682,396.58520913124084,396.5877146720886,396.5995452404022,396.749454498291,396.749454498291,396.749454498291,396.749454498291,396.749454498291,396.749454498291,396.749454498291,398.5172393321991,2,1.9107398986816406,None,,,,,,,,,,,,,,,,,,88,3,2025-02-24_10h58.43.017,comp,2024.2.4,60.102283979187824,2025-02-24 10h58.54.250690 -0500,
109,109,0,filler_random,None,None,None,None,None,None,None,None,None,None,3,3.2254903316497803,None,,,,,0,0,0,0,0,109,109,169,398.5328540802002,,,,,,,,,,,,,,,,,,,,,,,,,,,,,,,,,,,,,,,,,,,,,,,,,,,,,,,,,,,,,,,,,,,,,,,,,,,,,,,,,119.33966002194794,159.42125806331515,170.4107564785361,89.03722020503164,177.6373969232436,192.99465914244007,2.2,2.22,-220,290,0,-268,237,-255,398.51815390586853,398.5181953907013,398.5202651023865,398.5328540802002,398.68298387527466,398.68298387527466,398.68298387527466,398.68298387527466,398.68298387527466,398.68298387527466,398.68298387527466,401.7674551010132,3,3.2254903316497803,None,,,,,,,,,,,,,,,,,,88,3,2025-02-24_10h58.43.017,comp,2024.2.4,60.102283979187824,2025-02-24 10h58.54.250690 -0500,
110,110,0,filler_random,None,None,None,None,None,None,None,None,None,None,2,1.5911192893981934,None,,,,,0,0,0,0,0,110,110,137,401.78319573402405,,,,,,,,,,,,,,,,,,,,,,,,,,,,,,,,,,,,,,,,,,,,,,,,,,,,,,,,,,,,,,,,,,,,,,,,,,,,,,,,,65.97121627892187,99.66143169254576,196.68078706410614,163.75970583758829,89.47799763607182,147.3909307987078,3.0,3.2,-228,-259,0,-19,252,256,401.7683436870575,401.7683846950531,401.77044653892517,401.78319573402405,401.9328496456146,401.9328496456146,401.9328496456146,401.9328496456146,401.9328496456146,401.9328496456146,401.9328496456146,403.3839101791382,2,1.5911192893981934,None,,,,,,,,,,,,,,,,,,88,3,2025-02-24_10h58.43.017,comp,2024.2.4,60.102283979187824,2025-02-24 10h58.54.250690 -0500,
111,111,0,filler_square,None,None,None,None,None,None,None,None,None,None,3,1.5667853355407715,None,,,,,0,0,0,0,0,111,111,207,403.3995666503906,,,,,,,,,,,,,,,,,,,,,,,,,,,,,,,,,,,,,,,,,,,,,,,,,,,,,,,,,,,,,,,,,,,,,,,,,,,,,,,,,93.22822943848004,109.00714028031072,59.10873993273972,59.13327736984929,113.04697333656648,113.04697333656648,3.0,3.1,-180,266,0,-18,182,-286,403.38486790657043,403.3849093914032,403.38751101493835,403.3995666503906,403.5494885444641,403.5494885444641,403.5494885444641,403.5494885444641,403.5494885444641,403.5494885444641,403.5494885444641,404.9674880504608,3,1.5667853355407715,None,,,,,,,,,,,,,,,,,,88,3,2025-02-24_10h58.43.017,comp,2024.2.4,60.102283979187824,2025-02-24 10h58.54.250690 -0500,
112,112,0,critical,whd,35.0,2.1,upper,125.0,200.0,200.0,125.0,127.0,127.0,2,2.049354314804077,None,,,,,0,0,0,0,0,112,112,37,404.9828064441681,,,,,,,,,,,,,,,,,,,,,,,,,,,,,,,,,,,,,,,,,,,,,,,,,,,,,,,,,,,,,,,,,,,,,,,,,,,,,,,,,125.0,200.0,200.0,125.0,127.0,127.0,2.1,2.11,-258,275,0,273,222,-252,404.96824979782104,404.96839141845703,404.97090220451355,404.9828064441681,405.13296365737915,405.13296365737915,405.13296365737915,405.13296365737915,405.13296365737915,405.13296365737915,405.13296365737915,407.03409934043884,2,2.049354314804077,None,,,,,,,,,,,,,,,,,,88,3,2025-02-24_10h58.43.017,comp,2024.2.4,60.102283979187824,2025-02-24 10h58.54.250690 -0500,
113,113,0,critical,dhw,20.0,4.0,lower,78.0,78.0,133.0,57.0,57.0,133.0,3,2.1878108978271484,None,,,,,0,0,0,0,0,113,113,58,407.0496139526367,,,,,,,,,,,,,,,,,,,,,,,,,,,,,,,,,,,,,,,,,,,,,,,,,,,,,,,,,,,,,,,,,,,,,,,,,,,,,,,,,78.0,78.0,133.0,57.0,57.0,133.0,4.0,4.1,-164,-265,0,-1,191,-258,407.03492999076843,407.03497314453125,407.03749561309814,407.0496139526367,407.1994059085846,407.1994059085846,407.1994059085846,407.1994059085846,407.1994059085846,407.1994059085846,407.1994059085846,409.250527381897,3,2.1878108978271484,None,,,,,,,,,,,,,,,,,,88,3,2025-02-24_10h58.43.017,comp,2024.2.4,60.102283979187824,2025-02-24 10h58.54.250690 -0500,
114,114,0,critical,hwd,20.0,2.1,lower,133.0,57.0,57.0,133.0,78.0,78.0,2,2.7394042015075684,None,,,,,0,0,0,0,0,114,114,18,409.2658967971802,,,,,,,,,,,,,,,,,,,,,,,,,,,,,,,,,,,,,,,,,,,,,,,,,,,,,,,,,,,,,,,,,,,,,,,,,,,,,,,,,133.0,57.0,57.0,133.0,78.0,78.0,2.1,2.11,-191,258,0,284,202,-268,409.2512950897217,409.2513349056244,409.25363183021545,409.2658967971802,409.432674407959,409.432674407959,409.432674407959,409.432674407959,409.432674407959,409.432674407959,409.432674407959,412.0175087451935,2,2.7394042015075684,None,,,,,,,,,,,,,,,,,,88,3,2025-02-24_10h58.43.017,comp,2024.2.4,60.102283979187824,2025-02-24 10h58.54.250690 -0500,
115,115,0,critical,dwh,35.0,1.0,lower,70.0,70.0,57.0,133.0,133.0,57.0,3,1.4529058933258057,None,,,,,0,0,0,0,0,115,115,60,412.0325367450714,,,,,,,,,,,,,,,,,,,,,,,,,,,,,,,,,,,,,,,,,,,,,,,,,,,,,,,,,,,,,,,,,,,,,,,,,,,,,,,,,70.0,70.0,57.0,133.0,133.0,57.0,1.0,1.2,-198,-9,0,-8,191,15,412.01828503608704,412.0183274745941,412.0206084251404,412.0325367450714,412.1827218532562,412.1827218532562,412.1827218532562,412.1827218532562,412.1827218532562,412.1827218532562,412.1827218532562,413.5004107952118,3,1.4529058933258057,None,,,,,,,,,,,,,,,,,,88,3,2025-02-24_10h58.43.017,comp,2024.2.4,60.102283979187824,2025-02-24 10h58.54.250690 -0500,
116,116,0,critical,hdw,20.0,4.0,upper,200.0,125.0,141.0,141.0,125.0,200.0,1,2.810452699661255,None,,,,,0,0,0,0,0,116,116,119,413.51588106155396,,,,,,,,,,,,,,,,,,,,,,,,,,,,,,,,,,,,,,,,,,,,,,,,,,,,,,,,,,,,,,,,,,,,,,,,,,,,,,,,,200.0,125.0,141.0,141.0,125.0,200.0,4.0,4.1,-229,-278,0,7,266,-267,413.501181602478,413.50121998786926,413.50352025032043,413.51588106155396,413.6664607524872,413.6664607524872,413.6664607524872,413.6664607524872,413.6664607524872,413.6664607524872,413.6664607524872,416.3340780735016,1,2.810452699661255,None,,,,,,,,,,,,,,,,,,88,3,2025-02-24_10h58.43.017,comp,2024.2.4,60.102283979187824,2025-02-24 10h58.54.250690 -0500,
117,117,0,critical,dwh,35.0,3.0,upper,127.0,127.0,125.0,200.0,200.0,125.0,2,2.1359364986419678,None,,,,,0,0,0,0,0,117,117,63,416.3495225906372,,,,,,,,,,,,,,,,,,,,,,,,,,,,,,,,,,,,,,,,,,,,,,,,,,,,,,,,,,,,,,,,,,,,,,,,,,,,,,,,,127.0,127.0,125.0,200.0,200.0,125.0,3.0,3.1,-260,272,0,12,258,-257,416.3348605632782,416.33489990234375,416.3373203277588,416.3495225906372,416.49953293800354,416.49953293800354,416.49953293800354,416.49953293800354,416.49953293800354,416.49953293800354,416.49953293800354,418.50063252449036,2,2.1359364986419678,None,,,,,,,,,,,,,,,,,,88,3,2025-02-24_10h58.43.017,comp,2024.2.4,60.102283979187824,2025-02-24 10h58.54.250690 -0500,
118,118,0,filler_random,None,None,None,None,None,None,None,None,None,None,1,2.4675211906433105,None,,,,,0,0,0,0,0,118,118,153,418.51587414741516,,,,,,,,,,,,,,,,,,,,,,,,,,,,,,,,,,,,,,,,,,,,,,,,,,,,,,,,,,,,,,,,,,,,,,,,,,,,,,,,,150.42578938818582,180.6294890732015,130.6905262354237,153.56509132041725,156.39349350086735,185.61858551379055,2.1,2.12,-263,-277,0,-267,266,267,418.50151658058167,418.50155758857727,418.5038712024689,418.51587414741516,418.6662609577179,418.6662609577179,418.6662609577179,418.6662609577179,418.6662609577179,418.6662609577179,418.6662609577179,421.0006227493286,1,2.4675211906433105,None,,,,,,,,,,,,,,,,,,88,3,2025-02-24_10h58.43.017,comp,2024.2.4,60.102283979187824,2025-02-24 10h58.54.250690 -0500,
119,119,0,filler_square,None,None,None,None,None,None,None,None,None,None,1,2.1676125526428223,None,,,,,0,0,0,0,0,119,119,194,421.01586079597473,,,,,,,,,,,,,,,,,,,,,,,,,,,,,,,,,,,,,,,,,,,,,,,,,,,,,,,,,,,,,,,,,,,,,,,,,,,,,,,,,186.24499032771612,186.24499032771612,73.82813819293781,96.53771600808615,119.01497493134755,164.32719349832158,3.0,3.1,-237,260,0,-16,226,-287,421.00151538848877,421.00155448913574,421.0038182735443,421.01586079597473,421.1661355495453,421.1661355495453,421.1661355495453,421.1661355495453,421.1661355495453,421.1661355495453,421.1661355495453,423.20050525665283,1,2.1676125526428223,None,,,,,,,,,,,,,,,,,,88,3,2025-02-24_10h58.43.017,comp,2024.2.4,60.102283979187824,2025-02-24 10h58.54.250690 -0500,
120,120,0,critical,hdw,20.0,1.0,lower,133.0,57.0,78.0,78.0,57.0,133.0,3,2.789283275604248,None,,,,,0,0,0,0,0,120,120,114,423.21583127975464,,,,,,,,,,,,,,,,,,,,,,,,,,,,,,,,,,,,,,,,,,,,,,,,,,,,,,,,,,,,,,,,,,,,,,,,,,,,,,,,,133.0,57.0,78.0,78.0,57.0,133.0,1.0,1.1,-644,286,-480,272,-278,266,423.20140314102173,423.2014436721802,423.20382499694824,423.21583127975464,423.3660538196564,423.3660538196564,423.3660538196564,423.3660538196564,423.3660538196564,423.3660538196564,423.3660538196564,426.0173261165619,3,2.789283275604248,None,,,,,,,,,,,,,,,,,,88,3,2025-02-24_10h58.43.017,comp,2024.2.4,60.102283979187824,2025-02-24 10h58.54.250690 -0500,
121,121,0,critical,whd,35.0,4.0,lower,57.0,133.0,133.0,57.0,70.0,70.0,2,2.3668651580810547,None,,,,,0,0,0,0,0,121,121,88,426.0324637889862,,,,,,,,,,,,,,,,,,,,,,,,,,,,,,,,,,,,,,,,,,,,,,,,,,,,,,,,,,,,,,,,,,,,,,,,,,,,,,,,,57.0,133.0,133.0,57.0,70.0,70.0,4.0,4.1,-191,-269,0,-6,160,-272,426.0181074142456,426.0181484222412,426.0213611125946,426.0324637889862,426.1825067996979,426.1825067996979,426.1825067996979,426.1825067996979,426.1825067996979,426.1825067996979,426.1825067996979,428.4170129299164,2,2.3668651580810547,None,,,,,,,,,,,,,,,,,,88,3,2025-02-24_10h58.43.017,comp,2024.2.4,60.102283979187824,2025-02-24 10h58.54.250690 -0500,
122,122,0,critical,wdh,35.0,2.1,lower,57.0,133.0,70.0,70.0,133.0,57.0,1,2.4776296615600586,None,,,,,0,0,0,0,0,122,122,8,428.4323971271515,,,,,,,,,,,,,,,,,,,,,,,,,,,,,,,,,,,,,,,,,,,,,,,,,,,,,,,,,,,,,,,,,,,,,,,,,,,,,,,,,57.0,133.0,70.0,70.0,133.0,57.0,2.1,2.12,-198,-257,0,-290,160,262,428.4179129600525,428.4179539680481,428.4205389022827,428.4323971271515,428.58250188827515,428.58250188827515,428.58250188827515,428.58250188827515,428.58250188827515,428.58250188827515,428.58250188827515,430.9169268608093,1,2.4776296615600586,None,,,,,,,,,,,,,,,,,,88,3,2025-02-24_10h58.43.017,comp,2024.2.4,60.102283979187824,2025-02-24 10h58.54.250690 -0500,
123,123,0,critical,dhw,35.0,4.0,lower,70.0,70.0,133.0,57.0,57.0,133.0,2,2.3614325523376465,None,,,,,0,0,0,0,0,123,123,52,430.93266558647156,,,,,,,,,,,,,,,,,,,,,,,,,,,,,,,,,,,,,,,,,,,,,,,,,,,,,,,,,,,,,,,,,,,,,,,,,,,,,,,,,70.0,70.0,133.0,57.0,57.0,133.0,4.0,4.1,-160,-276,0,14,191,-250,430.91770219802856,430.9177415370941,430.9200782775879,430.93266558647156,431.08246994018555,431.08246994018555,431.08246994018555,431.08246994018555,431.08246994018555,431.08246994018555,431.08246994018555,433.30034255981445,2,2.3614325523376465,None,,,,,,,,,,,,,,,,,,88,3,2025-02-24_10h58.43.017,comp,2024.2.4,60.102283979187824,2025-02-24 10h58.54.250690 -0500,
124,124,0,critical,hwd,20.0,2.1,upper,200.0,125.0,125.0,200.0,141.0,141.0,1,2.058159112930298,None,,,,,0,0,0,0,0,124,124,19,433.31599020957947,,,,,,,,,,,,,,,,,,,,,,,,,,,,,,,,,,,,,,,,,,,,,,,,,,,,,,,,,,,,,,,,,,,,,,,,,,,,,,,,,200.0,125.0,125.0,200.0,141.0,141.0,2.1,2.12,-258,-273,0,-256,266,275,433.30114221572876,433.3011817932129,433.30342841148376,433.31599020957947,433.46611857414246,433.46611857414246,433.46611857414246,433.46611857414246,433.46611857414246,433.46611857414246,433.46611857414246,435.38384461402893,1,2.058159112930298,None,,,,,,,,,,,,,,,,,,88,3,2025-02-24_10h58.43.017,comp,2024.2.4,60.102283979187824,2025-02-24 10h58.54.250690 -0500,
125,125,0,critical,dwh,35.0,3.0,lower,70.0,70.0,57.0,133.0,133.0,57.0,3,2.8633124828338623,None,,,,,0,0,0,0,0,125,125,62,435.3994245529175,,,,,,,,,,,,,,,,,,,,,,,,,,,,,,,,,,,,,,,,,,,,,,,,,,,,,,,,,,,,,,,,,,,,,,,,,,,,,,,,,70.0,70.0,57.0,133.0,133.0,57.0,3.0,3.1,-198,250,0,4,191,-288,435.3846514225006,435.3846929073334,435.38744282722473,435.3994245529175,435.5493075847626,435.5493075847626,435.5493075847626,435.5493075847626,435.5493075847626,435.5493075847626,435.5493075847626,438.26703548431396,3,2.8633124828338623,None,,,,,,,,,,,,,,,,,,88,3,2025-02-24_10h58.43.017,comp,2024.2.4,60.102283979187824,2025-02-24 10h58.54.250690 -0500,
126,126,0,critical,dhw,20.0,2.1,upper,141.0,141.0,200.0,125.0,125.0,200.0,2,2.538560390472412,None,,,,,0,0,0,0,0,126,126,3,438.28252124786377,,,,,,,,,,,,,,,,,,,,,,,,,,,,,,,,,,,,,,,,,,,,,,,,,,,,,,,,,,,,,,,,,,,,,,,,,,,,,,,,,141.0,141.0,200.0,125.0,125.0,200.0,2.1,2.11,-229,276,0,271,258,-264,438.2678220272064,438.267861366272,438.2703785896301,438.28252124786377,438.4326813220978,438.4326813220978,438.4326813220978,438.4326813220978,438.4326813220978,438.4326813220978,438.4326813220978,440.83385276794434,2,2.538560390472412,None,,,,,,,,,,,,,,,,,,88,3,2025-02-24_10h58.43.017,comp,2024.2.4,60.102283979187824,2025-02-24 10h58.54.250690 -0500,
127,127,0,filler_square,None,None,None,None,None,None,None,None,None,None,1,1.7986645698547363,None,,,,,0,0,0,0,0,127,127,180,440.8491942882538,,,,,,,,,,,,,,,,,,,,,,,,,,,,,,,,,,,,,,,,,,,,,,,,,,,,,,,,,,,,,,,,,,,,,,,,,,,,,,,,,170.20832538591523,170.20832538591523,86.34318434334078,63.16831216264585,89.7618979511704,90.7579870214445,2.1,2.11,-213,267,0,278,173,-286,440.8348231315613,440.83486342430115,440.8373420238495,440.8491942882538,440.9992485046387,440.9992485046387,440.9992485046387,440.9992485046387,440.9992485046387,440.9992485046387,440.9992485046387,442.65043807029724,1,1.7986645698547363,None,,,,,,,,,,,,,,,,,,88,3,2025-02-24_10h58.43.017,comp,2024.2.4,60.102283979187824,2025-02-24 10h58.54.250690 -0500,
128,128,0,critical,wdh,20.0,2.1,lower,57.0,133.0,78.0,78.0,133.0,57.0,3,1.8438513278961182,None,,,,,0,0,0,0,0,128,128,34,442.6660931110382,,,,,,,,,,,,,,,,,,,,,,,,,,,,,,,,,,,,,,,,,,,,,,,,,,,,,,,,,,,,,,,,,,,,,,,,,,,,,,,,,57.0,133.0,78.0,78.0,133.0,57.0,2.1,2.12,-202,-257,0,-251,164,255,442.6512360572815,442.6512906551361,442.65445470809937,442.6660931110382,442.8158974647522,442.8158974647522,442.8158974647522,442.8158974647522,442.8158974647522,442.8158974647522,442.8158974647522,444.5168182849884,3,1.8438513278961182,None,,,,,,,,,,,,,,,,,,88,3,2025-02-24_10h58.43.017,comp,2024.2.4,60.102283979187824,2025-02-24 10h58.54.250690 -0500,
129,129,0,filler_square,None,None,None,None,None,None,None,None,None,None,3,2.0171334743499756,None,,,,,0,0,0,0,0,129,129,190,444.53259658813477,,,,,,,,,,,,,,,,,,,,,,,,,,,,,,,,,,,,,,,,,,,,,,,,,,,,,,,,,,,,,,,,,,,,,,,,,,,,,,,,,85.03150577072446,80.56418214556352,64.69512830523058,80.18550831103623,100.4992441523643,100.4992441523643,2.1,2.12,-176,-269,0,-264,186,285,444.5178349018097,444.51787853240967,444.5203514099121,444.53259658813477,444.68242144584656,444.68242144584656,444.68242144584656,444.68242144584656,444.68242144584656,444.68242144584656,444.68242144584656,446.566908121109,3,2.0171334743499756,None,,,,,,,,,,,,,,,,,,88,3,2025-02-24_10h58.43.017,comp,2024.2.4,60.102283979187824,2025-02-24 10h58.54.250690 -0500,
130,130,0,filler_random,None,None,None,None,None,None,None,None,None,None,1,2.0492477416992188,None,,,,,0,0,0,0,0,130,130,147,446.5824785232544,,,,,,,,,,,,,,,,,,,,,,,,,,,,,,,,,,,,,,,,,,,,,,,,,,,,,,,,,,,,,,,,,,,,,,,,,,,,,,,,,187.2960433287051,104.01483073749057,73.55975197817372,90.04191305141202,127.62290658295147,62.599144295800116,2.2,2.21,-193,-254,0,268,172,287,446.56782269477844,446.5678641796112,446.57043075561523,446.5824785232544,446.7324607372284,446.7324607372284,446.7324607372284,446.7324607372284,446.7324607372284,446.7324607372284,446.7324607372284,448.6336920261383,1,2.0492477416992188,None,,,,,,,,,,,,,,,,,,88,3,2025-02-24_10h58.43.017,comp,2024.2.4,60.102283979187824,2025-02-24 10h58.54.250690 -0500,
131,131,0,filler_random,None,None,None,None,None,None,None,None,None,None,3,1.652129888534546,None,,,,,0,0,0,0,0,131,131,166,448.6491415500641,,,,,,,,,,,,,,,,,,,,,,,,,,,,,,,,,,,,,,,,,,,,,,,,,,,,,,,,,,,,,,,,,,,,,,,,,,,,,,,,,59.36681227853437,174.86631573287218,85.33667578624826,177.86125283133015,188.73797394965317,178.7446285243544,1.0,1.2,-272,6,0,-18,274,10,448.6345715522766,448.6346137523651,448.6367073059082,448.6491415500641,448.7993311882019,448.7993311882019,448.7993311882019,448.7993311882019,448.7993311882019,448.7993311882019,448.7993311882019,450.31703424453735,3,1.652129888534546,None,,,,,,,,,,,,,,,,,,88,3,2025-02-24_10h58.43.017,comp,2024.2.4,60.102283979187824,2025-02-24 10h58.54.250690 -0500,
132,132,0,critical,whd,20.0,3.0,upper,125.0,200.0,200.0,125.0,141.0,141.0,2,2.2989261150360107,None,,,,,0,0,0,0,0,132,132,93,450.33249044418335,,,,,,,,,,,,,,,,,,,,,,,,,,,,,,,,,,,,,,,,,,,,,,,,,,,,,,,,,,,,,,,,,,,,,,,,,,,,,,,,,125.0,200.0,200.0,125.0,141.0,141.0,3.0,3.1,-258,276,0,1,229,-289,450.31782245635986,450.3178629875183,450.32031178474426,450.33249044418335,450.4829375743866,450.4829375743866,450.4829375743866,450.4829375743866,450.4829375743866,450.4829375743866,450.4829375743866,452.6338288784027,2,2.2989261150360107,None,,,,,,,,,,,,,,,,,,88,3,2025-02-24_10h58.43.017,comp,2024.2.4,60.102283979187824,2025-02-24 10h58.54.250690 -0500,
133,133,0,critical,whd,20.0,2.1,upper,125.0,200.0,200.0,125.0,141.0,141.0,2,2.5409035682678223,None,,,,,0,0,0,0,0,133,133,15,452.64960050582886,,,,,,,,,,,,,,,,,,,,,,,,,,,,,,,,,,,,,,,,,,,,,,,,,,,,,,,,,,,,,,,,,,,,,,,,,,,,,,,,,125.0,200.0,200.0,125.0,141.0,141.0,2.1,2.11,-258,256,0,284,229,-255,452.63465571403503,452.63469529151917,452.6367766857147,452.64960050582886,452.7995448112488,452.7995448112488,452.7995448112488,452.7995448112488,452.7995448112488,452.7995448112488,452.7995448112488,455.20038652420044,2,2.5409035682678223,None,,,,,,,,,,,,,,,,,,88,3,2025-02-24_10h58.43.017,comp,2024.2.4,60.102283979187824,2025-02-24 10h58.54.250690 -0500,
134,134,0,critical,dwh,35.0,4.0,lower,70.0,70.0,57.0,133.0,133.0,57.0,3,2.2469003200531006,None,,,,,0,0,0,0,0,134,134,64,455.21612906455994,,,,,,,,,,,,,,,,,,,,,,,,,,,,,,,,,,,,,,,,,,,,,,,,,,,,,,,,,,,,,,,,,,,,,,,,,,,,,,,,,70.0,70.0,57.0,133.0,133.0,57.0,4.0,4.2,-198,15,0,-258,191,-8,455.20115661621094,455.20119762420654,455.20333337783813,455.21612906455994,455.3656451702118,455.3656451702118,455.3656451702118,455.3656451702118,455.3656451702118,455.3656451702118,455.3656451702118,457.4668462276459,3,2.2469003200531006,None,,,,,,,,,,,,,,,,,,88,3,2025-02-24_10h58.43.017,comp,2024.2.4,60.102283979187824,2025-02-24 10h58.54.250690 -0500,
135,135,0,critical,dwh,20.0,3.0,upper,141.0,141.0,125.0,200.0,200.0,125.0,2,2.907752752304077,None,,,,,0,0,0,0,0,135,135,69,457.48251032829285,,,,,,,,,,,,,,,,,,,,,,,,,,,,,,,,,,,,,,,,,,,,,,,,,,,,,,,,,,,,,,,,,,,,,,,,,,,,,,,,,141.0,141.0,125.0,200.0,200.0,125.0,3.0,3.1,-266,290,0,-1,258,-260,457.46762466430664,457.46766543388367,457.4699945449829,457.48251032829285,457.6326286792755,457.6326286792755,457.6326286792755,457.6326286792755,457.6326286792755,457.6326286792755,457.6326286792755,460.40043115615845,2,2.907752752304077,None,,,,,,,,,,,,,,,,,,88,3,2025-02-24_10h58.43.017,comp,2024.2.4,60.102283979187824,2025-02-24 10h58.54.250690 -0500,
136,136,0,filler_square,None,None,None,None,None,None,None,None,None,None,1,1.8314034938812256,None,,,,,0,0,0,0,0,136,136,181,460.41602516174316,,,,,,,,,,,,,,,,,,,,,,,,,,,,,,,,,,,,,,,,,,,,,,,,,,,,,,,,,,,,,,,,,,,,,,,,,,,,,,,,,138.7763165309727,138.7763165309727,105.99722012042594,124.94453635536168,97.32222241697679,95.09555920379853,4.0,4.2,-228,3,0,-290,206,3,460.40137100219727,460.4014129638672,460.4034655094147,460.41602516174316,460.56586837768555,460.56586837768555,460.56586837768555,460.56586837768555,460.56586837768555,460.56586837768555,460.56586837768555,462.25040888786316,1,1.8314034938812256,None,,,,,,,,,,,,,,,,,,88,3,2025-02-24_10h58.43.017,comp,2024.2.4,60.102283979187824,2025-02-24 10h58.54.250690 -0500,
137,137,0,critical,whd,35.0,3.0,lower,57.0,133.0,133.0,57.0,70.0,70.0,2,0.9391570091247559,None,,,,,0,0,0,0,0,137,137,86,462.26584935188293,,,,,,,,,,,,,,,,,,,,,,,,,,,,,,,,,,,,,,,,,,,,,,,,,,,,,,,,,,,,,,,,,,,,,,,,,,,,,,,,,57.0,133.0,133.0,57.0,70.0,70.0,3.0,3.1,-191,263,0,-13,160,-261,462.25131726264954,462.25135922431946,462.25372529029846,462.26584935188293,462.4156699180603,462.4156699180603,462.4156699180603,462.4156699180603,462.4156699180603,462.4156699180603,462.4156699180603,463.21712613105774,2,0.9391570091247559,None,,,,,,,,,,,,,,,,,,88,3,2025-02-24_10h58.43.017,comp,2024.2.4,60.102283979187824,2025-02-24 10h58.54.250690 -0500,
138,138,0,filler_square,None,None,None,None,None,None,None,None,None,None,2,1.230787754058838,None,,,,,0,0,0,0,0,138,138,198,463.232186794281,,,,,,,,,,,,,,,,,,,,,,,,,,,,,,,,,,,,,,,,,,,,,,,,,,,,,,,,,,,,,,,,,,,,,,,,,,,,,,,,,124.98874246560437,69.47174990875803,132.30466030339934,132.30466030339934,99.88371172576956,112.09556225353506,2.1,2.11,-197,276,0,261,218,-280,463.2180736064911,463.21811604499817,463.22064089775085,463.232186794281,463.38297605514526,463.38297605514526,463.38297605514526,463.38297605514526,463.38297605514526,463.38297605514526,463.38297605514526,464.4670584201813,2,1.230787754058838,None,,,,,,,,,,,,,,,,,,88,3,2025-02-24_10h58.43.017,comp,2024.2.4,60.102283979187824,2025-02-24 10h58.54.250690 -0500,
139,139,0,critical,dwh,20.0,1.0,lower,78.0,78.0,57.0,133.0,133.0,57.0,3,2.1652140617370605,None,,,,,0,0,0,0,0,139,139,66,464.4824140071869,,,,,,,,,,,,,,,,,,,,,,,,,,,,,,,,,,,,,,,,,,,,,,,,,,,,,,,,,,,,,,,,,,,,,,,,,,,,,,,,,78.0,78.0,57.0,133.0,133.0,57.0,1.0,1.3,278,-283,480,-270,671,-263,464.4678349494934,464.4678761959076,464.4702482223511,464.4824140071869,464.6324121952057,464.6324121952057,464.6324121952057,464.6324121952057,464.6324121952057,464.6324121952057,464.6324121952057,466.6502501964569,3,2.1652140617370605,None,,,,,,,,,,,,,,,,,,88,3,2025-02-24_10h58.43.017,comp,2024.2.4,60.102283979187824,2025-02-24 10h58.54.250690 -0500,
