thisN,thisTrialN,thisRepN,effect,order,distance,config,diag,h_1,w_1,h_2,w_2,h_3,w_3,rect_choice.keys,rect_choice.rt,rect_choice.duration,instructions_loop.thisRepN,instructions_loop.thisTrialN,instructions_loop.thisN,instructions_loop.thisIndex,blocks.thisRepN,blocks.thisTrialN,blocks.thisN,blocks.thisIndex,trials.thisRepN,trials.thisTrialN,trials.thisN,trials.thisIndex,thisRow.t,notes,consent.started,agree_button.started,decline_button.started,consent_img.started,mouse.started,consent.stopped,agree_button.numClicks,agree_button.timesOn,agree_button.timesOff,decline_button.numClicks,decline_button.timesOn,decline_button.timesOff,mouse.x,mouse.y,mouse.leftButton,mouse.midButton,mouse.rightButton,mouse.time,mouse.clicked_name,exp_params.started,exp_params.stopped,welcome.started,welcome_text.started,welcome.stopped,instructions_1.started,instructions_1_text_1.started,instructions_1_text_2.started,key_resp.started,instructions_1.stopped,instructions_loop.key_resp.keys,instructions_loop.key_resp.rt,instructions_loop.key_resp.duration,instructions_2.started,instructions_2_text_1.started,instructions_2_text_2.started,key_resp_2.started,instructions_2.stopped,instructions_loop.key_resp_2.keys,instructions_loop.key_resp_2.rt,instructions_loop.key_resp_2.duration,instructions_3.started,instructions_3_text_1.started,r1_instr3.started,r2_instr3.started,r3_instr3.started,r1_instr3_label.started,r2_instr3_label.started,r3_instr3_label.started,instructions_3_text_3.started,instructions_3_text_4.started,key_resp_3.started,instructions_3.stopped,instructions_loop.key_resp_3.keys,instructions_loop.key_resp_3.rt,instructions_loop.key_resp_3.duration,instructions_4.started,instructions_4_text_1.started,instructions_4_text_3.started,instructions_4_text_2.started,key_resp_4.started,instructions_4.stopped,instructions_loop.key_resp_4.keys,instructions_loop.key_resp_4.rt,instructions_loop.key_resp_4.duration,instructions_5.started,instructions_5_text_1.started,instructions_5_text_2.started,key_resp_5.started,instructions_5.stopped,instructions_loop.key_resp_5.keys,instructions_loop.key_resp_5.rt,instructions_loop.key_resp_5.duration,start_exp.started,start_exp_text.started,key_resp_6.started,start_exp.stopped,key_resp_6.keys,key_resp_6.rt,key_resp_6.duration,h_1_tmp,w_1_tmp,h_2_tmp,w_2_tmp,h_3_tmp,w_3_tmp,config_tmp,config_tmp_1,r_1_x,r_1_y,r_2_x,r_2_y,r_3_x,r_3_y,pre_trial.started,pre_trial.stopped,choice_trial.started,rect_choice.started,r_1.started,r_2.started,r_3.started,r_1_label.started,r_2_label.started,r_3_label.started,prompt.started,choice_trial.stopped,trials.rect_choice.keys,trials.rect_choice.rt,trials.rect_choice.duration,end_block.started,end_block_text.started,end_block.stopped,end.started,end_text.started,key_resp_7.started,end.stopped,key_resp_7.keys,key_resp_7.rt,key_resp_7.duration,debriefing.started,debrief_form.started,end_debrief.started,debriefing.stopped,end_debrief.keys,end_debrief.rt,end_debrief.duration,participant,computer,date,expName,psychopyVersion,frameRate,expStart,
,,,,,,,,,,,,,,,,,,,,,,,,,,,,,,,0.015144824981689453,0.04165315628051758,0.04165315628051758,0.04165315628051758,0.014769315719604492,106.20054268836975,1,[106.1576497554779],[106.15766048431396],0,,,[-106.0],[-501.0],[1],[0],[0],[106.18466591835022],['agree_button'],,,,,,,,,,,,,,,,,,,,,,,,,,,,,,,,,,,,,,,,,,,,,,,,,,,,,,,,,,,,,,,,,,,,,,,,,,,,,,,,,,,,,,,,,,,,,,,,,,,,,,,,,,,89,5,2025-02-24_10h59.12.473,comp,2024.2.4,62.08614457296296,2025-02-24 10h59.21.245599 -0500,
,,,,,,,,,,,,,,,,,,,,,,,,,,,,,,,,,,,,,,,,,,,,,,,,,,106.20082187652588,106.20085716247559,,,,,,,,,,,,,,,,,,,,,,,,,,,,,,,,,,,,,,,,,,,,,,,,,,,,,,,,,,,,,,,,,,,,,,,,,,,,,,,,,,,,,,,,,,,,,,,,,,,,,,,,,89,5,2025-02-24_10h59.12.473,comp,2024.2.4,62.08614457296296,2025-02-24 10h59.21.245599 -0500,
,,,,,,,,,,,,,,,,,,,,,,,,,,,,,,,,,,,,,,,,,,,,,,,,,,,,106.20088076591492,106.21440172195435,108.20385956764221,,,,,,,,,,,,,,,,,,,,,,,,,,,,,,,,,,,,,,,,,,,,,,,,,,,,,,,,,,,,,,,,,,,,,,,,,,,,,,,,,,,,,,,,,,,,,,,,,,,,,,89,5,2025-02-24_10h59.12.473,comp,2024.2.4,62.08614457296296,2025-02-24 10h59.21.245599 -0500,
0,0,0,,,,,,,,,,,,,,,0,0,0,0,,,,,,,,,108.22062468528748,,,,,,,,,,,,,,,,,,,,,,,,,,108.2044243812561,108.22062468528748,108.22062468528748,109.70384645462036,114.52189040184021,space,4.811692476272583,None,114.52197313308716,114.53782677650452,114.53782677650452,116.03716158866882,123.77160358428955,space,7.717394590377808,None,123.77168941497803,123.79347777366638,123.79347777366638,123.79347777366638,123.79347777366638,123.79347777366638,123.79347777366638,123.79347777366638,123.79347777366638,123.79347777366638,125.27081036567688,130.6718626022339,space,5.388064384460449,None,130.67195320129395,130.68737077713013,130.68737077713013,130.68737077713013,132.1870892047882,139.65475749969482,space,7.455105781555176,None,139.65484595298767,139.67032480239868,139.67032480239868,141.17035293579102,143.35462284088135,space,2.1768712997436523,None,143.35473442077637,143.37052822113037,143.37052822113037,145.0714771747589,space,1.6985905170440674,None,,,,,,,,,,,,,,,,,,,,,,,,,,,,,,,,,,,,,,,,,,,,,,,89,5,2025-02-24_10h59.12.473,comp,2024.2.4,62.08614457296296,2025-02-24 10h59.21.245599 -0500,
0,0,0,critical,wdh,20.0,2.1,upper,125.0,200.0,141.0,141.0,200.0,125.0,1,4.080465316772461,None,,,,,0,0,0,0,0,0,0,35,145.13118267059326,,,,,,,,,,,,,,,,,,,,,,,,,,,,,,,,,,,,,,,,,,,,,,,,,,,,,,,,,,,,,,,,,,,,,,,,,,,,,,,,,125.0,200.0,141.0,141.0,200.0,125.0,2.1,2.12,-266,-256,0,-259,229,262,145.1169753074646,145.11702227592468,145.1190333366394,145.13118267059326,145.2771668434143,145.2771668434143,145.2771668434143,145.2771668434143,145.2771668434143,145.2771668434143,145.2771668434143,149.22168827056885,1,4.080465316772461,None,,,,,,,,,,,,,,,,,,89,5,2025-02-24_10h59.12.473,comp,2024.2.4,62.08614457296296,2025-02-24 10h59.21.245599 -0500,
1,1,0,filler_square,None,None,None,None,None,None,None,None,None,None,3,4.726368427276611,None,,,,,0,0,0,0,0,1,1,203,149.23718762397766,,,,,,,,,,,,,,,,,,,,,,,,,,,,,,,,,,,,,,,,,,,,,,,,,,,,,,,,,,,,,,,,,,,,,,,,,,,,,,,,,57.158501317129094,57.44315773720828,59.01901994752674,59.01901994752674,57.27929250810529,58.29130450026982,4.0,4.1,-154,-264,0,13,155,-268,149.22267532348633,149.22271466255188,149.22510766983032,149.23718762397766,149.3870279788971,149.3870279788971,149.3870279788971,149.3870279788971,149.3870279788971,149.3870279788971,149.3870279788971,153.97150373458862,3,4.726368427276611,None,,,,,,,,,,,,,,,,,,89,5,2025-02-24_10h59.12.473,comp,2024.2.4,62.08614457296296,2025-02-24 10h59.21.245599 -0500,
2,2,0,critical,dwh,20.0,3.0,lower,78.0,78.0,57.0,133.0,133.0,57.0,2,8.249730825424194,None,,,,,0,0,0,0,0,2,2,68,153.98712992668152,,,,,,,,,,,,,,,,,,,,,,,,,,,,,,,,,,,,,,,,,,,,,,,,,,,,,,,,,,,,,,,,,,,,,,,,,,,,,,,,,78.0,78.0,57.0,133.0,133.0,57.0,3.0,3.2,-202,-264,0,10,191,274,153.97231006622314,153.97234988212585,153.97478938102722,153.98712992668152,154.13707661628723,154.13707661628723,154.13707661628723,154.13707661628723,154.13707661628723,154.13707661628723,154.13707661628723,162.25464248657227,2,8.249730825424194,None,,,,,,,,,,,,,,,,,,89,5,2025-02-24_10h59.12.473,comp,2024.2.4,62.08614457296296,2025-02-24 10h59.21.245599 -0500,
3,3,0,critical,whd,20.0,4.0,upper,125.0,200.0,200.0,125.0,141.0,141.0,1,3.755983829498291,None,,,,,0,0,0,0,0,3,3,95,162.2701060771942,,,,,,,,,,,,,,,,,,,,,,,,,,,,,,,,,,,,,,,,,,,,,,,,,,,,,,,,,,,,,,,,,,,,,,,,,,,,,,,,,125.0,200.0,200.0,125.0,141.0,141.0,4.0,4.1,-258,-265,0,14,229,-289,162.25546503067017,162.2555046081543,162.25794863700867,162.2701060771942,162.4205300807953,162.4205300807953,162.4205300807953,162.4205300807953,162.4205300807953,162.4205300807953,162.4205300807953,166.0386254787445,1,3.755983829498291,None,,,,,,,,,,,,,,,,,,89,5,2025-02-24_10h59.12.473,comp,2024.2.4,62.08614457296296,2025-02-24 10h59.21.245599 -0500,
4,4,0,critical,hwd,20.0,3.0,upper,200.0,125.0,125.0,200.0,141.0,141.0,2,6.399075269699097,None,,,,,0,0,0,0,0,4,4,105,166.05341219902039,,,,,,,,,,,,,,,,,,,,,,,,,,,,,,,,,,,,,,,,,,,,,,,,,,,,,,,,,,,,,,,,,,,,,,,,,,,,,,,,,200.0,125.0,125.0,200.0,141.0,141.0,3.0,3.2,-258,-257,0,16,266,255,166.03943395614624,166.0394868850708,166.04176712036133,166.05341219902039,166.2038173675537,166.2038173675537,166.2038173675537,166.2038173675537,166.2038173675537,166.2038173675537,166.2038173675537,172.45507979393005,2,6.399075269699097,None,,,,,,,,,,,,,,,,,,89,5,2025-02-24_10h59.12.473,comp,2024.2.4,62.08614457296296,2025-02-24 10h59.21.245599 -0500,
5,5,0,critical,whd,20.0,1.0,upper,125.0,200.0,200.0,125.0,141.0,141.0,1,5.851989507675171,None,,,,,0,0,0,0,0,5,5,91,172.47024989128113,,,,,,,,,,,,,,,,,,,,,,,,,,,,,,,,,,,,,,,,,,,,,,,,,,,,,,,,,,,,,,,,,,,,,,,,,,,,,,,,,125.0,200.0,200.0,125.0,141.0,141.0,1.0,1.1,-738,253,-480,270,-251,260,172.45588898658752,172.4559302330017,172.45808243751526,172.47024989128113,172.6209352016449,172.6209352016449,172.6209352016449,172.6209352016449,172.6209352016449,172.6209352016449,172.6209352016449,178.33811473846436,1,5.851989507675171,None,,,,,,,,,,,,,,,,,,89,5,2025-02-24_10h59.12.473,comp,2024.2.4,62.08614457296296,2025-02-24 10h59.21.245599 -0500,
6,6,0,filler_random,None,None,None,None,None,None,None,None,None,None,2,4.472625494003296,None,,,,,0,0,0,0,0,6,6,159,178.35338497161865,,,,,,,,,,,,,,,,,,,,,,,,,,,,,,,,,,,,,,,,,,,,,,,,,,,,,,,,,,,,,,,,,,,,,,,,,,,,,,,,,185.80694183516712,156.70150154522395,188.30048126288813,186.50897495545757,159.4758779239943,165.72430701180542,2.1,2.12,-268,-278,0,-253,272,274,178.33904695510864,178.33908891677856,178.34125018119812,178.35338497161865,178.50387024879456,178.50387024879456,178.50387024879456,178.50387024879456,178.50387024879456,178.50387024879456,178.50387024879456,182.83834075927734,2,4.472625494003296,None,,,,,,,,,,,,,,,,,,89,5,2025-02-24_10h59.12.473,comp,2024.2.4,62.08614457296296,2025-02-24 10h59.21.245599 -0500,
7,7,0,filler_random,None,None,None,None,None,None,None,None,None,None,2,3.9097187519073486,None,,,,,0,0,0,0,0,7,7,144,182.8533239364624,,,,,,,,,,,,,,,,,,,,,,,,,,,,,,,,,,,,,,,,,,,,,,,,,,,,,,,,,,,,,,,,,,,,,,,,,,,,,,,,,57.83636746568148,91.82730145736222,170.21105898658072,134.80134347539354,99.87252418623697,155.19396096426937,1.0,1.3,271,-251,480,-253,721,-275,182.8392539024353,182.83929300308228,182.84133386611938,182.8533239364624,183.00342750549316,183.00342750549316,183.00342750549316,183.00342750549316,183.00342750549316,183.00342750549316,183.00342750549316,186.7712481021881,2,3.9097187519073486,None,,,,,,,,,,,,,,,,,,89,5,2025-02-24_10h59.12.473,comp,2024.2.4,62.08614457296296,2025-02-24 10h59.21.245599 -0500,
8,8,0,critical,hwd,20.0,2.1,upper,200.0,125.0,125.0,200.0,141.0,141.0,2,6.183806419372559,None,,,,,0,0,0,0,0,8,8,19,186.7869200706482,,,,,,,,,,,,,,,,,,,,,,,,,,,,,,,,,,,,,,,,,,,,,,,,,,,,,,,,,,,,,,,,,,,,,,,,,,,,,,,,,200.0,125.0,125.0,200.0,141.0,141.0,2.1,2.12,-258,-251,0,-269,266,254,186.7720284461975,186.77206897735596,186.77544617652893,186.7869200706482,186.9370322227478,186.9370322227478,186.9370322227478,186.9370322227478,186.9370322227478,186.9370322227478,186.9370322227478,192.98800921440125,2,6.183806419372559,None,,,,,,,,,,,,,,,,,,89,5,2025-02-24_10h59.12.473,comp,2024.2.4,62.08614457296296,2025-02-24 10h59.21.245599 -0500,
9,9,0,catch,None,None,None,None,None,None,None,None,None,None,1,2.5755116939544678,None,,,,,0,0,0,0,0,9,9,123,193.00325918197632,,,,,,,,,,,,,,,,,,,,,,,,,,,,,,,,,,,,,,,,,,,,,,,,,,,,,,,,,,,,,,,,,,,,,,,,,,,,,,,,,163,162,62,128,133,57,3.0,3.1,-241,271,0,17,188,-252,192.98901963233948,192.9890582561493,192.99159741401672,193.00325918197632,193.15334486961365,193.15334486961365,193.15334486961365,193.15334486961365,193.15334486961365,193.15334486961365,193.15334486961365,195.58783340454102,1,2.5755116939544678,None,,,,,,,,,,,,,,,,,,89,5,2025-02-24_10h59.12.473,comp,2024.2.4,62.08614457296296,2025-02-24 10h59.21.245599 -0500,
10,10,0,critical,hwd,35.0,4.0,lower,133.0,57.0,57.0,133.0,70.0,70.0,2,5.665556907653809,None,,,,,0,0,0,0,0,10,10,100,195.6033239364624,,,,,,,,,,,,,,,,,,,,,,,,,,,,,,,,,,,,,,,,,,,,,,,,,,,,,,,,,,,,,,,,,,,,,,,,,,,,,,,,,133.0,57.0,57.0,133.0,70.0,70.0,4.0,4.2,-191,-3,0,-251,198,-13,195.5886344909668,195.5886743068695,195.5911455154419,195.6033239364624,195.75332474708557,195.75332474708557,195.75332474708557,195.75332474708557,195.75332474708557,195.75332474708557,195.75332474708557,201.27129888534546,2,5.665556907653809,None,,,,,,,,,,,,,,,,,,89,5,2025-02-24_10h59.12.473,comp,2024.2.4,62.08614457296296,2025-02-24 10h59.21.245599 -0500,
11,11,0,critical,hwd,20.0,4.0,upper,200.0,125.0,125.0,200.0,141.0,141.0,1,3.9879775047302246,None,,,,,0,0,0,0,0,11,11,107,201.2866997718811,,,,,,,,,,,,,,,,,,,,,,,,,,,,,,,,,,,,,,,,,,,,,,,,,,,,,,,,,,,,,,,,,,,,,,,,,,,,,,,,,200.0,125.0,125.0,200.0,141.0,141.0,4.0,4.1,-258,-288,0,-19,266,-256,201.2720549106598,201.27209520339966,201.27435898780823,201.2866997718811,201.43737864494324,201.43737864494324,201.43737864494324,201.43737864494324,201.43737864494324,201.43737864494324,201.43737864494324,205.288015127182,1,3.9879775047302246,None,,,,,,,,,,,,,,,,,,89,5,2025-02-24_10h59.12.473,comp,2024.2.4,62.08614457296296,2025-02-24 10h59.21.245599 -0500,
12,12,0,critical,dwh,35.0,3.0,upper,127.0,127.0,125.0,200.0,200.0,125.0,2,4.634743690490723,None,,,,,0,0,0,0,0,12,12,63,205.30317378044128,,,,,,,,,,,,,,,,,,,,,,,,,,,,,,,,,,,,,,,,,,,,,,,,,,,,,,,,,,,,,,,,,,,,,,,,,,,,,,,,,127.0,127.0,125.0,200.0,200.0,125.0,3.0,3.2,-260,-261,0,-4,258,271,205.28877973556519,205.28881859779358,205.2913043498993,205.30317378044128,205.4533793926239,205.4533793926239,205.4533793926239,205.4533793926239,205.4533793926239,205.4533793926239,205.4533793926239,209.9545202255249,2,4.634743690490723,None,,,,,,,,,,,,,,,,,,89,5,2025-02-24_10h59.12.473,comp,2024.2.4,62.08614457296296,2025-02-24 10h59.21.245599 -0500,
13,13,0,critical,dhw,35.0,2.1,upper,127.0,127.0,200.0,125.0,125.0,200.0,3,3.8720459938049316,None,,,,,0,0,0,0,0,13,13,1,209.9697425365448,,,,,,,,,,,,,,,,,,,,,,,,,,,,,,,,,,,,,,,,,,,,,,,,,,,,,,,,,,,,,,,,,,,,,,,,,,,,,,,,,127.0,127.0,200.0,125.0,125.0,200.0,2.1,2.12,-222,-266,0,-269,258,268,209.9553120136261,209.9553520679474,209.9577121734619,209.9697425365448,210.1201410293579,210.1201410293579,210.1201410293579,210.1201410293579,210.1201410293579,210.1201410293579,210.1201410293579,213.85469675064087,3,3.8720459938049316,None,,,,,,,,,,,,,,,,,,89,5,2025-02-24_10h59.12.473,comp,2024.2.4,62.08614457296296,2025-02-24 10h59.21.245599 -0500,
14,14,0,critical,whd,20.0,3.0,upper,125.0,200.0,200.0,125.0,141.0,141.0,1,4.883907079696655,None,,,,,0,0,0,0,0,14,14,93,213.86997032165527,,,,,,,,,,,,,,,,,,,,,,,,,,,,,,,,,,,,,,,,,,,,,,,,,,,,,,,,,,,,,,,,,,,,,,,,,,,,,,,,,125.0,200.0,200.0,125.0,141.0,141.0,3.0,3.1,-258,256,0,-14,229,-278,213.85550785064697,213.85554838180542,213.8579523563385,213.86997032165527,214.02009463310242,214.02009463310242,214.02009463310242,214.02009463310242,214.02009463310242,214.02009463310242,214.02009463310242,218.77143621444702,1,4.883907079696655,None,,,,,,,,,,,,,,,,,,89,5,2025-02-24_10h59.12.473,comp,2024.2.4,62.08614457296296,2025-02-24 10h59.21.245599 -0500,
15,15,0,critical,dwh,20.0,4.0,upper,141.0,141.0,125.0,200.0,200.0,125.0,2,2.9122605323791504,None,,,,,0,0,0,0,0,15,15,71,218.7863495349884,,,,,,,,,,,,,,,,,,,,,,,,,,,,,,,,,,,,,,,,,,,,,,,,,,,,,,,,,,,,,,,,,,,,,,,,,,,,,,,,,141.0,141.0,125.0,200.0,200.0,125.0,4.0,4.1,-266,-282,0,14,258,-265,218.77223777770996,218.77227759361267,218.7744700908661,218.7863495349884,218.93675994873047,218.93675994873047,218.93675994873047,218.93675994873047,218.93675994873047,218.93675994873047,218.93675994873047,221.70463728904724,2,2.9122605323791504,None,,,,,,,,,,,,,,,,,,89,5,2025-02-24_10h59.12.473,comp,2024.2.4,62.08614457296296,2025-02-24 10h59.21.245599 -0500,
16,16,0,critical,wdh,20.0,1.0,upper,125.0,200.0,141.0,141.0,200.0,125.0,1,3.8582353591918945,None,,,,,0,0,0,0,0,16,16,79,221.72023916244507,,,,,,,,,,,,,,,,,,,,,,,,,,,,,,,,,,,,,,,,,,,,,,,,,,,,,,,,,,,,,,,,,,,,,,,,,,,,,,,,,125.0,200.0,141.0,141.0,200.0,125.0,1.0,1.1,-746,268,-480,290,-251,264,221.70545196533203,221.705495595932,221.70760989189148,221.72023916244507,221.87061858177185,221.87061858177185,221.87061858177185,221.87061858177185,221.87061858177185,221.87061858177185,221.87061858177185,225.58773565292358,1,3.8582353591918945,None,,,,,,,,,,,,,,,,,,89,5,2025-02-24_10h59.12.473,comp,2024.2.4,62.08614457296296,2025-02-24 10h59.21.245599 -0500,
17,17,0,critical,dwh,35.0,2.1,upper,127.0,127.0,125.0,200.0,200.0,125.0,2,3.9188852310180664,None,,,,,0,0,0,0,0,17,17,29,225.60317945480347,,,,,,,,,,,,,,,,,,,,,,,,,,,,,,,,,,,,,,,,,,,,,,,,,,,,,,,,,,,,,,,,,,,,,,,,,,,,,,,,,127.0,127.0,125.0,200.0,200.0,125.0,2.1,2.11,-260,279,0,252,258,-260,225.58851408958435,225.58855319023132,225.5909698009491,225.60317945480347,225.75328397750854,225.75328397750854,225.75328397750854,225.75328397750854,225.75328397750854,225.75328397750854,225.75328397750854,229.5377471446991,2,3.9188852310180664,None,,,,,,,,,,,,,,,,,,89,5,2025-02-24_10h59.12.473,comp,2024.2.4,62.08614457296296,2025-02-24 10h59.21.245599 -0500,
18,18,0,filler_random,None,None,None,None,None,None,None,None,None,None,1,2.433950424194336,None,,,,,0,0,0,0,0,18,18,139,229.55301642417908,,,,,,,,,,,,,,,,,,,,,,,,,,,,,,,,,,,,,,,,,,,,,,,,,,,,,,,,,,,,,,,,,,,,,,,,,,,,,,,,,193.08437417994077,150.03982128159475,176.46124023423417,182.72745322954506,97.50102398295253,98.07723095346338,1.0,1.3,218,-270,480,-286,716,-289,229.53866934776306,229.53870916366577,229.5412220954895,229.55301642417908,229.70342469215393,229.70342469215393,229.70342469215393,229.70342469215393,229.70342469215393,229.70342469215393,229.70342469215393,232.00444555282593,1,2.433950424194336,None,,,,,,,,,,,,,,,,,,89,5,2025-02-24_10h59.12.473,comp,2024.2.4,62.08614457296296,2025-02-24 10h59.21.245599 -0500,
19,19,0,filler_random,None,None,None,None,None,None,None,None,None,None,1,5.848990201950073,None,,,,,0,0,0,0,0,19,19,130,232.01971530914307,,,,,,,,,,,,,,,,,,,,,,,,,,,,,,,,,,,,,,,,,,,,,,,,,,,,,,,,,,,,,,,,,,,,,,,,,,,,,,,,,96.42811927787378,183.02344695140278,92.37881295008702,115.48864084107669,117.41237284095132,114.72316268770274,3.0,3.2,-245,-253,0,-5,211,260,232.0053687095642,232.00541162490845,232.0075900554657,232.01971530914307,232.1700050830841,232.1700050830841,232.1700050830841,232.1700050830841,232.1700050830841,232.1700050830841,232.1700050830841,237.87112760543823,1,5.848990201950073,None,,,,,,,,,,,,,,,,,,89,5,2025-02-24_10h59.12.473,comp,2024.2.4,62.08614457296296,2025-02-24 10h59.21.245599 -0500,
20,20,0,critical,whd,35.0,4.0,lower,57.0,133.0,133.0,57.0,70.0,70.0,1,5.627887725830078,None,,,,,0,0,0,0,0,20,20,88,237.88649201393127,,,,,,,,,,,,,,,,,,,,,,,,,,,,,,,,,,,,,,,,,,,,,,,,,,,,,,,,,,,,,,,,,,,,,,,,,,,,,,,,,57.0,133.0,133.0,57.0,70.0,70.0,4.0,4.2,-191,8,0,-270,160,3,237.8719687461853,237.87201023101807,237.8741660118103,237.88649201393127,238.0362992286682,238.0362992286682,238.0362992286682,238.0362992286682,238.0362992286682,238.0362992286682,238.0362992286682,243.52071714401245,1,5.627887725830078,None,,,,,,,,,,,,,,,,,,89,5,2025-02-24_10h59.12.473,comp,2024.2.4,62.08614457296296,2025-02-24 10h59.21.245599 -0500,
21,21,0,critical,dhw,20.0,3.0,lower,78.0,78.0,133.0,57.0,57.0,133.0,3,4.0667641162872314,None,,,,,0,0,0,0,0,21,21,56,243.53648781776428,,,,,,,,,,,,,,,,,,,,,,,,,,,,,,,,,,,,,,,,,,,,,,,,,,,,,,,,,,,,,,,,,,,,,,,,,,,,,,,,,78.0,78.0,133.0,57.0,57.0,133.0,3.0,3.2,-164,-261,0,-4,191,271,243.52152276039124,243.5215630531311,243.52421474456787,243.53648781776428,243.68675327301025,243.68675327301025,243.68675327301025,243.68675327301025,243.68675327301025,243.68675327301025,243.68675327301025,247.6208779811859,3,4.0667641162872314,None,,,,,,,,,,,,,,,,,,89,5,2025-02-24_10h59.12.473,comp,2024.2.4,62.08614457296296,2025-02-24 10h59.21.245599 -0500,
22,22,0,critical,dwh,35.0,1.0,lower,70.0,70.0,57.0,133.0,133.0,57.0,2,3.8694941997528076,None,,,,,0,0,0,0,0,22,22,60,247.63618445396423,,,,,,,,,,,,,,,,,,,,,,,,,,,,,,,,,,,,,,,,,,,,,,,,,,,,,,,,,,,,,,,,,,,,,,,,,,,,,,,,,70.0,70.0,57.0,133.0,133.0,57.0,1.0,1.2,-198,-13,0,17,191,-6,247.6216700077057,247.62170958518982,247.62428379058838,247.63618445396423,247.78626036643982,247.78626036643982,247.78626036643982,247.78626036643982,247.78626036643982,247.78626036643982,247.78626036643982,251.52072143554688,2,3.8694941997528076,None,,,,,,,,,,,,,,,,,,89,5,2025-02-24_10h59.12.473,comp,2024.2.4,62.08614457296296,2025-02-24 10h59.21.245599 -0500,
23,23,0,critical,dwh,35.0,4.0,upper,127.0,127.0,125.0,200.0,200.0,125.0,3,8.185433149337769,None,,,,,0,0,0,0,0,23,23,65,251.53614616394043,,,,,,,,,,,,,,,,,,,,,,,,,,,,,,,,,,,,,,,,,,,,,,,,,,,,,,,,,,,,,,,,,,,,,,,,,,,,,,,,,127.0,127.0,125.0,200.0,200.0,125.0,4.0,4.1,-260,-275,0,11,258,-284,251.5215082168579,251.52154779434204,251.52404236793518,251.53614616394043,251.68655729293823,251.68655729293823,251.68655729293823,251.68655729293823,251.68655729293823,251.68655729293823,251.68655729293823,259.7375566959381,3,8.185433149337769,None,,,,,,,,,,,,,,,,,,89,5,2025-02-24_10h59.12.473,comp,2024.2.4,62.08614457296296,2025-02-24 10h59.21.245599 -0500,
24,24,0,critical,hdw,35.0,2.1,upper,200.0,125.0,127.0,127.0,125.0,200.0,3,2.857910633087158,None,,,,,0,0,0,0,0,24,24,45,259.75282311439514,,,,,,,,,,,,,,,,,,,,,,,,,,,,,,,,,,,,,,,,,,,,,,,,,,,,,,,,,,,,,,,,,,,,,,,,,,,,,,,,,200.0,125.0,127.0,127.0,125.0,200.0,2.1,2.11,-222,272,0,275,260,-286,259.7383990287781,259.73844027519226,259.7405774593353,259.75282311439514,259.90328788757324,259.90328788757324,259.90328788757324,259.90328788757324,259.90328788757324,259.90328788757324,259.90328788757324,262.62089371681213,3,2.857910633087158,None,,,,,,,,,,,,,,,,,,89,5,2025-02-24_10h59.12.473,comp,2024.2.4,62.08614457296296,2025-02-24 10h59.21.245599 -0500,
25,25,0,filler_square,None,None,None,None,None,None,None,None,None,None,2,2.1262400150299072,None,,,,,0,0,0,0,0,25,25,197,262.6363379955292,,,,,,,,,,,,,,,,,,,,,,,,,,,,,,,,,,,,,,,,,,,,,,,,,,,,,,,,,,,,,,,,,,,,,,,,,,,,,,,,,96.37225634428904,91.0303578133268,100.79865029279003,100.79865029279003,91.65123411593525,72.10388977629144,3.0,3.2,-192,-260,0,-12,182,254,262.62184476852417,262.62188625335693,262.6244421005249,262.6363379955292,262.7862460613251,262.7862460613251,262.7862460613251,262.7862460613251,262.7862460613251,262.7862460613251,262.7862460613251,264.77067470550537,2,2.1262400150299072,None,,,,,,,,,,,,,,,,,,89,5,2025-02-24_10h59.12.473,comp,2024.2.4,62.08614457296296,2025-02-24 10h59.21.245599 -0500,
26,26,0,filler_square,None,None,None,None,None,None,None,None,None,None,3,1.767228364944458,None,,,,,0,0,0,0,0,26,26,202,264.7862870693207,,,,,,,,,,,,,,,,,,,,,,,,,,,,,,,,,,,,,,,,,,,,,,,,,,,,,,,,,,,,,,,,,,,,,,,,,,,,,,,,,83.5949133342986,57.789673485389926,103.52692300930185,64.24941825264085,121.15305203909661,121.15305203909661,4.0,4.2,-157,-18,0,-253,189,-16,264.77160596847534,264.77164483070374,264.7741889953613,264.7862870693207,264.9363615512848,264.9363615512848,264.9363615512848,264.9363615512848,264.9363615512848,264.9363615512848,264.9363615512848,266.57079696655273,3,1.767228364944458,None,,,,,,,,,,,,,,,,,,89,5,2025-02-24_10h59.12.473,comp,2024.2.4,62.08614457296296,2025-02-24 10h59.21.245599 -0500,
27,27,0,filler_square,None,None,None,None,None,None,None,None,None,None,2,1.719395637512207,None,,,,,0,0,0,0,0,27,27,194,266.5861625671387,,,,,,,,,,,,,,,,,,,,,,,,,,,,,,,,,,,,,,,,,,,,,,,,,,,,,,,,,,,,,,,,,,,,,,,,,,,,,,,,,135.55821241958043,117.19595243268,182.2898799676342,182.2898799676342,154.57474835394993,160.02691873017898,3.0,3.2,-246,-270,0,8,267,251,266.5717875957489,266.57182788848877,266.5743656158447,266.5861625671387,266.73637342453003,266.73637342453003,266.73637342453003,266.73637342453003,266.73637342453003,266.73637342453003,266.73637342453003,268.32079005241394,2,1.719395637512207,None,,,,,,,,,,,,,,,,,,89,5,2025-02-24_10h59.12.473,comp,2024.2.4,62.08614457296296,2025-02-24 10h59.21.245599 -0500,
28,28,0,filler_square,None,None,None,None,None,None,None,None,None,None,2,1.458169937133789,None,,,,,0,0,0,0,0,28,28,208,268.33615803718567,,,,,,,,,,,,,,,,,,,,,,,,,,,,,,,,,,,,,,,,,,,,,,,,,,,,,,,,,,,,,,,,,,,,,,,,,,,,,,,,,110.07148399955244,116.40687519826704,151.70267146114867,151.70267146114867,81.38435879426775,125.21378892605213,1.0,1.3,250,-277,480,-259,714,-259,268.32177996635437,268.32182025909424,268.3239743709564,268.33615803718567,268.48631525039673,268.48631525039673,268.48631525039673,268.48631525039673,268.48631525039673,268.48631525039673,268.48631525039673,269.80397605895996,2,1.458169937133789,None,,,,,,,,,,,,,,,,,,89,5,2025-02-24_10h59.12.473,comp,2024.2.4,62.08614457296296,2025-02-24 10h59.21.245599 -0500,
29,29,0,critical,dhw,20.0,4.0,upper,141.0,141.0,200.0,125.0,125.0,200.0,3,4.069936513900757,None,,,,,0,0,0,0,0,29,29,59,269.8196527957916,,,,,,,,,,,,,,,,,,,,,,,,,,,,,,,,,,,,,,,,,,,,,,,,,,,,,,,,,,,,,,,,,,,,,,,,,,,,,,,,,141.0,141.0,200.0,125.0,125.0,200.0,4.0,4.1,-229,-286,0,8,258,-273,269.8048503398895,269.80489134788513,269.80746388435364,269.8196527957916,269.96996665000916,269.96996665000916,269.96996665000916,269.96996665000916,269.96996665000916,269.96996665000916,269.96996665000916,273.90414571762085,3,4.069936513900757,None,,,,,,,,,,,,,,,,,,89,5,2025-02-24_10h59.12.473,comp,2024.2.4,62.08614457296296,2025-02-24 10h59.21.245599 -0500,
30,30,0,filler_square,None,None,None,None,None,None,None,None,None,None,3,2.1861867904663086,None,,,,,0,0,0,0,0,30,30,206,273.91943192481995,,,,,,,,,,,,,,,,,,,,,,,,,,,,,,,,,,,,,,,,,,,,,,,,,,,,,,,,,,,,,,,,,,,,,,,,,,,,,,,,,110.53819804135924,108.0567727349592,97.44023702191181,66.12971404483143,150.2644330521758,150.2644330521758,2.2,2.21,-183,-264,0,267,204,282,273.9051628112793,273.905216217041,273.9073212146759,273.91943192481995,274.0694646835327,274.0694646835327,274.0694646835327,274.0694646835327,274.0694646835327,274.0694646835327,274.0694646835327,276.12072563171387,3,2.1861867904663086,None,,,,,,,,,,,,,,,,,,89,5,2025-02-24_10h59.12.473,comp,2024.2.4,62.08614457296296,2025-02-24 10h59.21.245599 -0500,
31,31,0,critical,hdw,35.0,1.0,upper,200.0,125.0,127.0,127.0,125.0,200.0,3,3.4750139713287354,None,,,,,0,0,0,0,0,31,31,109,276.1359131336212,,,,,,,,,,,,,,,,,,,,,,,,,,,,,,,,,,,,,,,,,,,,,,,,,,,,,,,,,,,,,,,,,,,,,,,,,,,,,,,,,200.0,125.0,127.0,127.0,125.0,200.0,1.0,1.1,-702,261,-480,285,-220,262,276.1215121746063,276.12155199050903,276.12398386001587,276.1359131336212,276.286257982254,276.286257982254,276.286257982254,276.286257982254,276.286257982254,276.286257982254,276.286257982254,279.6210057735443,3,3.4750139713287354,None,,,,,,,,,,,,,,,,,,89,5,2025-02-24_10h59.12.473,comp,2024.2.4,62.08614457296296,2025-02-24 10h59.21.245599 -0500,
32,32,0,critical,dwh,20.0,3.0,upper,141.0,141.0,125.0,200.0,200.0,125.0,2,4.366941928863525,None,,,,,0,0,0,0,0,32,32,69,279.63634848594666,,,,,,,,,,,,,,,,,,,,,,,,,,,,,,,,,,,,,,,,,,,,,,,,,,,,,,,,,,,,,,,,,,,,,,,,,,,,,,,,,141.0,141.0,125.0,200.0,200.0,125.0,3.0,3.1,-266,286,0,-17,258,-258,279.6218354701996,279.6218776702881,279.62433981895447,279.63634848594666,279.7863700389862,279.7863700389862,279.7863700389862,279.7863700389862,279.7863700389862,279.7863700389862,279.7863700389862,284.0207254886627,2,4.366941928863525,None,,,,,,,,,,,,,,,,,,89,5,2025-02-24_10h59.12.473,comp,2024.2.4,62.08614457296296,2025-02-24 10h59.21.245599 -0500,
33,33,0,critical,dhw,35.0,3.0,upper,127.0,127.0,200.0,125.0,125.0,200.0,3,3.446697473526001,None,,,,,0,0,0,0,0,33,33,51,284.03605914115906,,,,,,,,,,,,,,,,,,,,,,,,,,,,,,,,,,,,,,,,,,,,,,,,,,,,,,,,,,,,,,,,,,,,,,,,,,,,,,,,,127.0,127.0,200.0,125.0,125.0,200.0,3.0,3.1,-222,288,0,-6,258,-260,284.02155590057373,284.0215973854065,284.0240364074707,284.03605914115906,284.1863808631897,284.1863808631897,284.1863808631897,284.1863808631897,284.1863808631897,284.1863808631897,284.1863808631897,287.48750281333923,3,3.446697473526001,None,,,,,,,,,,,,,,,,,,89,5,2025-02-24_10h59.12.473,comp,2024.2.4,62.08614457296296,2025-02-24 10h59.21.245599 -0500,
34,34,0,critical,hdw,35.0,2.1,upper,200.0,125.0,127.0,127.0,125.0,200.0,3,4.364530086517334,None,,,,,0,0,0,0,0,34,34,21,287.502804517746,,,,,,,,,,,,,,,,,,,,,,,,,,,,,,,,,,,,,,,,,,,,,,,,,,,,,,,,,,,,,,,,,,,,,,,,,,,,,,,,,200.0,125.0,127.0,127.0,125.0,200.0,2.1,2.11,-222,253,0,271,260,-270,287.48828530311584,287.48832535743713,287.4904160499573,287.502804517746,287.65293741226196,287.65293741226196,287.65293741226196,287.65293741226196,287.65293741226196,287.65293741226196,287.65293741226196,291.87075662612915,3,4.364530086517334,None,,,,,,,,,,,,,,,,,,89,5,2025-02-24_10h59.12.473,comp,2024.2.4,62.08614457296296,2025-02-24 10h59.21.245599 -0500,
35,35,0,filler_random,None,None,None,None,None,None,None,None,None,None,3,2.133437156677246,None,,,,,0,0,0,0,0,35,35,146,291.8861403465271,,,,,,,,,,,,,,,,,,,,,,,,,,,,,,,,,,,,,,,,,,,,,,,,,,,,,,,,,,,,,,,,,,,,,,,,,,,,,,,,,145.60560357496237,80.926207837465,153.20056153727802,69.5535347197281,155.29618769304898,189.74319306299554,3.0,3.2,-171,-273,0,-8,226,279,291.87166929244995,291.87171173095703,291.87383913993835,291.8861403465271,292.0362515449524,292.0362515449524,292.0362515449524,292.0362515449524,292.0362515449524,292.0362515449524,292.0362515449524,294.03728127479553,3,2.133437156677246,None,,,,,,,,,,,,,,,,,,89,5,2025-02-24_10h59.12.473,comp,2024.2.4,62.08614457296296,2025-02-24 10h59.21.245599 -0500,
36,36,0,filler_random,None,None,None,None,None,None,None,None,None,None,1,2.10072660446167,None,,,,,0,0,0,0,0,36,36,137,294.0525493621826,,,,,,,,,,,,,,,,,,,,,,,,,,,,,,,,,,,,,,,,,,,,,,,,,,,,,,,,,,,,,,,,,,,,,,,,,,,,,,,,,120.58960507185225,108.05081826796192,96.08194897917008,83.29280914078369,86.39518651356394,141.6119699422331,1.0,1.3,288,-263,480,-283,688,-251,294.03818464279175,294.03823947906494,294.0403666496277,294.0525493621826,294.2027893066406,294.2027893066406,294.2027893066406,294.2027893066406,294.2027893066406,294.2027893066406,294.2027893066406,296.1704435348511,1,2.10072660446167,None,,,,,,,,,,,,,,,,,,89,5,2025-02-24_10h59.12.473,comp,2024.2.4,62.08614457296296,2025-02-24 10h59.21.245599 -0500,
37,37,0,critical,dhw,35.0,3.0,lower,70.0,70.0,133.0,57.0,57.0,133.0,2,4.417021989822388,None,,,,,0,0,0,0,0,37,37,50,296.18575167655945,,,,,,,,,,,,,,,,,,,,,,,,,,,,,,,,,,,,,,,,,,,,,,,,,,,,,,,,,,,,,,,,,,,,,,,,,,,,,,,,,70.0,70.0,133.0,57.0,57.0,133.0,3.0,3.2,-160,-278,0,1,191,271,296.1712489128113,296.17129015922546,296.17370867729187,296.18575167655945,296.33587408065796,296.33587408065796,296.33587408065796,296.33587408065796,296.33587408065796,296.33587408065796,296.33587408065796,300.62051010131836,2,4.417021989822388,None,,,,,,,,,,,,,,,,,,89,5,2025-02-24_10h59.12.473,comp,2024.2.4,62.08614457296296,2025-02-24 10h59.21.245599 -0500,
38,38,0,critical,hwd,35.0,3.0,upper,200.0,125.0,125.0,200.0,127.0,127.0,1,2.869361162185669,None,,,,,0,0,0,0,0,38,38,99,300.63584089279175,,,,,,,,,,,,,,,,,,,,,,,,,,,,,,,,,,,,,,,,,,,,,,,,,,,,,,,,,,,,,,,,,,,,,,,,,,,,,,,,,200.0,125.0,125.0,200.0,127.0,127.0,3.0,3.2,-258,-285,0,-5,260,286,300.6213161945343,300.62135577201843,300.6247181892395,300.63584089279175,300.7860589027405,300.7860589027405,300.7860589027405,300.7860589027405,300.7860589027405,300.7860589027405,300.7860589027405,303.52057933807373,1,2.869361162185669,None,,,,,,,,,,,,,,,,,,89,5,2025-02-24_10h59.12.473,comp,2024.2.4,62.08614457296296,2025-02-24 10h59.21.245599 -0500,
39,39,0,filler_square,None,None,None,None,None,None,None,None,None,None,3,2.2892942428588867,None,,,,,0,0,0,0,0,39,39,172,303.5358507633209,,,,,,,,,,,,,,,,,,,,,,,,,,,,,,,,,,,,,,,,,,,,,,,,,,,,,,,,,,,,,,,,,,,,,,,,,,,,,,,,,161.5202774125553,108.65270410434945,122.78235773387478,87.66993909245888,166.2254786662172,166.2254786662172,4.0,4.1,-194,-277,0,-17,223,-259,303.5215742588043,303.52161693573,303.5237772464752,303.5358507633209,303.68635869026184,303.68635869026184,303.68635869026184,303.68635869026184,303.68635869026184,303.68635869026184,303.68635869026184,305.8373963832855,3,2.2892942428588867,None,,,,,,,,,,,,,,,,,,89,5,2025-02-24_10h59.12.473,comp,2024.2.4,62.08614457296296,2025-02-24 10h59.21.245599 -0500,
40,40,0,filler_random,None,None,None,None,None,None,None,None,None,None,1,1.6047515869140625,None,,,,,0,0,0,0,0,40,40,143,305.8525459766388,,,,,,,,,,,,,,,,,,,,,,,,,,,,,,,,,,,,,,,,,,,,,,,,,,,,,,,,,,,,,,,,,,,,,,,,,,,,,,,,,187.63109322702252,128.74033207530607,122.90801021679412,95.98856167815038,96.84192401283931,67.76637143992852,1.0,1.1,-688,289,-480,276,-302,275,305.83832836151123,305.8383686542511,305.84049105644226,305.8525459766388,306.00272822380066,306.00272822380066,306.00272822380066,306.00272822380066,306.00272822380066,306.00272822380066,306.00272822380066,307.4704875946045,1,1.6047515869140625,None,,,,,,,,,,,,,,,,,,89,5,2025-02-24_10h59.12.473,comp,2024.2.4,62.08614457296296,2025-02-24 10h59.21.245599 -0500,
41,41,0,critical,wdh,20.0,4.0,lower,57.0,133.0,78.0,78.0,133.0,57.0,3,3.939311981201172,None,,,,,0,0,0,0,0,41,41,82,307.4857771396637,,,,,,,,,,,,,,,,,,,,,,,,,,,,,,,,,,,,,,,,,,,,,,,,,,,,,,,,,,,,,,,,,,,,,,,,,,,,,,,,,57.0,133.0,78.0,78.0,133.0,57.0,4.0,4.2,-202,-13,0,-278,164,-6,307.4712932109833,307.47133445739746,307.473774433136,307.4857771396637,307.6359438896179,307.6359438896179,307.6359438896179,307.6359438896179,307.6359438896179,307.6359438896179,307.6359438896179,311.4373164176941,3,3.939311981201172,None,,,,,,,,,,,,,,,,,,89,5,2025-02-24_10h59.12.473,comp,2024.2.4,62.08614457296296,2025-02-24 10h59.21.245599 -0500,
42,42,0,critical,wdh,35.0,1.0,lower,57.0,133.0,70.0,70.0,133.0,57.0,1,3.268949270248413,None,,,,,0,0,0,0,0,42,42,72,311.4524841308594,,,,,,,,,,,,,,,,,,,,,,,,,,,,,,,,,,,,,,,,,,,,,,,,,,,,,,,,,,,,,,,,,,,,,,,,,,,,,,,,,57.0,133.0,70.0,70.0,133.0,57.0,1.0,1.1,-678,251,-480,284,-320,285,311.4381310939789,311.43817138671875,311.440283536911,311.4524841308594,311.60256910324097,311.60256910324097,311.60256910324097,311.60256910324097,311.60256910324097,311.60256910324097,311.60256910324097,314.7369384765625,1,3.268949270248413,None,,,,,,,,,,,,,,,,,,89,5,2025-02-24_10h59.12.473,comp,2024.2.4,62.08614457296296,2025-02-24 10h59.21.245599 -0500,
43,43,0,critical,dhw,35.0,1.0,upper,127.0,127.0,200.0,125.0,125.0,200.0,3,8.45055341720581,None,,,,,0,0,0,0,0,43,43,49,314.7523877620697,,,,,,,,,,,,,,,,,,,,,,,,,,,,,,,,,,,,,,,,,,,,,,,,,,,,,,,,,,,,,,,,,,,,,,,,,,,,,,,,,127.0,127.0,200.0,125.0,125.0,200.0,1.0,1.3,258,-272,480,-275,738,-252,314.73773074150085,314.737770318985,314.74032759666443,314.7523877620697,314.90274238586426,314.90274238586426,314.90274238586426,314.90274238586426,314.90274238586426,314.90274238586426,314.90274238586426,323.2041599750519,3,8.45055341720581,None,,,,,,,,,,,,,,,,,,89,5,2025-02-24_10h59.12.473,comp,2024.2.4,62.08614457296296,2025-02-24 10h59.21.245599 -0500,
44,44,0,critical,hwd,35.0,1.0,lower,133.0,57.0,57.0,133.0,70.0,70.0,2,4.269899368286133,None,,,,,0,0,0,0,0,44,44,96,323.21927285194397,,,,,,,,,,,,,,,,,,,,,,,,,,,,,,,,,,,,,,,,,,,,,,,,,,,,,,,,,,,,,,,,,,,,,,,,,,,,,,,,,133.0,57.0,57.0,133.0,70.0,70.0,1.0,1.2,-191,-7,0,20,198,-15,323.20493936538696,323.2049813270569,323.20752334594727,323.21927285194397,323.3692979812622,323.3692979812622,323.3692979812622,323.3692979812622,323.3692979812622,323.3692979812622,323.3692979812622,327.5035743713379,2,4.269899368286133,None,,,,,,,,,,,,,,,,,,89,5,2025-02-24_10h59.12.473,comp,2024.2.4,62.08614457296296,2025-02-24 10h59.21.245599 -0500,
45,45,0,filler_square,None,None,None,None,None,None,None,None,None,None,1,1.8428633213043213,None,,,,,0,0,0,0,0,45,45,195,327.5190770626068,,,,,,,,,,,,,,,,,,,,,,,,,,,,,,,,,,,,,,,,,,,,,,,,,,,,,,,,,,,,,,,,,,,,,,,,,,,,,,,,,136.58650776405455,136.58650776405455,122.33031209279108,109.21931263771692,72.27519969330592,108.82713753347224,4.0,4.1,-219,-254,0,-7,205,-288,327.5045311450958,327.50457286834717,327.50701427459717,327.5190770626068,327.6693158149719,327.6693158149719,327.6693158149719,327.6693158149719,327.6693158149719,327.6693158149719,327.6693158149719,329.37033343315125,1,1.8428633213043213,None,,,,,,,,,,,,,,,,,,89,5,2025-02-24_10h59.12.473,comp,2024.2.4,62.08614457296296,2025-02-24 10h59.21.245599 -0500,
46,46,0,filler_square,None,None,None,None,None,None,None,None,None,None,1,1.791961669921875,None,,,,,0,0,0,0,0,46,46,178,329.3858823776245,,,,,,,,,,,,,,,,,,,,,,,,,,,,,,,,,,,,,,,,,,,,,,,,,,,,,,,,,,,,,,,,,,,,,,,,,,,,,,,,,129.74711907072748,129.74711907072748,97.71283207389577,94.49260998756554,70.23185601852403,95.30907726655091,2.2,2.22,-208,267,0,-287,191,-252,329.3712875843048,329.3713266849518,329.3737242221832,329.3858823776245,329.5357856750488,329.5357856750488,329.5357856750488,329.5357856750488,329.5357856750488,329.5357856750488,329.5357856750488,331.1870012283325,1,1.791961669921875,None,,,,,,,,,,,,,,,,,,89,5,2025-02-24_10h59.12.473,comp,2024.2.4,62.08614457296296,2025-02-24 10h59.21.245599 -0500,
47,47,0,critical,hwd,20.0,2.1,lower,133.0,57.0,57.0,133.0,78.0,78.0,1,4.638406753540039,None,,,,,0,0,0,0,0,47,47,42,331.2024943828583,,,,,,,,,,,,,,,,,,,,,,,,,,,,,,,,,,,,,,,,,,,,,,,,,,,,,,,,,,,,,,,,,,,,,,,,,,,,,,,,,133.0,57.0,57.0,133.0,78.0,78.0,2.1,2.11,-191,290,0,271,202,-261,331.18782114982605,331.1878626346588,331.1903293132782,331.2024943828583,331.3524785041809,331.3524785041809,331.3524785041809,331.3524785041809,331.3524785041809,331.3524785041809,331.3524785041809,335.8534948825836,1,4.638406753540039,None,,,,,,,,,,,,,,,,,,89,5,2025-02-24_10h59.12.473,comp,2024.2.4,62.08614457296296,2025-02-24 10h59.21.245599 -0500,
48,48,0,critical,dwh,35.0,4.0,lower,70.0,70.0,57.0,133.0,133.0,57.0,2,2.4047493934631348,None,,,,,0,0,0,0,0,48,48,64,335.86896085739136,,,,,,,,,,,,,,,,,,,,,,,,,,,,,,,,,,,,,,,,,,,,,,,,,,,,,,,,,,,,,,,,,,,,,,,,,,,,,,,,,70.0,70.0,57.0,133.0,133.0,57.0,4.0,4.1,-198,-261,0,8,191,-259,335.85428047180176,335.85432028770447,335.8567442893982,335.86896085739136,336.01903915405273,336.01903915405273,336.01903915405273,336.01903915405273,336.01903915405273,336.01903915405273,336.01903915405273,338.28679752349854,2,2.4047493934631348,None,,,,,,,,,,,,,,,,,,89,5,2025-02-24_10h59.12.473,comp,2024.2.4,62.08614457296296,2025-02-24 10h59.21.245599 -0500,
49,49,0,filler_random,None,None,None,None,None,None,None,None,None,None,1,1.9226953983306885,None,,,,,0,0,0,0,0,49,49,142,338.3022201061249,,,,,,,,,,,,,,,,,,,,,,,,,,,,,,,,,,,,,,,,,,,,,,,,,,,,,,,,,,,,,,,,,,,,,,,,,,,,,,,,,168.30687814536248,162.43094636112727,113.97732831375512,145.4441826842978,124.55479207831776,109.6538556096549,2.2,2.22,-250,256,0,-254,224,-277,338.28772807121277,338.2877690792084,338.2903299331665,338.3022201061249,338.45263934135437,338.45263934135437,338.45263934135437,338.45263934135437,338.45263934135437,338.45263934135437,338.45263934135437,340.2370693683624,1,1.9226953983306885,None,,,,,,,,,,,,,,,,,,89,5,2025-02-24_10h59.12.473,comp,2024.2.4,62.08614457296296,2025-02-24 10h59.21.245599 -0500,
50,50,0,filler_square,None,None,None,None,None,None,None,None,None,None,3,2.852764844894409,None,,,,,0,0,0,0,0,50,50,179,340.25226354599,,,,,,,,,,,,,,,,,,,,,,,,,,,,,,,,,,,,,,,,,,,,,,,,,,,,,,,,,,,,,,,,,,,,,,,,,,,,,,,,,92.74650196218381,96.64148299587441,77.20947677419274,66.50501265002353,105.9628377054637,105.9628377054637,3.0,3.1,-178,261,0,-11,182,-267,340.2380528450012,340.2380931377411,340.24066162109375,340.25226354599,340.4025959968567,340.4025959968567,340.4025959968567,340.4025959968567,340.4025959968567,340.4025959968567,340.4025959968567,343.1201922893524,3,2.852764844894409,None,,,,,,,,,,,,,,,,,,89,5,2025-02-24_10h59.12.473,comp,2024.2.4,62.08614457296296,2025-02-24 10h59.21.245599 -0500,
51,51,0,critical,hdw,35.0,3.0,lower,133.0,57.0,70.0,70.0,57.0,133.0,3,5.210279703140259,None,,,,,0,0,0,0,0,51,51,110,343.1355230808258,,,,,,,,,,,,,,,,,,,,,,,,,,,,,,,,,,,,,,,,,,,,,,,,,,,,,,,,,,,,,,,,,,,,,,,,,,,,,,,,,133.0,57.0,70.0,70.0,57.0,133.0,3.0,3.2,-160,-262,0,14,198,286,343.1209795475006,343.12102127075195,343.12307047843933,343.1355230808258,343.28579783439636,343.28579783439636,343.28579783439636,343.28579783439636,343.28579783439636,343.28579783439636,343.28579783439636,348.35335421562195,3,5.210279703140259,None,,,,,,,,,,,,,,,,,,89,5,2025-02-24_10h59.12.473,comp,2024.2.4,62.08614457296296,2025-02-24 10h59.21.245599 -0500,
52,52,0,catch,None,None,None,None,None,None,None,None,None,None,3,4.528602361679077,None,,,,,0,0,0,0,0,52,52,121,348.36925983428955,,,,,,,,,,,,,,,,,,,,,,,,,,,,,,,,,,,,,,,,,,,,,,,,,,,,,,,,,,,,,,,,,,,,,,,,,,,,,,,,,112,78,111,79,150,175,2.1,2.11,-174,268,0,255,223,-281,348.35439682006836,348.35443925857544,348.35682463645935,348.36925983428955,348.51900005340576,348.51900005340576,348.51900005340576,348.51900005340576,348.51900005340576,348.51900005340576,348.51900005340576,352.903621673584,3,4.528602361679077,None,,,,,,,,,,,,,,,,,,89,5,2025-02-24_10h59.12.473,comp,2024.2.4,62.08614457296296,2025-02-24 10h59.21.245599 -0500,
53,53,0,critical,dwh,20.0,1.0,upper,141.0,141.0,125.0,200.0,200.0,125.0,2,3.850337028503418,None,,,,,0,0,0,0,0,53,53,67,352.9191610813141,,,,,,,,,,,,,,,,,,,,,,,,,,,,,,,,,,,,,,,,,,,,,,,,,,,,,,,,,,,,,,,,,,,,,,,,,,,,,,,,,141.0,141.0,125.0,200.0,200.0,125.0,1.0,1.3,214,-283,480,-265,738,-281,352.90444111824036,352.90448236465454,352.90685963630676,352.9191610813141,353.06928062438965,353.06928062438965,353.06928062438965,353.06928062438965,353.06928062438965,353.06928062438965,353.06928062438965,356.78692960739136,2,3.850337028503418,None,,,,,,,,,,,,,,,,,,89,5,2025-02-24_10h59.12.473,comp,2024.2.4,62.08614457296296,2025-02-24 10h59.21.245599 -0500,
54,54,0,filler_square,None,None,None,None,None,None,None,None,None,None,1,1.8006138801574707,None,,,,,0,0,0,0,0,54,54,180,356.80223536491394,,,,,,,,,,,,,,,,,,,,,,,,,,,,,,,,,,,,,,,,,,,,,,,,,,,,,,,,,,,,,,,,,,,,,,,,,,,,,,,,,198.14436694754679,198.14436694754679,169.8201700444551,85.61802511156958,76.69189530027563,151.97986536952553,2.2,2.22,-238,261,0,-258,215,-281,356.7879238128662,356.78796672821045,356.79050731658936,356.80223536491394,356.95249223709106,356.95249223709106,356.95249223709106,356.95249223709106,356.95249223709106,356.95249223709106,356.95249223709106,358.6204390525818,1,1.8006138801574707,None,,,,,,,,,,,,,,,,,,89,5,2025-02-24_10h59.12.473,comp,2024.2.4,62.08614457296296,2025-02-24 10h59.21.245599 -0500,
55,55,0,critical,hwd,35.0,2.1,lower,133.0,57.0,57.0,133.0,70.0,70.0,2,2.6701152324676514,None,,,,,0,0,0,0,0,55,55,16,358.63547110557556,,,,,,,,,,,,,,,,,,,,,,,,,,,,,,,,,,,,,,,,,,,,,,,,,,,,,,,,,,,,,,,,,,,,,,,,,,,,,,,,,133.0,57.0,57.0,133.0,70.0,70.0,2.1,2.12,-191,-270,0,-288,198,258,358.6212360858917,358.62127685546875,358.62336897850037,358.63547110557556,358.78593587875366,358.78593587875366,358.78593587875366,358.78593587875366,358.78593587875366,358.78593587875366,358.78593587875366,361.31997179985046,2,2.6701152324676514,None,,,,,,,,,,,,,,,,,,89,5,2025-02-24_10h59.12.473,comp,2024.2.4,62.08614457296296,2025-02-24 10h59.21.245599 -0500,
56,56,0,filler_random,None,None,None,None,None,None,None,None,None,None,1,1.9381992816925049,None,,,,,0,0,0,0,0,56,56,152,361.33542490005493,,,,,,,,,,,,,,,,,,,,,,,,,,,,,,,,,,,,,,,,,,,,,,,,,,,,,,,,,,,,,,,,,,,,,,,,,,,,,,,,,98.46800472516412,186.86926681208953,135.99935751619944,69.8713388706039,71.3637672869655,57.92067679956502,1.0,1.3,256,-288,480,-252,640,-268,361.3208737373352,361.3209140300751,361.3234519958496,361.33542490005493,361.4855446815491,361.4855446815491,361.4855446815491,361.4855446815491,361.4855446815491,361.4855446815491,361.4855446815491,363.28684735298157,1,1.9381992816925049,None,,,,,,,,,,,,,,,,,,89,5,2025-02-24_10h59.12.473,comp,2024.2.4,62.08614457296296,2025-02-24 10h59.21.245599 -0500,
57,57,0,filler_random,None,None,None,None,None,None,None,None,None,None,2,3.8187918663024902,None,,,,,0,0,0,0,0,57,57,157,363.3021819591522,,,,,,,,,,,,,,,,,,,,,,,,,,,,,,,,,,,,,,,,,,,,,,,,,,,,,,,,,,,,,,,,,,,,,,,,,,,,,,,,,95.27853696417964,135.48109745847592,105.13790552843955,178.63488496496637,177.52323711403056,95.09192706724404,4.0,4.2,-253,-10,0,-260,233,19,363.28775668144226,363.28779697418213,363.290314912796,363.3021819591522,363.4523193836212,363.4523193836212,363.4523193836212,363.4523193836212,363.4523193836212,363.4523193836212,363.4523193836212,367.13674902915955,2,3.8187918663024902,None,,,,,,,,,,,,,,,,,,89,5,2025-02-24_10h59.12.473,comp,2024.2.4,62.08614457296296,2025-02-24 10h59.21.245599 -0500,
58,58,0,filler_random,None,None,None,None,None,None,None,None,None,None,2,9.266921758651733,None,,,,,0,0,0,0,0,58,58,153,367.1521224975586,,,,,,,,,,,,,,,,,,,,,,,,,,,,,,,,,,,,,,,,,,,,,,,,,,,,,,,,,,,,,,,,,,,,,,,,,,,,,,,,,191.20365399907394,82.19790298649325,148.84508477358392,101.77503919814362,98.69769688230556,88.76624180946436,3.0,3.2,-188,-254,0,-14,191,263,367.1376588344574,367.1376974582672,367.1401557922363,367.1521224975586,367.3023192882538,367.3023192882538,367.3023192882538,367.3023192882538,367.3023192882538,367.3023192882538,367.3023192882538,376.42016530036926,2,9.266921758651733,None,,,,,,,,,,,,,,,,,,89,5,2025-02-24_10h59.12.473,comp,2024.2.4,62.08614457296296,2025-02-24 10h59.21.245599 -0500,
59,59,0,critical,hwd,20.0,1.0,upper,200.0,125.0,125.0,200.0,141.0,141.0,1,8.367016077041626,None,,,,,0,0,0,0,0,59,59,103,376.4355742931366,,,,,,,,,,,,,,,,,,,,,,,,,,,,,,,,,,,,,,,,,,,,,,,,,,,,,,,,,,,,,,,,,,,,,,,,,,,,,,,,,200.0,125.0,125.0,200.0,141.0,141.0,1.0,1.2,-258,6,0,7,266,-12,376.42096161842346,376.4210035800934,376.4231734275818,376.4355742931366,376.58601546287537,376.58601546287537,376.58601546287537,376.58601546287537,376.58601546287537,376.58601546287537,376.58601546287537,384.8201491832733,1,8.367016077041626,None,,,,,,,,,,,,,,,,,,89,5,2025-02-24_10h59.12.473,comp,2024.2.4,62.08614457296296,2025-02-24 10h59.21.245599 -0500,
60,60,0,critical,hdw,20.0,1.0,upper,200.0,125.0,141.0,141.0,125.0,200.0,3,3.062171220779419,None,,,,,0,0,0,0,0,60,60,115,384.83524990081787,,,,,,,,,,,,,,,,,,,,,,,,,,,,,,,,,,,,,,,,,,,,,,,,,,,,,,,,,,,,,,,,,,,,,,,,,,,,,,,,,200.0,125.0,141.0,141.0,125.0,200.0,1.0,1.1,-709,277,-480,262,-214,281,384.82097816467285,384.8210196495056,384.8233394622803,384.83524990081787,384.9856684207916,384.9856684207916,384.9856684207916,384.9856684207916,384.9856684207916,384.9856684207916,384.9856684207916,387.9033296108246,3,3.062171220779419,None,,,,,,,,,,,,,,,,,,89,5,2025-02-24_10h59.12.473,comp,2024.2.4,62.08614457296296,2025-02-24 10h59.21.245599 -0500,
61,61,0,critical,hwd,20.0,2.1,upper,200.0,125.0,125.0,200.0,141.0,141.0,1,3.154489278793335,None,,,,,0,0,0,0,0,61,61,43,387.9189565181732,,,,,,,,,,,,,,,,,,,,,,,,,,,,,,,,,,,,,,,,,,,,,,,,,,,,,,,,,,,,,,,,,,,,,,,,,,,,,,,,,200.0,125.0,125.0,200.0,141.0,141.0,2.1,2.11,-258,286,0,274,266,-253,387.9041061401367,387.90414929389954,387.9062614440918,387.9189565181732,388.0688593387604,388.0688593387604,388.0688593387604,388.0688593387604,388.0688593387604,388.0688593387604,388.0688593387604,391.08665800094604,1,3.154489278793335,None,,,,,,,,,,,,,,,,,,89,5,2025-02-24_10h59.12.473,comp,2024.2.4,62.08614457296296,2025-02-24 10h59.21.245599 -0500,
62,62,0,critical,wdh,20.0,2.1,lower,57.0,133.0,78.0,78.0,133.0,57.0,1,3.133375883102417,None,,,,,0,0,0,0,0,62,62,34,391.10184502601624,,,,,,,,,,,,,,,,,,,,,,,,,,,,,,,,,,,,,,,,,,,,,,,,,,,,,,,,,,,,,,,,,,,,,,,,,,,,,,,,,57.0,133.0,78.0,78.0,133.0,57.0,2.1,2.12,-202,-260,0,-289,164,251,391.0874516963959,391.08748984336853,391.09000182151794,391.10184502601624,391.25239157676697,391.25239157676697,391.25239157676697,391.25239157676697,391.25239157676697,391.25239157676697,391.25239157676697,394.2530908584595,1,3.133375883102417,None,,,,,,,,,,,,,,,,,,89,5,2025-02-24_10h59.12.473,comp,2024.2.4,62.08614457296296,2025-02-24 10h59.21.245599 -0500,
63,63,0,filler_random,None,None,None,None,None,None,None,None,None,None,1,2.182189702987671,None,,,,,0,0,0,0,0,63,63,160,394.26862120628357,,,,,,,,,,,,,,,,,,,,,,,,,,,,,,,,,,,,,,,,,,,,,,,,,,,,,,,,,,,,,,,,,,,,,,,,,,,,,,,,,171.95381735580895,108.31424134205375,119.13271935889692,114.3398854498073,83.61988819964681,148.24128750769998,3.0,3.2,-207,-268,0,-14,227,256,394.2541048526764,394.25414538383484,394.25674176216125,394.26862120628357,394.41895866394043,394.41895866394043,394.41895866394043,394.41895866394043,394.41895866394043,394.41895866394043,394.41895866394043,396.4533293247223,1,2.182189702987671,None,,,,,,,,,,,,,,,,,,89,5,2025-02-24_10h59.12.473,comp,2024.2.4,62.08614457296296,2025-02-24 10h59.21.245599 -0500,
64,64,0,critical,wdh,35.0,2.1,lower,57.0,133.0,70.0,70.0,133.0,57.0,1,3.566106081008911,None,,,,,0,0,0,0,0,64,64,32,396.46876192092896,,,,,,,,,,,,,,,,,,,,,,,,,,,,,,,,,,,,,,,,,,,,,,,,,,,,,,,,,,,,,,,,,,,,,,,,,,,,,,,,,57.0,133.0,70.0,70.0,133.0,57.0,2.1,2.12,-198,-264,0,-267,160,288,396.45422077178955,396.45426297187805,396.4564847946167,396.46876192092896,396.61895179748535,396.61895179748535,396.61895179748535,396.61895179748535,396.61895179748535,396.61895179748535,396.61895179748535,400.0366241931915,1,3.566106081008911,None,,,,,,,,,,,,,,,,,,89,5,2025-02-24_10h59.12.473,comp,2024.2.4,62.08614457296296,2025-02-24 10h59.21.245599 -0500,
65,65,0,filler_square,None,None,None,None,None,None,None,None,None,None,1,4.4213128089904785,None,,,,,0,0,0,0,0,65,65,198,400.05202412605286,,,,,,,,,,,,,,,,,,,,,,,,,,,,,,,,,,,,,,,,,,,,,,,,,,,,,,,,,,,,,,,,,,,,,,,,,,,,,,,,,68.02574006617667,68.02574006617667,64.31199538966898,60.26914909600597,62.50175045797206,59.24345989633421,3.0,3.2,-160,-288,0,-4,156,270,400.0375771522522,400.03761768341064,400.04016852378845,400.05202412605286,400.20194840431213,400.20194840431213,400.20194840431213,400.20194840431213,400.20194840431213,400.20194840431213,400.20194840431213,404.4863383769989,1,4.4213128089904785,None,,,,,,,,,,,,,,,,,,89,5,2025-02-24_10h59.12.473,comp,2024.2.4,62.08614457296296,2025-02-24 10h59.21.245599 -0500,
66,66,0,critical,whd,20.0,2.1,lower,57.0,133.0,133.0,57.0,78.0,78.0,1,6.418902158737183,None,,,,,0,0,0,0,0,66,66,38,404.50177121162415,,,,,,,,,,,,,,,,,,,,,,,,,,,,,,,,,,,,,,,,,,,,,,,,,,,,,,,,,,,,,,,,,,,,,,,,,,,,,,,,,57.0,133.0,133.0,57.0,78.0,78.0,2.1,2.12,-191,-264,0,-257,164,274,404.48711228370667,404.48715114593506,404.4895062446594,404.50177121162415,404.65191173553467,404.65191173553467,404.65191173553467,404.65191173553467,404.65191173553467,404.65191173553467,404.65191173553467,410.93694972991943,1,6.418902158737183,None,,,,,,,,,,,,,,,,,,89,5,2025-02-24_10h59.12.473,comp,2024.2.4,62.08614457296296,2025-02-24 10h59.21.245599 -0500,
67,67,0,critical,wdh,20.0,1.0,lower,57.0,133.0,78.0,78.0,133.0,57.0,1,3.472109079360962,None,,,,,0,0,0,0,0,67,67,78,410.9522943496704,,,,,,,,,,,,,,,,,,,,,,,,,,,,,,,,,,,,,,,,,,,,,,,,,,,,,,,,,,,,,,,,,,,,,,,,,,,,,,,,,57.0,133.0,78.0,78.0,133.0,57.0,1.0,1.1,-682,260,-480,287,-316,272,410.93805146217346,410.93810963630676,410.94096326828003,410.9522943496704,411.10182452201843,411.10182452201843,411.10182452201843,411.10182452201843,411.10182452201843,411.10182452201843,411.10182452201843,414.4361777305603,1,3.472109079360962,None,,,,,,,,,,,,,,,,,,89,5,2025-02-24_10h59.12.473,comp,2024.2.4,62.08614457296296,2025-02-24 10h59.21.245599 -0500,
68,68,0,critical,hdw,20.0,4.0,upper,200.0,125.0,141.0,141.0,125.0,200.0,3,3.0215888023376465,None,,,,,0,0,0,0,0,68,68,119,414.45167660713196,,,,,,,,,,,,,,,,,,,,,,,,,,,,,,,,,,,,,,,,,,,,,,,,,,,,,,,,,,,,,,,,,,,,,,,,,,,,,,,,,200.0,125.0,141.0,141.0,125.0,200.0,4.0,4.2,-229,10,0,-286,266,15,414.4369487762451,414.4369876384735,414.43929529190063,414.45167660713196,414.602032661438,414.602032661438,414.602032661438,414.602032661438,414.602032661438,414.602032661438,414.602032661438,417.48655891418457,3,3.0215888023376465,None,,,,,,,,,,,,,,,,,,89,5,2025-02-24_10h59.12.473,comp,2024.2.4,62.08614457296296,2025-02-24 10h59.21.245599 -0500,
69,69,0,filler_square,None,None,None,None,None,None,None,None,None,None,3,1.6115837097167969,None,,,,,0,0,0,0,0,69,69,192,417.5017228126526,,,,,,,,,,,,,,,,,,,,,,,,,,,,,,,,,,,,,,,,,,,,,,,,,,,,,,,,,,,,,,,,,,,,,,,,,,,,,,,,,96.4148698570114,62.69331231469163,119.84480911175676,74.88276187144717,147.8123478268525,147.8123478268525,3.0,3.2,-165,-261,0,3,207,271,417.487508058548,417.48755049705505,417.48997354507446,417.5017228126526,417.6519706249237,417.6519706249237,417.6519706249237,417.6519706249237,417.6519706249237,417.6519706249237,417.6519706249237,419.1197578907013,3,1.6115837097167969,None,,,,,,,,,,,,,,,,,,89,5,2025-02-24_10h59.12.473,comp,2024.2.4,62.08614457296296,2025-02-24 10h59.21.245599 -0500,
70,70,0,catch,None,None,None,None,None,None,None,None,None,None,1,1.2011559009552002,None,,,,,0,0,0,0,0,70,70,124,419.1353168487549,,,,,,,,,,,,,,,,,,,,,,,,,,,,,,,,,,,,,,,,,,,,,,,,,,,,,,,,,,,,,,,,,,,,,,,,,,,,,,,,,196,129,97,93,122,68,2.1,2.12,-207,-278,0,-288,176,274,419.1207947731018,419.12083673477173,419.123348236084,419.1353168487549,419.28542137145996,419.28542137145996,419.28542137145996,419.28542137145996,419.28542137145996,419.28542137145996,419.28542137145996,420.3529779911041,1,1.2011559009552002,None,,,,,,,,,,,,,,,,,,89,5,2025-02-24_10h59.12.473,comp,2024.2.4,62.08614457296296,2025-02-24 10h59.21.245599 -0500,
71,71,0,filler_square,None,None,None,None,None,None,None,None,None,None,2,1.6501953601837158,None,,,,,0,0,0,0,0,71,71,190,420.3685505390167,,,,,,,,,,,,,,,,,,,,,,,,,,,,,,,,,,,,,,,,,,,,,,,,,,,,,,,,,,,,,,,,,,,,,,,,,,,,,,,,,68.08839649493996,95.00891587426298,170.15418153416698,170.15418153416698,137.44091932546144,141.5154314886604,2.2,2.22,-229,278,0,-266,252,-268,420.3539562225342,420.35399889945984,420.3565707206726,420.3685505390167,420.5185933113098,420.5185933113098,420.5185933113098,420.5185933113098,420.5185933113098,420.5185933113098,420.5185933113098,422.02008152008057,2,1.6501953601837158,None,,,,,,,,,,,,,,,,,,89,5,2025-02-24_10h59.12.473,comp,2024.2.4,62.08614457296296,2025-02-24 10h59.21.245599 -0500,
72,72,0,filler_random,None,None,None,None,None,None,None,None,None,None,3,3.6378676891326904,None,,,,,0,0,0,0,0,72,72,167,422.0352973937988,,,,,,,,,,,,,,,,,,,,,,,,,,,,,,,,,,,,,,,,,,,,,,,,,,,,,,,,,,,,,,,,,,,,,,,,,,,,,,,,,100.76431150173559,191.2076918288831,196.72603838118738,99.136722244351,128.69844569441562,188.38174092167105,4.0,4.2,-241,3,0,-254,240,-15,422.0209777355194,422.0210189819336,422.0231912136078,422.0352973937988,422.1853630542755,422.1853630542755,422.1853630542755,422.1853630542755,422.1853630542755,422.1853630542755,422.1853630542755,425.6864631175995,3,3.6378676891326904,None,,,,,,,,,,,,,,,,,,89,5,2025-02-24_10h59.12.473,comp,2024.2.4,62.08614457296296,2025-02-24 10h59.21.245599 -0500,
73,73,0,filler_random,None,None,None,None,None,None,None,None,None,None,1,2.0756046772003174,None,,,,,0,0,0,0,0,73,73,141,425.7016580104828,,,,,,,,,,,,,,,,,,,,,,,,,,,,,,,,,,,,,,,,,,,,,,,,,,,,,,,,,,,,,,,,,,,,,,,,,,,,,,,,,146.92950435938008,160.36119241689246,59.9068450342163,199.04789694444887,66.77110756057334,198.09667689793548,4.0,4.1,-276,-262,0,-19,295,-279,425.68736028671265,425.6874010562897,425.68971991539,425.7016580104828,425.8519334793091,425.8519334793091,425.8519334793091,425.8519334793091,425.8519334793091,425.8519334793091,425.8519334793091,427.7862374782562,1,2.0756046772003174,None,,,,,,,,,,,,,,,,,,89,5,2025-02-24_10h59.12.473,comp,2024.2.4,62.08614457296296,2025-02-24 10h59.21.245599 -0500,
74,74,0,critical,hdw,20.0,1.0,lower,133.0,57.0,78.0,78.0,57.0,133.0,3,3.1026973724365234,None,,,,,0,0,0,0,0,74,74,114,427.801864862442,,,,,,,,,,,,,,,,,,,,,,,,,,,,,,,,,,,,,,,,,,,,,,,,,,,,,,,,,,,,,,,,,,,,,,,,,,,,,,,,,133.0,57.0,78.0,78.0,57.0,133.0,1.0,1.2,-164,17,0,11,202,2,427.78700399398804,427.7870442867279,427.7893304824829,427.801864862442,427.9517948627472,427.9517948627472,427.9517948627472,427.9517948627472,427.9517948627472,427.9517948627472,427.9517948627472,430.9194686412811,3,3.1026973724365234,None,,,,,,,,,,,,,,,,,,89,5,2025-02-24_10h59.12.473,comp,2024.2.4,62.08614457296296,2025-02-24 10h59.21.245599 -0500,
75,75,0,critical,whd,35.0,2.1,lower,57.0,133.0,133.0,57.0,70.0,70.0,1,2.921610116958618,None,,,,,0,0,0,0,0,75,75,36,430.93493461608887,,,,,,,,,,,,,,,,,,,,,,,,,,,,,,,,,,,,,,,,,,,,,,,,,,,,,,,,,,,,,,,,,,,,,,,,,,,,,,,,,57.0,133.0,133.0,57.0,70.0,70.0,2.1,2.11,-191,250,0,259,160,-279,430.9203095436096,430.9203505516052,430.9227650165558,430.93493461608887,431.08511233329773,431.08511233329773,431.08511233329773,431.08511233329773,431.08511233329773,431.08511233329773,431.08511233329773,433.86969017982483,1,2.921610116958618,None,,,,,,,,,,,,,,,,,,89,5,2025-02-24_10h59.12.473,comp,2024.2.4,62.08614457296296,2025-02-24 10h59.21.245599 -0500,
76,76,0,critical,wdh,35.0,3.0,upper,125.0,200.0,127.0,127.0,200.0,125.0,1,4.3177876472473145,None,,,,,0,0,0,0,0,76,76,75,433.8848958015442,,,,,,,,,,,,,,,,,,,,,,,,,,,,,,,,,,,,,,,,,,,,,,,,,,,,,,,,,,,,,,,,,,,,,,,,,,,,,,,,,125.0,200.0,127.0,127.0,200.0,125.0,3.0,3.1,-260,275,0,7,222,-281,433.8704643249512,433.8705060482025,433.87294125556946,433.8848958015442,434.0355076789856,434.0355076789856,434.0355076789856,434.0355076789856,434.0355076789856,434.0355076789856,434.0355076789856,438.2197320461273,1,4.3177876472473145,None,,,,,,,,,,,,,,,,,,89,5,2025-02-24_10h59.12.473,comp,2024.2.4,62.08614457296296,2025-02-24 10h59.21.245599 -0500,
77,77,0,filler_random,None,None,None,None,None,None,None,None,None,None,2,1.4940993785858154,None,,,,,0,0,0,0,0,77,77,169,438.2349531650543,,,,,,,,,,,,,,,,,,,,,,,,,,,,,,,,,,,,,,,,,,,,,,,,,,,,,,,,,,,,,,,,,,,,,,,,,,,,,,,,,140.07326357933982,74.02863615984158,156.36795269741975,199.84844303671315,166.02109453739482,87.64832657996732,1.0,1.2,-233,13,0,15,240,-17,438.2206118106842,438.2206540107727,438.22304606437683,438.2349531650543,438.38541626930237,438.38541626930237,438.38541626930237,438.38541626930237,438.38541626930237,438.38541626930237,438.38541626930237,439.73616766929626,2,1.4940993785858154,None,,,,,,,,,,,,,,,,,,89,5,2025-02-24_10h59.12.473,comp,2024.2.4,62.08614457296296,2025-02-24 10h59.21.245599 -0500,
78,78,0,critical,hwd,35.0,4.0,upper,200.0,125.0,125.0,200.0,127.0,127.0,2,6.041365385055542,None,,,,,0,0,0,0,0,78,78,101,439.75171303749084,,,,,,,,,,,,,,,,,,,,,,,,,,,,,,,,,,,,,,,,,,,,,,,,,,,,,,,,,,,,,,,,,,,,,,,,,,,,,,,,,200.0,125.0,125.0,200.0,127.0,127.0,4.0,4.1,-258,-277,0,10,260,-275,439.73697113990784,439.7370104789734,439.73918437957764,439.75171303749084,439.90227460861206,439.90227460861206,439.90227460861206,439.90227460861206,439.90227460861206,439.90227460861206,439.90227460861206,445.802946805954,2,6.041365385055542,None,,,,,,,,,,,,,,,,,,89,5,2025-02-24_10h59.12.473,comp,2024.2.4,62.08614457296296,2025-02-24 10h59.21.245599 -0500,
79,79,0,filler_random,None,None,None,None,None,None,None,None,None,None,1,2.0056815147399902,None,,,,,0,0,0,0,0,79,79,140,445.81853199005127,,,,,,,,,,,,,,,,,,,,,,,,,,,,,,,,,,,,,,,,,,,,,,,,,,,,,,,,,,,,,,,,,,,,,,,,,,,,,,,,,166.50894020606307,128.18448560582215,168.04015964075688,82.76131527467625,70.01889317443661,155.66198359922464,1.0,1.3,279,-256,480,-271,695,-252,445.80387806892395,445.8039207458496,445.8064317703247,445.81853199005127,445.96842432022095,445.96842432022095,445.96842432022095,445.96842432022095,445.96842432022095,445.96842432022095,445.96842432022095,447.83652806282043,1,2.0056815147399902,None,,,,,,,,,,,,,,,,,,89,5,2025-02-24_10h59.12.473,comp,2024.2.4,62.08614457296296,2025-02-24 10h59.21.245599 -0500,
80,80,0,critical,wdh,35.0,2.1,upper,125.0,200.0,127.0,127.0,200.0,125.0,1,2.0526199340820312,None,,,,,0,0,0,0,0,80,80,9,447.8516414165497,,,,,,,,,,,,,,,,,,,,,,,,,,,,,,,,,,,,,,,,,,,,,,,,,,,,,,,,,,,,,,,,,,,,,,,,,,,,,,,,,125.0,200.0,127.0,127.0,200.0,125.0,2.1,2.11,-260,279,0,272,222,-261,447.8373878002167,447.8374300003052,447.83965158462524,447.8516414165497,448.00186038017273,448.00186038017273,448.00186038017273,448.00186038017273,448.00186038017273,448.00186038017273,448.00186038017273,449.9197211265564,1,2.0526199340820312,None,,,,,,,,,,,,,,,,,,89,5,2025-02-24_10h59.12.473,comp,2024.2.4,62.08614457296296,2025-02-24 10h59.21.245599 -0500,
81,81,0,filler_random,None,None,None,None,None,None,None,None,None,None,3,3.369365692138672,None,,,,,0,0,0,0,0,81,81,136,449.93488788604736,,,,,,,,,,,,,,,,,,,,,,,,,,,,,,,,,,,,,,,,,,,,,,,,,,,,,,,,,,,,,,,,,,,,,,,,,,,,,,,,,139.26915096169017,151.32270019235654,81.0825966004501,102.48057445675602,143.2516582624525,161.28394742348803,1.0,1.1,-703,288,-480,267,-252,268,449.9206075668335,449.92064571380615,449.92270278930664,449.93488788604736,450.08500695228577,450.08500695228577,450.08500695228577,450.08500695228577,450.08500695228577,450.08500695228577,450.08500695228577,453.31947469711304,3,3.369365692138672,None,,,,,,,,,,,,,,,,,,89,5,2025-02-24_10h59.12.473,comp,2024.2.4,62.08614457296296,2025-02-24 10h59.21.245599 -0500,
82,82,0,filler_random,None,None,None,None,None,None,None,None,None,None,1,1.9941554069519043,None,,,,,0,0,0,0,0,82,82,163,453.3348307609558,,,,,,,,,,,,,,,,,,,,,,,,,,,,,,,,,,,,,,,,,,,,,,,,,,,,,,,,,,,,,,,,,,,,,,,,,,,,,,,,,128.31801476666408,167.12413811985158,191.0799998509003,107.68647748797154,165.20627097549817,85.74903808821247,1.0,1.2,-233,14,0,11,193,9,453.3203523159027,453.3203914165497,453.32277607917786,453.3348307609558,453.48539113998413,453.48539113998413,453.48539113998413,453.48539113998413,453.48539113998413,453.48539113998413,453.48539113998413,455.33616065979004,1,1.9941554069519043,None,,,,,,,,,,,,,,,,,,89,5,2025-02-24_10h59.12.473,comp,2024.2.4,62.08614457296296,2025-02-24 10h59.21.245599 -0500,
83,83,0,critical,hdw,20.0,4.0,lower,133.0,57.0,78.0,78.0,57.0,133.0,3,3.193552255630493,None,,,,,0,0,0,0,0,83,83,118,455.3516502380371,,,,,,,,,,,,,,,,,,,,,,,,,,,,,,,,,,,,,,,,,,,,,,,,,,,,,,,,,,,,,,,,,,,,,,,,,,,,,,,,,133.0,57.0,78.0,78.0,57.0,133.0,4.0,4.2,-164,10,0,-253,202,0,455.3369526863098,455.3369948863983,455.33928179740906,455.3516502380371,455.5014896392822,455.5014896392822,455.5014896392822,455.5014896392822,455.5014896392822,455.5014896392822,455.5014896392822,458.5526840686798,3,3.193552255630493,None,,,,,,,,,,,,,,,,,,89,5,2025-02-24_10h59.12.473,comp,2024.2.4,62.08614457296296,2025-02-24 10h59.21.245599 -0500,
84,84,0,filler_random,None,None,None,None,None,None,None,None,None,None,1,2.271702527999878,None,,,,,0,0,0,0,0,84,84,133,458.5683557987213,,,,,,,,,,,,,,,,,,,,,,,,,,,,,,,,,,,,,,,,,,,,,,,,,,,,,,,,,,,,,,,,,,,,,,,,,,,,,,,,,92.60468434515136,181.33162018561535,165.7338016888969,73.66350973791958,165.86529017763323,66.36342287141858,2.2,2.21,-223,-272,0,286,166,266,458.55359983444214,458.55364179611206,458.5562846660614,458.5683557987213,458.7183563709259,458.7183563709259,458.7183563709259,458.7183563709259,458.7183563709259,458.7183563709259,458.7183563709259,460.8527660369873,1,2.271702527999878,None,,,,,,,,,,,,,,,,,,89,5,2025-02-24_10h59.12.473,comp,2024.2.4,62.08614457296296,2025-02-24 10h59.21.245599 -0500,
85,85,0,critical,hwd,35.0,2.1,upper,200.0,125.0,125.0,200.0,127.0,127.0,1,2.755932331085205,None,,,,,0,0,0,0,0,85,85,17,460.86814856529236,,,,,,,,,,,,,,,,,,,,,,,,,,,,,,,,,,,,,,,,,,,,,,,,,,,,,,,,,,,,,,,,,,,,,,,,,,,,,,,,,200.0,125.0,125.0,200.0,127.0,127.0,2.1,2.12,-258,-251,0,-263,260,284,460.853547334671,460.85358715057373,460.8561658859253,460.86814856529236,461.0185205936432,461.0185205936432,461.0185205936432,461.0185205936432,461.0185205936432,461.0185205936432,461.0185205936432,463.6363639831543,1,2.755932331085205,None,,,,,,,,,,,,,,,,,,89,5,2025-02-24_10h59.12.473,comp,2024.2.4,62.08614457296296,2025-02-24 10h59.21.245599 -0500,
86,86,0,filler_random,None,None,None,None,None,None,None,None,None,None,3,2.6047656536102295,None,,,,,0,0,0,0,0,86,86,164,463.6514661312103,,,,,,,,,,,,,,,,,,,,,,,,,,,,,,,,,,,,,,,,,,,,,,,,,,,,,,,,,,,,,,,,,,,,,,,,,,,,,,,,,87.03990177464667,90.53521483459186,160.2597482652421,103.32407721605233,94.56523779961708,197.16084966995763,4.0,4.2,-193,-10,0,-284,246,-5,463.6372697353363,463.6373119354248,463.63945960998535,463.6514661312103,463.8016183376312,463.8016183376312,463.8016183376312,463.8016183376312,463.8016183376312,463.8016183376312,463.8016183376312,466.26939368247986,3,2.6047656536102295,None,,,,,,,,,,,,,,,,,,89,5,2025-02-24_10h59.12.473,comp,2024.2.4,62.08614457296296,2025-02-24 10h59.21.245599 -0500,
87,87,0,catch,None,None,None,None,None,None,None,None,None,None,3,1.6283657550811768,None,,,,,0,0,0,0,0,87,87,128,466.28471183776855,,,,,,,,,,,,,,,,,,,,,,,,,,,,,,,,,,,,,,,,,,,,,,,,,,,,,,,,,,,,,,,,,,,,,,,,,,,,,,,,,105,85,69,121,126,199,2.1,2.12,-199,-254,0,-275,256,267,466.2704162597656,466.270455121994,466.27283787727356,466.28471183776855,466.4350748062134,466.4350748062134,466.4350748062134,466.4350748062134,466.4350748062134,466.4350748062134,466.4350748062134,467.91936230659485,3,1.6283657550811768,None,,,,,,,,,,,,,,,,,,89,5,2025-02-24_10h59.12.473,comp,2024.2.4,62.08614457296296,2025-02-24 10h59.21.245599 -0500,
88,88,0,catch,None,None,None,None,None,None,None,None,None,None,3,1.4099650382995605,None,,,,,0,0,0,0,0,88,88,125,467.9349858760834,,,,,,,,,,,,,,,,,,,,,,,,,,,,,,,,,,,,,,,,,,,,,,,,,,,,,,,,,,,,,,,,,,,,,,,,,,,,,,,,,113,77,118,72,173,152,2.1,2.12,-170,-257,0,-269,208,252,467.92040061950684,467.9204406738281,467.9228286743164,467.9349858760834,468.0848913192749,468.0848913192749,468.0848913192749,468.0848913192749,468.0848913192749,468.0848913192749,468.0848913192749,469.3526928424835,3,1.4099650382995605,None,,,,,,,,,,,,,,,,,,89,5,2025-02-24_10h59.12.473,comp,2024.2.4,62.08614457296296,2025-02-24 10h59.21.245599 -0500,
89,89,0,filler_square,None,None,None,None,None,None,None,None,None,None,3,1.7518813610076904,None,,,,,0,0,0,0,0,89,89,186,469.3684206008911,,,,,,,,,,,,,,,,,,,,,,,,,,,,,,,,,,,,,,,,,,,,,,,,,,,,,,,,,,,,,,,,,,,,,,,,,,,,,,,,,130.09798085307466,75.99017931874334,156.1172775250111,67.1721124505873,157.2907670263712,157.2907670263712,2.1,2.12,-168,-286,0,-268,208,272,469.35367608070374,469.3537187576294,469.3561522960663,469.3684206008911,469.5182943344116,469.5182943344116,469.5182943344116,469.5182943344116,469.5182943344116,469.5182943344116,469.5182943344116,471.1361081600189,3,1.7518813610076904,None,,,,,,,,,,,,,,,,,,89,5,2025-02-24_10h59.12.473,comp,2024.2.4,62.08614457296296,2025-02-24 10h59.21.245599 -0500,
90,90,0,critical,dwh,20.0,2.1,lower,78.0,78.0,57.0,133.0,133.0,57.0,2,2.504746675491333,None,,,,,0,0,0,0,0,90,90,6,471.1514401435852,,,,,,,,,,,,,,,,,,,,,,,,,,,,,,,,,,,,,,,,,,,,,,,,,,,,,,,,,,,,,,,,,,,,,,,,,,,,,,,,,78.0,78.0,57.0,133.0,133.0,57.0,2.1,2.12,-202,-274,0,-272,191,258,471.1370098590851,471.137051820755,471.1400463581085,471.1514401435852,471.3015093803406,471.3015093803406,471.3015093803406,471.3015093803406,471.3015093803406,471.3015093803406,471.3015093803406,473.6692736148834,2,2.504746675491333,None,,,,,,,,,,,,,,,,,,89,5,2025-02-24_10h59.12.473,comp,2024.2.4,62.08614457296296,2025-02-24 10h59.21.245599 -0500,
91,91,0,critical,dwh,35.0,3.0,lower,70.0,70.0,57.0,133.0,133.0,57.0,2,3.6675875186920166,None,,,,,0,0,0,0,0,91,91,62,473.6845395565033,,,,,,,,,,,,,,,,,,,,,,,,,,,,,,,,,,,,,,,,,,,,,,,,,,,,,,,,,,,,,,,,,,,,,,,,,,,,,,,,,70.0,70.0,57.0,133.0,133.0,57.0,3.0,3.2,-198,-253,0,18,191,257,473.6700279712677,473.6700668334961,473.67238759994507,473.6845395565033,473.8347918987274,473.8347918987274,473.8347918987274,473.8347918987274,473.8347918987274,473.8347918987274,473.8347918987274,477.3694143295288,2,3.6675875186920166,None,,,,,,,,,,,,,,,,,,89,5,2025-02-24_10h59.12.473,comp,2024.2.4,62.08614457296296,2025-02-24 10h59.21.245599 -0500,
92,92,0,critical,wdh,20.0,3.0,lower,57.0,133.0,78.0,78.0,133.0,57.0,1,2.3764259815216064,None,,,,,0,0,0,0,0,92,92,80,477.38475155830383,,,,,,,,,,,,,,,,,,,,,,,,,,,,,,,,,,,,,,,,,,,,,,,,,,,,,,,,,,,,,,,,,,,,,,,,,,,,,,,,,57.0,133.0,78.0,78.0,133.0,57.0,3.0,3.1,-202,279,0,16,164,-288,477.3702321052551,477.370272397995,477.3723683357239,477.38475155830383,477.53502202033997,477.53502202033997,477.53502202033997,477.53502202033997,477.53502202033997,477.53502202033997,477.53502202033997,479.76940178871155,1,2.3764259815216064,None,,,,,,,,,,,,,,,,,,89,5,2025-02-24_10h59.12.473,comp,2024.2.4,62.08614457296296,2025-02-24 10h59.21.245599 -0500,
93,93,0,filler_random,None,None,None,None,None,None,None,None,None,None,1,1.896876335144043,None,,,,,0,0,0,0,0,93,93,135,479.78493309020996,,,,,,,,,,,,,,,,,,,,,,,,,,,,,,,,,,,,,,,,,,,,,,,,,,,,,,,,,,,,,,,,,,,,,,,,,,,,,,,,,100.05474808600951,196.817486374423,69.74432480947927,198.7324527160481,72.23664283371757,131.3547866479528,4.0,4.1,-294,-250,0,-17,261,-259,479.77030658721924,479.77034735679626,479.7735233306885,479.78493309020996,479.93480944633484,479.93480944633484,479.93480944633484,479.93480944633484,479.93480944633484,479.93480944633484,479.93480944633484,481.6860544681549,1,1.896876335144043,None,,,,,,,,,,,,,,,,,,89,5,2025-02-24_10h59.12.473,comp,2024.2.4,62.08614457296296,2025-02-24 10h59.21.245599 -0500,
94,94,0,critical,hwd,35.0,1.0,upper,200.0,125.0,125.0,200.0,127.0,127.0,2,2.2273035049438477,None,,,,,0,0,0,0,0,94,94,97,481.70155596733093,,,,,,,,,,,,,,,,,,,,,,,,,,,,,,,,,,,,,,,,,,,,,,,,,,,,,,,,,,,,,,,,,,,,,,,,,,,,,,,,,200.0,125.0,125.0,200.0,127.0,127.0,1.0,1.1,-738,260,-480,252,-220,272,481.68688344955444,481.6869246959686,481.6893644332886,481.70155596733093,481.8524498939514,481.8524498939514,481.8524498939514,481.8524498939514,481.8524498939514,481.8524498939514,481.8524498939514,483.93612408638,2,2.2273035049438477,None,,,,,,,,,,,,,,,,,,89,5,2025-02-24_10h59.12.473,comp,2024.2.4,62.08614457296296,2025-02-24 10h59.21.245599 -0500,
95,95,0,critical,hwd,35.0,2.1,upper,200.0,125.0,125.0,200.0,127.0,127.0,2,5.033753156661987,None,,,,,0,0,0,0,0,95,95,41,483.951455116272,,,,,,,,,,,,,,,,,,,,,,,,,,,,,,,,,,,,,,,,,,,,,,,,,,,,,,,,,,,,,,,,,,,,,,,,,,,,,,,,,200.0,125.0,125.0,200.0,127.0,127.0,2.1,2.12,-258,-287,0,-288,260,251,483.93690156936646,483.93694138526917,483.93897008895874,483.951455116272,484.1016550064087,484.1016550064087,484.1016550064087,484.1016550064087,484.1016550064087,484.1016550064087,484.1016550064087,489.0027515888214,2,5.033753156661987,None,,,,,,,,,,,,,,,,,,89,5,2025-02-24_10h59.12.473,comp,2024.2.4,62.08614457296296,2025-02-24 10h59.21.245599 -0500,
96,96,0,catch,None,None,None,None,None,None,None,None,None,None,2,0.958747386932373,None,,,,,0,0,0,0,0,96,96,129,489.0180149078369,,,,,,,,,,,,,,,,,,,,,,,,,,,,,,,,,,,,,,,,,,,,,,,,,,,,,,,,,,,,,,,,,,,,,,,,,,,,,,,,,97,93,176,149,95,95,3.0,3.1,-217,275,0,6,218,-283,489.0037543773651,489.00379395484924,489.00626039505005,489.0180149078369,489.16836977005005,489.16836977005005,489.16836977005005,489.16836977005005,489.16836977005005,489.16836977005005,489.16836977005005,489.98602199554443,2,0.958747386932373,None,,,,,,,,,,,,,,,,,,89,5,2025-02-24_10h59.12.473,comp,2024.2.4,62.08614457296296,2025-02-24 10h59.21.245599 -0500,
97,97,0,catch,None,None,None,None,None,None,None,None,None,None,2,1.2868056297302246,None,,,,,0,0,0,0,0,97,97,127,490.0015058517456,,,,,,,,,,,,,,,,,,,,,,,,,,,,,,,,,,,,,,,,,,,,,,,,,,,,,,,,,,,,,,,,,,,,,,,,,,,,,,,,,124,66,131,194,97,93,4.0,4.1,-226,-282,0,9,240,-288,489.9870591163635,489.9871115684509,489.98954701423645,490.0015058517456,490.1513729095459,490.1513729095459,490.1513729095459,490.1513729095459,490.1513729095459,490.1513729095459,490.1513729095459,491.30260586738586,2,1.2868056297302246,None,,,,,,,,,,,,,,,,,,89,5,2025-02-24_10h59.12.473,comp,2024.2.4,62.08614457296296,2025-02-24 10h59.21.245599 -0500,
98,98,0,filler_square,None,None,None,None,None,None,None,None,None,None,3,1.4175353050231934,None,,,,,0,0,0,0,0,98,98,200,491.3184292316437,,,,,,,,,,,,,,,,,,,,,,,,,,,,,,,,,,,,,,,,,,,,,,,,,,,,,,,,,,,,,,,,,,,,,,,,,,,,,,,,,67.9410195622109,76.87131797292835,84.79873423031145,82.44008815584672,101.34382022001466,101.34382022001466,2.1,2.11,-176,252,0,259,188,-265,491.30387020111084,491.3039131164551,491.3073933124542,491.3184292316437,491.46803402900696,491.46803402900696,491.46803402900696,491.46803402900696,491.46803402900696,491.46803402900696,491.46803402900696,492.7523808479309,3,1.4175353050231934,None,,,,,,,,,,,,,,,,,,89,5,2025-02-24_10h59.12.473,comp,2024.2.4,62.08614457296296,2025-02-24 10h59.21.245599 -0500,
99,99,0,filler_random,None,None,None,None,None,None,None,None,None,None,2,1.8825905323028564,None,,,,,0,0,0,0,0,99,99,151,492.7677798271179,,,,,,,,,,,,,,,,,,,,,,,,,,,,,,,,,,,,,,,,,,,,,,,,,,,,,,,,,,,,,,,,,,,,,,,,,,,,,,,,,62.35787479312368,58.02473483932913,81.84804236558082,165.1511463611116,61.83260781249222,176.71872042113574,2.2,2.21,-208,-256,0,255,267,250,492.7532925605774,492.75333285331726,492.75572299957275,492.7677798271179,492.91806292533875,492.91806292533875,492.91806292533875,492.91806292533875,492.91806292533875,492.91806292533875,492.91806292533875,494.65252113342285,2,1.8825905323028564,None,,,,,,,,,,,,,,,,,,89,5,2025-02-24_10h59.12.473,comp,2024.2.4,62.08614457296296,2025-02-24 10h59.21.245599 -0500,
100,100,0,filler_square,None,None,None,None,None,None,None,None,None,None,2,2.3662657737731934,None,,,,,0,0,0,0,0,100,100,182,494.66806173324585,,,,,,,,,,,,,,,,,,,,,,,,,,,,,,,,,,,,,,,,,,,,,,,,,,,,,,,,,,,,,,,,,,,,,,,,,,,,,,,,,64.67783554644143,69.71172026890066,79.83557232452722,79.83557232452722,76.23879146328744,57.018598492442216,4.0,4.2,-171,-12,0,-288,164,-2,494.6534495353699,494.6534903049469,494.6556189060211,494.66806173324585,494.8178610801697,494.8178610801697,494.8178610801697,494.8178610801697,494.8178610801697,494.8178610801697,494.8178610801697,497.0359880924225,2,2.3662657737731934,None,,,,,,,,,,,,,,,,,,89,5,2025-02-24_10h59.12.473,comp,2024.2.4,62.08614457296296,2025-02-24 10h59.21.245599 -0500,
101,101,0,critical,dhw,20.0,3.0,upper,141.0,141.0,200.0,125.0,125.0,200.0,2,3.3669393062591553,None,,,,,0,0,0,0,0,101,101,57,497.0513241291046,,,,,,,,,,,,,,,,,,,,,,,,,,,,,,,,,,,,,,,,,,,,,,,,,,,,,,,,,,,,,,,,,,,,,,,,,,,,,,,,,141.0,141.0,200.0,125.0,125.0,200.0,3.0,3.1,-229,264,0,11,258,-259,497.03678941726685,497.0368320941925,497.03936982154846,497.0513241291046,497.201619386673,497.201619386673,497.201619386673,497.201619386673,497.201619386673,497.201619386673,497.201619386673,500.41954588890076,2,3.3669393062591553,None,,,,,,,,,,,,,,,,,,89,5,2025-02-24_10h59.12.473,comp,2024.2.4,62.08614457296296,2025-02-24 10h59.21.245599 -0500,
102,102,0,filler_square,None,None,None,None,None,None,None,None,None,None,3,1.9335060119628906,None,,,,,0,0,0,0,0,102,102,170,500.4348473548889,,,,,,,,,,,,,,,,,,,,,,,,,,,,,,,,,,,,,,,,,,,,,,,,,,,,,,,,,,,,,,,,,,,,,,,,,,,,,,,,,66.14468351442471,66.14468351442471,63.3976443917076,59.658184807266736,65.47747920229897,57.6033949354607,2.2,2.21,-159,-284,0,273,155,273,500.4204967021942,500.420538187027,500.42267751693726,500.4348473548889,500.58506298065186,500.58506298065186,500.58506298065186,500.58506298065186,500.58506298065186,500.58506298065186,500.58506298065186,502.3855607509613,3,1.9335060119628906,None,,,,,,,,,,,,,,,,,,89,5,2025-02-24_10h59.12.473,comp,2024.2.4,62.08614457296296,2025-02-24 10h59.21.245599 -0500,
103,103,0,critical,whd,20.0,2.1,upper,125.0,200.0,200.0,125.0,141.0,141.0,1,3.4955341815948486,None,,,,,0,0,0,0,0,103,103,39,502.40108919143677,,,,,,,,,,,,,,,,,,,,,,,,,,,,,,,,,,,,,,,,,,,,,,,,,,,,,,,,,,,,,,,,,,,,,,,,,,,,,,,,,125.0,200.0,200.0,125.0,141.0,141.0,2.1,2.12,-258,-257,0,-265,229,267,502.38633918762207,502.3863809108734,502.3888010978699,502.40108919143677,502.55147218704224,502.55147218704224,502.55147218704224,502.55147218704224,502.55147218704224,502.55147218704224,502.55147218704224,505.9026229381561,1,3.4955341815948486,None,,,,,,,,,,,,,,,,,,89,5,2025-02-24_10h59.12.473,comp,2024.2.4,62.08614457296296,2025-02-24 10h59.21.245599 -0500,
104,104,0,critical,whd,35.0,3.0,upper,125.0,200.0,200.0,125.0,127.0,127.0,1,3.1946794986724854,None,,,,,0,0,0,0,0,104,104,87,505.9180235862732,,,,,,,,,,,,,,,,,,,,,,,,,,,,,,,,,,,,,,,,,,,,,,,,,,,,,,,,,,,,,,,,,,,,,,,,,,,,,,,,,125.0,200.0,200.0,125.0,127.0,127.0,3.0,3.1,-258,280,0,16,222,-259,505.903404712677,505.90344619750977,505.90555238723755,505.9180235862732,506.0680363178253,506.0680363178253,506.0680363178253,506.0680363178253,506.0680363178253,506.0680363178253,506.0680363178253,509.1195297241211,1,3.1946794986724854,None,,,,,,,,,,,,,,,,,,89,5,2025-02-24_10h59.12.473,comp,2024.2.4,62.08614457296296,2025-02-24 10h59.21.245599 -0500,
105,105,0,critical,wdh,35.0,2.1,upper,125.0,200.0,127.0,127.0,200.0,125.0,3,3.7377095222473145,None,,,,,0,0,0,0,0,105,105,33,509.1348922252655,,,,,,,,,,,,,,,,,,,,,,,,,,,,,,,,,,,,,,,,,,,,,,,,,,,,,,,,,,,,,,,,,,,,,,,,,,,,,,,,,125.0,200.0,127.0,127.0,200.0,125.0,2.1,2.12,-260,-260,0,-287,222,264,509.12035059928894,509.1203911304474,509.12250208854675,509.1348922252655,509.2847545146942,509.2847545146942,509.2847545146942,509.2847545146942,509.2847545146942,509.2847545146942,509.2847545146942,512.8858587741852,3,3.7377095222473145,None,,,,,,,,,,,,,,,,,,89,5,2025-02-24_10h59.12.473,comp,2024.2.4,62.08614457296296,2025-02-24 10h59.21.245599 -0500,
106,106,0,filler_square,None,None,None,None,None,None,None,None,None,None,2,1.1226563453674316,None,,,,,0,0,0,0,0,106,106,181,512.9011402130127,,,,,,,,,,,,,,,,,,,,,,,,,,,,,,,,,,,,,,,,,,,,,,,,,,,,,,,,,,,,,,,,,,,,,,,,,,,,,,,,,99.76034841876255,173.28355051707965,174.0452564906056,174.0452564906056,61.32581157485602,70.46632100300643,3.0,3.1,-270,265,0,0,218,-285,512.8868005275726,512.8868401050568,512.8893339633942,512.9011402130127,513.051778793335,513.051778793335,513.051778793335,513.051778793335,513.051778793335,513.051778793335,513.051778793335,514.0357735157013,2,1.1226563453674316,None,,,,,,,,,,,,,,,,,,89,5,2025-02-24_10h59.12.473,comp,2024.2.4,62.08614457296296,2025-02-24 10h59.21.245599 -0500,
107,107,0,filler_random,None,None,None,None,None,None,None,None,None,None,2,1.8306565284729004,None,,,,,0,0,0,0,0,107,107,149,514.0510609149933,,,,,,,,,,,,,,,,,,,,,,,,,,,,,,,,,,,,,,,,,,,,,,,,,,,,,,,,,,,,,,,,,,,,,,,,,,,,,,,,,65.58822380686226,67.76071265434696,121.79827837422584,197.84194994203008,168.81699199326863,106.87363420772114,4.0,4.1,-229,-276,0,-16,248,-284,514.0367050170898,514.0367469787598,514.0393643379211,514.0510609149933,514.2012434005737,514.2012434005737,514.2012434005737,514.2012434005737,514.2012434005737,514.2012434005737,514.2012434005737,515.8858726024628,2,1.8306565284729004,None,,,,,,,,,,,,,,,,,,89,5,2025-02-24_10h59.12.473,comp,2024.2.4,62.08614457296296,2025-02-24 10h59.21.245599 -0500,
108,108,0,critical,whd,20.0,4.0,lower,57.0,133.0,133.0,57.0,78.0,78.0,1,2.3328464031219482,None,,,,,0,0,0,0,0,108,108,94,515.901243686676,,,,,,,,,,,,,,,,,,,,,,,,,,,,,,,,,,,,,,,,,,,,,,,,,,,,,,,,,,,,,,,,,,,,,,,,,,,,,,,,,57.0,133.0,133.0,57.0,78.0,78.0,4.0,4.2,-191,-16,0,-277,164,14,515.8866691589355,515.886712551117,515.8892900943756,515.901243686676,516.0512473583221,516.0512473583221,516.0512473583221,516.0512473583221,516.0512473583221,516.0512473583221,516.0512473583221,518.2357609272003,1,2.3328464031219482,None,,,,,,,,,,,,,,,,,,89,5,2025-02-24_10h59.12.473,comp,2024.2.4,62.08614457296296,2025-02-24 10h59.21.245599 -0500,
109,109,0,critical,wdh,35.0,2.1,lower,57.0,133.0,70.0,70.0,133.0,57.0,1,3.421090602874756,None,,,,,0,0,0,0,0,109,109,8,518.2514057159424,,,,,,,,,,,,,,,,,,,,,,,,,,,,,,,,,,,,,,,,,,,,,,,,,,,,,,,,,,,,,,,,,,,,,,,,,,,,,,,,,57.0,133.0,70.0,70.0,133.0,57.0,2.1,2.11,-198,251,0,286,160,-251,518.2366950511932,518.2367360591888,518.239423751831,518.2514057159424,518.4012110233307,518.4012110233307,518.4012110233307,518.4012110233307,518.4012110233307,518.4012110233307,518.4012110233307,521.6855704784393,1,3.421090602874756,None,,,,,,,,,,,,,,,,,,89,5,2025-02-24_10h59.12.473,comp,2024.2.4,62.08614457296296,2025-02-24 10h59.21.245599 -0500,
110,110,0,critical,whd,20.0,3.0,lower,57.0,133.0,133.0,57.0,78.0,78.0,1,2.7386786937713623,None,,,,,0,0,0,0,0,110,110,92,521.7009735107422,,,,,,,,,,,,,,,,,,,,,,,,,,,,,,,,,,,,,,,,,,,,,,,,,,,,,,,,,,,,,,,,,,,,,,,,,,,,,,,,,57.0,133.0,133.0,57.0,78.0,78.0,3.0,3.2,-191,-277,0,7,164,260,521.6863701343536,521.6864097118378,521.688871383667,521.7009735107422,521.8511264324188,521.8511264324188,521.8511264324188,521.8511264324188,521.8511264324188,521.8511264324188,521.8511264324188,524.4523658752441,1,2.7386786937713623,None,,,,,,,,,,,,,,,,,,89,5,2025-02-24_10h59.12.473,comp,2024.2.4,62.08614457296296,2025-02-24 10h59.21.245599 -0500,
111,111,0,filler_random,None,None,None,None,None,None,None,None,None,None,3,2.0448498725891113,None,,,,,0,0,0,0,0,111,111,165,524.4676887989044,,,,,,,,,,,,,,,,,,,,,,,,,,,,,,,,,,,,,,,,,,,,,,,,,,,,,,,,,,,,,,,,,,,,,,,,,,,,,,,,,120.50963096719504,96.73916830984513,113.11736257208051,143.70736368523302,162.5733131926014,109.45384340122368,4.0,4.1,-216,-263,0,-7,223,-265,524.4532759189606,524.4533171653748,524.455676317215,524.4676887989044,524.6179468631744,524.6179468631744,524.6179468631744,524.6179468631744,524.6179468631744,524.6179468631744,524.6179468631744,526.5190088748932,3,2.0448498725891113,None,,,,,,,,,,,,,,,,,,89,5,2025-02-24_10h59.12.473,comp,2024.2.4,62.08614457296296,2025-02-24 10h59.21.245599 -0500,
112,112,0,critical,whd,20.0,1.0,lower,57.0,133.0,133.0,57.0,78.0,78.0,1,2.641817092895508,None,,,,,0,0,0,0,0,112,112,90,526.5347006320953,,,,,,,,,,,,,,,,,,,,,,,,,,,,,,,,,,,,,,,,,,,,,,,,,,,,,,,,,,,,,,,,,,,,,,,,,,,,,,,,,57.0,133.0,133.0,57.0,78.0,78.0,1.0,1.3,289,-277,480,-274,644,-283,526.5198214054108,526.5198628902435,526.5224509239197,526.5347006320953,526.6843452453613,526.6843452453613,526.6843452453613,526.6843452453613,526.6843452453613,526.6843452453613,526.6843452453613,529.1854755878448,1,2.641817092895508,None,,,,,,,,,,,,,,,,,,89,5,2025-02-24_10h59.12.473,comp,2024.2.4,62.08614457296296,2025-02-24 10h59.21.245599 -0500,
113,113,0,filler_random,None,None,None,None,None,None,None,None,None,None,3,1.9505770206451416,None,,,,,0,0,0,0,0,113,113,161,529.2011790275574,,,,,,,,,,,,,,,,,,,,,,,,,,,,,,,,,,,,,,,,,,,,,,,,,,,,,,,,,,,,,,,,,,,,,,,,,,,,,,,,,160.72995980202006,141.2548256643217,160.52834478094888,57.32601428628977,161.81370460259382,163.1547924310494,4.0,4.1,-195,-256,0,-5,206,-252,529.1864030361176,529.1864454746246,529.1885781288147,529.2011790275574,529.3513250350952,529.3513250350952,529.3513250350952,529.3513250350952,529.3513250350952,529.3513250350952,529.3513250350952,531.1689643859863,3,1.9505770206451416,None,,,,,,,,,,,,,,,,,,89,5,2025-02-24_10h59.12.473,comp,2024.2.4,62.08614457296296,2025-02-24 10h59.21.245599 -0500,
114,114,0,filler_square,None,None,None,None,None,None,None,None,None,None,1,2.1921820640563965,None,,,,,0,0,0,0,0,114,114,184,531.1843111515045,,,,,,,,,,,,,,,,,,,,,,,,,,,,,,,,,,,,,,,,,,,,,,,,,,,,,,,,,,,,,,,,,,,,,,,,,,,,,,,,,102.48031619218253,102.48031619218253,81.98003818747311,91.33314488537671,101.78562494792419,84.45178888816929,1.0,1.1,-673,282,-480,257,-296,272,531.1699368953705,531.1699774265289,531.1724960803986,531.1843111515045,531.3344347476959,531.3344347476959,531.3344347476959,531.3344347476959,531.3344347476959,531.3344347476959,531.3344347476959,533.3854787349701,1,2.1921820640563965,None,,,,,,,,,,,,,,,,,,89,5,2025-02-24_10h59.12.473,comp,2024.2.4,62.08614457296296,2025-02-24 10h59.21.245599 -0500,
115,115,0,critical,hdw,35.0,3.0,upper,200.0,125.0,127.0,127.0,125.0,200.0,1,1.6081657409667969,None,,,,,0,0,0,0,0,115,115,111,533.4011754989624,,,,,,,,,,,,,,,,,,,,,,,,,,,,,,,,,,,,,,,,,,,,,,,,,,,,,,,,,,,,,,,,,,,,,,,,,,,,,,,,,200.0,125.0,127.0,127.0,125.0,200.0,3.0,3.2,-222,-269,0,16,260,253,533.3862500190735,533.3862912654877,533.3884153366089,533.4011754989624,533.551283121109,533.551283121109,533.551283121109,533.551283121109,533.551283121109,533.551283121109,533.551283121109,535.019189119339,1,1.6081657409667969,None,,,,,,,,,,,,,,,,,,89,5,2025-02-24_10h59.12.473,comp,2024.2.4,62.08614457296296,2025-02-24 10h59.21.245599 -0500,
116,116,0,critical,hdw,20.0,2.1,upper,200.0,125.0,141.0,141.0,125.0,200.0,3,1.800220251083374,None,,,,,0,0,0,0,0,116,116,23,535.0346124172211,,,,,,,,,,,,,,,,,,,,,,,,,,,,,,,,,,,,,,,,,,,,,,,,,,,,,,,,,,,,,,,,,,,,,,,,,,,,,,,,,200.0,125.0,141.0,141.0,125.0,200.0,2.1,2.11,-229,251,0,253,266,-278,535.0199947357178,535.0200343132019,535.022586107254,535.0346124172211,535.1845712661743,535.1845712661743,535.1845712661743,535.1845712661743,535.1845712661743,535.1845712661743,535.1845712661743,536.8361792564392,3,1.800220251083374,None,,,,,,,,,,,,,,,,,,89,5,2025-02-24_10h59.12.473,comp,2024.2.4,62.08614457296296,2025-02-24 10h59.21.245599 -0500,
117,117,0,critical,hwd,35.0,2.1,lower,133.0,57.0,57.0,133.0,70.0,70.0,1,5.204468727111816,None,,,,,0,0,0,0,0,117,117,40,536.8512578010559,,,,,,,,,,,,,,,,,,,,,,,,,,,,,,,,,,,,,,,,,,,,,,,,,,,,,,,,,,,,,,,,,,,,,,,,,,,,,,,,,133.0,57.0,57.0,133.0,70.0,70.0,2.1,2.12,-191,-278,0,-268,198,264,536.8369946479797,536.8370363712311,536.8391687870026,536.8512578010559,537.0038735866547,537.0038735866547,537.0038735866547,537.0038735866547,537.0038735866547,537.0038735866547,537.0038735866547,542.0688095092773,1,5.204468727111816,None,,,,,,,,,,,,,,,,,,89,5,2025-02-24_10h59.12.473,comp,2024.2.4,62.08614457296296,2025-02-24 10h59.21.245599 -0500,
118,118,0,filler_square,None,None,None,None,None,None,None,None,None,None,3,3.044194221496582,None,,,,,0,0,0,0,0,118,118,175,542.0842471122742,,,,,,,,,,,,,,,,,,,,,,,,,,,,,,,,,,,,,,,,,,,,,,,,,,,,,,,,,,,,,,,,,,,,,,,,,,,,,,,,,87.77928446437168,82.11099825383027,166.6275465122291,80.74471994872867,168.86382139254218,168.86382139254218,4.0,4.2,-177,4,0,-272,221,10,542.06978058815,542.0698218345642,542.0723400115967,542.0842471122742,542.234561920166,542.234561920166,542.234561920166,542.234561920166,542.234561920166,542.234561920166,542.234561920166,545.1355674266815,3,3.044194221496582,None,,,,,,,,,,,,,,,,,,89,5,2025-02-24_10h59.12.473,comp,2024.2.4,62.08614457296296,2025-02-24 10h59.21.245599 -0500,
119,119,0,critical,hdw,20.0,2.1,lower,133.0,57.0,78.0,78.0,57.0,133.0,3,5.361293315887451,None,,,,,0,0,0,0,0,119,119,22,545.1510446071625,,,,,,,,,,,,,,,,,,,,,,,,,,,,,,,,,,,,,,,,,,,,,,,,,,,,,,,,,,,,,,,,,,,,,,,,,,,,,,,,,133.0,57.0,78.0,78.0,57.0,133.0,2.1,2.12,-164,-260,0,-273,202,263,545.1364097595215,545.1364512443542,545.138932466507,545.1510446071625,545.3009788990021,545.3009788990021,545.3009788990021,545.3009788990021,545.3009788990021,545.3009788990021,545.3009788990021,550.518684387207,3,5.361293315887451,None,,,,,,,,,,,,,,,,,,89,5,2025-02-24_10h59.12.473,comp,2024.2.4,62.08614457296296,2025-02-24 10h59.21.245599 -0500,
120,120,0,filler_random,None,None,None,None,None,None,None,None,None,None,2,1.0741400718688965,None,,,,,0,0,0,0,0,120,120,166,550.534649848938,,,,,,,,,,,,,,,,,,,,,,,,,,,,,,,,,,,,,,,,,,,,,,,,,,,,,,,,,,,,,,,,,,,,,,,,,,,,,,,,,139.22144555329967,128.1048784274986,184.73141392033304,145.08948622024695,139.98684406613603,138.963928178217,1.0,1.1,-713,286,-480,250,-242,262,550.519615650177,550.5196578502655,550.5221672058105,550.534649848938,550.6844689846039,550.6844689846039,550.6844689846039,550.6844689846039,550.6844689846039,550.6844689846039,550.6844689846039,551.6189448833466,2,1.0741400718688965,None,,,,,,,,,,,,,,,,,,89,5,2025-02-24_10h59.12.473,comp,2024.2.4,62.08614457296296,2025-02-24 10h59.21.245599 -0500,
121,121,0,critical,dhw,35.0,4.0,lower,70.0,70.0,133.0,57.0,57.0,133.0,1,2.133824110031128,None,,,,,0,0,0,0,0,121,121,52,551.634378194809,,,,,,,,,,,,,,,,,,,,,,,,,,,,,,,,,,,,,,,,,,,,,,,,,,,,,,,,,,,,,,,,,,,,,,,,,,,,,,,,,70.0,70.0,133.0,57.0,57.0,133.0,4.0,4.2,-160,-7,0,-266,191,-17,551.61971616745,551.6197559833527,551.6232588291168,551.634378194809,551.7845370769501,551.7845370769501,551.7845370769501,551.7845370769501,551.7845370769501,551.7845370769501,551.7845370769501,553.785317659378,1,2.133824110031128,None,,,,,,,,,,,,,,,,,,89,5,2025-02-24_10h59.12.473,comp,2024.2.4,62.08614457296296,2025-02-24 10h59.21.245599 -0500,
122,122,0,critical,wdh,35.0,4.0,lower,57.0,133.0,70.0,70.0,133.0,57.0,3,2.4715099334716797,None,,,,,0,0,0,0,0,122,122,76,553.8007888793945,,,,,,,,,,,,,,,,,,,,,,,,,,,,,,,,,,,,,,,,,,,,,,,,,,,,,,,,,,,,,,,,,,,,,,,,,,,,,,,,,57.0,133.0,70.0,70.0,133.0,57.0,4.0,4.2,-198,-5,0,-287,160,7,553.786082983017,553.7861230373383,553.7884664535522,553.8007888793945,553.9517784118652,553.9517784118652,553.9517784118652,553.9517784118652,553.9517784118652,553.9517784118652,553.9517784118652,556.2853162288666,3,2.4715099334716797,None,,,,,,,,,,,,,,,,,,89,5,2025-02-24_10h59.12.473,comp,2024.2.4,62.08614457296296,2025-02-24 10h59.21.245599 -0500,
123,123,0,filler_square,None,None,None,None,None,None,None,None,None,None,2,1.243635654449463,None,,,,,0,0,0,0,0,123,123,207,556.3007686138153,,,,,,,,,,,,,,,,,,,,,,,,,,,,,,,,,,,,,,,,,,,,,,,,,,,,,,,,,,,,,,,,,,,,,,,,,,,,,,,,,102.4853247822276,131.51991375810388,139.76416582424753,139.76416582424753,86.56194698979965,74.0023010407502,2.1,2.12,-232,-251,0,-257,203,276,556.2862119674683,556.2862505912781,556.2886052131653,556.3007686138153,556.4509408473969,556.4509408473969,556.4509408473969,556.4509408473969,556.4509408473969,556.4509408473969,556.4509408473969,557.5521738529205,2,1.243635654449463,None,,,,,,,,,,,,,,,,,,89,5,2025-02-24_10h59.12.473,comp,2024.2.4,62.08614457296296,2025-02-24 10h59.21.245599 -0500,
124,124,0,critical,whd,35.0,2.1,upper,125.0,200.0,200.0,125.0,127.0,127.0,2,1.8336644172668457,None,,,,,0,0,0,0,0,124,124,13,557.5675868988037,,,,,,,,,,,,,,,,,,,,,,,,,,,,,,,,,,,,,,,,,,,,,,,,,,,,,,,,,,,,,,,,,,,,,,,,,,,,,,,,,125.0,200.0,200.0,125.0,127.0,127.0,2.1,2.12,-258,-278,0,-289,222,290,557.5529475212097,557.5529887676239,557.5552775859833,557.5675868988037,557.7178719043732,557.7178719043732,557.7178719043732,557.7178719043732,557.7178719043732,557.7178719043732,557.7178719043732,559.4187877178192,2,1.8336644172668457,None,,,,,,,,,,,,,,,,,,89,5,2025-02-24_10h59.12.473,comp,2024.2.4,62.08614457296296,2025-02-24 10h59.21.245599 -0500,
125,125,0,critical,dhw,35.0,2.1,upper,127.0,127.0,200.0,125.0,125.0,200.0,3,1.9505395889282227,None,,,,,0,0,0,0,0,125,125,25,559.4341421127319,,,,,,,,,,,,,,,,,,,,,,,,,,,,,,,,,,,,,,,,,,,,,,,,,,,,,,,,,,,,,,,,,,,,,,,,,,,,,,,,,127.0,127.0,200.0,125.0,125.0,200.0,2.1,2.11,-222,252,0,288,258,-289,559.419581413269,559.4196219444275,559.4221847057343,559.4341421127319,559.5845229625702,559.5845229625702,559.5845229625702,559.5845229625702,559.5845229625702,559.5845229625702,559.5845229625702,561.4020092487335,3,1.9505395889282227,None,,,,,,,,,,,,,,,,,,89,5,2025-02-24_10h59.12.473,comp,2024.2.4,62.08614457296296,2025-02-24 10h59.21.245599 -0500,
126,126,0,filler_square,None,None,None,None,None,None,None,None,None,None,3,1.2167425155639648,None,,,,,0,0,0,0,0,126,126,201,561.4173982143402,,,,,,,,,,,,,,,,,,,,,,,,,,,,,,,,,,,,,,,,,,,,,,,,,,,,,,,,,,,,,,,,,,,,,,,,,,,,,,,,,72.20390641939304,130.3495362483793,92.32284758975959,74.29889665095537,184.29900959562988,184.29900959562988,2.1,2.11,-198,252,0,269,225,-264,561.4029741287231,561.403012752533,561.405576467514,561.4173982143402,561.567720413208,561.567720413208,561.567720413208,561.567720413208,561.567720413208,561.567720413208,561.567720413208,562.6521260738373,3,1.2167425155639648,None,,,,,,,,,,,,,,,,,,89,5,2025-02-24_10h59.12.473,comp,2024.2.4,62.08614457296296,2025-02-24 10h59.21.245599 -0500,
127,127,0,critical,dwh,35.0,2.1,lower,70.0,70.0,57.0,133.0,133.0,57.0,2,2.555756092071533,None,,,,,0,0,0,0,0,127,127,28,562.6676254272461,,,,,,,,,,,,,,,,,,,,,,,,,,,,,,,,,,,,,,,,,,,,,,,,,,,,,,,,,,,,,,,,,,,,,,,,,,,,,,,,,70.0,70.0,57.0,133.0,133.0,57.0,2.1,2.11,-198,276,0,276,191,-262,562.6529362201691,562.6529765129089,562.6563622951508,562.6676254272461,562.8178181648254,562.8178181648254,562.8178181648254,562.8178181648254,562.8178181648254,562.8178181648254,562.8178181648254,565.2355251312256,2,2.555756092071533,None,,,,,,,,,,,,,,,,,,89,5,2025-02-24_10h59.12.473,comp,2024.2.4,62.08614457296296,2025-02-24 10h59.21.245599 -0500,
128,128,0,filler_random,None,None,None,None,None,None,None,None,None,None,2,1.8776028156280518,None,,,,,0,0,0,0,0,128,128,147,565.25084233284,,,,,,,,,,,,,,,,,,,,,,,,,,,,,,,,,,,,,,,,,,,,,,,,,,,,,,,,,,,,,,,,,,,,,,,,,,,,,,,,,199.19339013184307,67.5702998552403,125.09736694259799,110.70436266014599,101.70116112920772,74.92780965254659,2.1,2.12,-185,-277,0,-289,189,263,565.2365438938141,565.2365853786469,565.239040851593,565.25084233284,565.4009985923767,565.4009985923767,565.4009985923767,565.4009985923767,565.4009985923767,565.4009985923767,565.4009985923767,567.1353483200073,2,1.8776028156280518,None,,,,,,,,,,,,,,,,,,89,5,2025-02-24_10h59.12.473,comp,2024.2.4,62.08614457296296,2025-02-24 10h59.21.245599 -0500,
129,129,0,critical,hdw,35.0,4.0,upper,200.0,125.0,127.0,127.0,125.0,200.0,1,1.837336778640747,None,,,,,0,0,0,0,0,129,129,113,567.1508569717407,,,,,,,,,,,,,,,,,,,,,,,,,,,,,,,,,,,,,,,,,,,,,,,,,,,,,,,,,,,,,,,,,,,,,,,,,,,,,,,,,200.0,125.0,127.0,127.0,125.0,200.0,4.0,4.2,-222,-19,0,-273,260,-13,567.1360893249512,567.1361286640167,567.138258934021,567.1508569717407,567.3010141849518,567.3010141849518,567.3010141849518,567.3010141849518,567.3010141849518,567.3010141849518,567.3010141849518,569.0024831295013,1,1.837336778640747,None,,,,,,,,,,,,,,,,,,89,5,2025-02-24_10h59.12.473,comp,2024.2.4,62.08614457296296,2025-02-24 10h59.21.245599 -0500,
130,130,0,critical,dhw,20.0,4.0,lower,78.0,78.0,133.0,57.0,57.0,133.0,3,2.5743048191070557,None,,,,,0,0,0,0,0,130,130,58,569.0180444717407,,,,,,,,,,,,,,,,,,,,,,,,,,,,,,,,,,,,,,,,,,,,,,,,,,,,,,,,,,,,,,,,,,,,,,,,,,,,,,,,,78.0,78.0,133.0,57.0,57.0,133.0,4.0,4.1,-164,-289,0,3,191,-272,569.0031836032867,569.0032434463501,569.0051834583282,569.0180444717407,569.168211221695,569.168211221695,569.168211221695,569.168211221695,569.168211221695,569.168211221695,569.168211221695,571.6018815040588,3,2.5743048191070557,None,,,,,,,,,,,,,,,,,,89,5,2025-02-24_10h59.12.473,comp,2024.2.4,62.08614457296296,2025-02-24 10h59.21.245599 -0500,
131,131,0,filler_square,None,None,None,None,None,None,None,None,None,None,1,1.4634666442871094,None,,,,,0,0,0,0,0,131,131,193,571.6176371574402,,,,,,,,,,,,,,,,,,,,,,,,,,,,,,,,,,,,,,,,,,,,,,,,,,,,,,,,,,,,,,,,,,,,,,,,,,,,,,,,,193.77168283183025,193.77168283183025,161.3308187006489,170.74406602376706,176.86972844890454,140.38913164486655,1.0,1.1,-758,272,-480,258,-228,250,571.6028685569763,571.6029114723206,571.605473279953,571.6176371574402,571.767804145813,571.767804145813,571.767804145813,571.767804145813,571.767804145813,571.767804145813,571.767804145813,573.085700750351,1,1.4634666442871094,None,,,,,,,,,,,,,,,,,,89,5,2025-02-24_10h59.12.473,comp,2024.2.4,62.08614457296296,2025-02-24 10h59.21.245599 -0500,
132,132,0,filler_random,None,None,None,None,None,None,None,None,None,None,1,2.5712316036224365,None,,,,,0,0,0,0,0,132,132,150,573.1009323596954,,,,,,,,,,,,,,,,,,,,,,,,,,,,,,,,,,,,,,,,,,,,,,,,,,,,,,,,,,,,,,,,,,,,,,,,,,,,,,,,,161.5143406595553,126.8949110745307,152.2694444064146,103.65792459061943,185.12215113485314,90.84040856813584,4.0,4.1,-211,-264,0,15,193,-251,573.086630821228,573.0866725444794,573.0887763500214,573.1009323596954,573.2508926391602,573.2508926391602,573.2508926391602,573.2508926391602,573.2508926391602,573.2508926391602,573.2508926391602,575.6853647232056,1,2.5712316036224365,None,,,,,,,,,,,,,,,,,,89,5,2025-02-24_10h59.12.473,comp,2024.2.4,62.08614457296296,2025-02-24 10h59.21.245599 -0500,
133,133,0,critical,dhw,20.0,2.1,lower,78.0,78.0,133.0,57.0,57.0,133.0,3,2.1549127101898193,None,,,,,0,0,0,0,0,133,133,2,575.7005379199982,,,,,,,,,,,,,,,,,,,,,,,,,,,,,,,,,,,,,,,,,,,,,,,,,,,,,,,,,,,,,,,,,,,,,,,,,,,,,,,,,78.0,78.0,133.0,57.0,57.0,133.0,2.1,2.11,-164,285,0,251,191,-287,575.686133146286,575.6861729621887,575.6885440349579,575.7005379199982,575.8508667945862,575.8508667945862,575.8508667945862,575.8508667945862,575.8508667945862,575.8508667945862,575.8508667945862,577.8688907623291,3,2.1549127101898193,None,,,,,,,,,,,,,,,,,,89,5,2025-02-24_10h59.12.473,comp,2024.2.4,62.08614457296296,2025-02-24 10h59.21.245599 -0500,
134,134,0,critical,hdw,20.0,3.0,upper,200.0,125.0,141.0,141.0,125.0,200.0,1,1.444305419921875,None,,,,,0,0,0,0,0,134,134,117,577.8840627670288,,,,,,,,,,,,,,,,,,,,,,,,,,,,,,,,,,,,,,,,,,,,,,,,,,,,,,,,,,,,,,,,,,,,,,,,,,,,,,,,,200.0,125.0,141.0,141.0,125.0,200.0,3.0,3.2,-229,-283,0,-20,266,284,577.869687795639,577.8697276115417,577.8722357749939,577.8840627670288,578.0343112945557,578.0343112945557,578.0343112945557,578.0343112945557,578.0343112945557,578.0343112945557,578.0343112945557,579.3353741168976,1,1.444305419921875,None,,,,,,,,,,,,,,,,,,89,5,2025-02-24_10h59.12.473,comp,2024.2.4,62.08614457296296,2025-02-24 10h59.21.245599 -0500,
135,135,0,critical,dwh,20.0,4.0,lower,78.0,78.0,57.0,133.0,133.0,57.0,3,4.200660467147827,None,,,,,0,0,0,0,0,135,135,70,579.3507680892944,,,,,,,,,,,,,,,,,,,,,,,,,,,,,,,,,,,,,,,,,,,,,,,,,,,,,,,,,,,,,,,,,,,,,,,,,,,,,,,,,78.0,78.0,57.0,133.0,133.0,57.0,4.0,4.2,-202,17,0,-262,191,-1,579.3361551761627,579.3362052440643,579.3385064601898,579.3507680892944,579.5007450580597,579.5007450580597,579.5007450580597,579.5007450580597,579.5007450580597,579.5007450580597,579.5007450580597,583.5685563087463,3,4.200660467147827,None,,,,,,,,,,,,,,,,,,89,5,2025-02-24_10h59.12.473,comp,2024.2.4,62.08614457296296,2025-02-24 10h59.21.245599 -0500,
136,136,0,filler_square,None,None,None,None,None,None,None,None,None,None,1,2.8334548473358154,None,,,,,0,0,0,0,0,136,136,187,583.5839908123016,,,,,,,,,,,,,,,,,,,,,,,,,,,,,,,,,,,,,,,,,,,,,,,,,,,,,,,,,,,,,,,,,,,,,,,,,,,,,,,,,68.2390728000099,68.2390728000099,61.806393481645635,59.229447035888704,65.30055819949656,60.424472942305066,2.1,2.11,-160,259,0,288,156,-285,583.5696406364441,583.5696806907654,583.5721249580383,583.5839908123016,583.7340786457062,583.7340786457062,583.7340786457062,583.7340786457062,583.7340786457062,583.7340786457062,583.7340786457062,586.4187159538269,1,2.8334548473358154,None,,,,,,,,,,,,,,,,,,89,5,2025-02-24_10h59.12.473,comp,2024.2.4,62.08614457296296,2025-02-24 10h59.21.245599 -0500,
137,137,0,filler_random,None,None,None,None,None,None,None,None,None,None,1,4.215837717056274,None,,,,,0,0,0,0,0,137,137,132,586.4341461658478,,,,,,,,,,,,,,,,,,,,,,,,,,,,,,,,,,,,,,,,,,,,,,,,,,,,,,,,,,,,,,,,,,,,,,,,,,,,,,,,,107.49127824283947,102.8027608634689,145.90611968814767,71.38160166311519,60.10700776315743,71.63643911296471,2.2,2.21,-183,-283,0,284,168,268,586.4196190834045,586.4196605682373,586.4220662117004,586.4341461658478,586.5840396881104,586.5840396881104,586.5840396881104,586.5840396881104,586.5840396881104,586.5840396881104,586.5840396881104,590.668452501297,1,4.215837717056274,None,,,,,,,,,,,,,,,,,,89,5,2025-02-24_10h59.12.473,comp,2024.2.4,62.08614457296296,2025-02-24 10h59.21.245599 -0500,
138,138,0,critical,hwd,20.0,3.0,lower,133.0,57.0,57.0,133.0,78.0,78.0,2,3.5553553104400635,None,,,,,0,0,0,0,0,138,138,104,590.6838791370392,,,,,,,,,,,,,,,,,,,,,,,,,,,,,,,,,,,,,,,,,,,,,,,,,,,,,,,,,,,,,,,,,,,,,,,,,,,,,,,,,133.0,57.0,57.0,133.0,78.0,78.0,3.0,3.1,-191,273,0,6,202,-259,590.6692185401917,590.6692585945129,590.6726367473602,590.6838791370392,590.833996295929,590.833996295929,590.833996295929,590.833996295929,590.833996295929,590.833996295929,590.833996295929,594.2519495487213,2,3.5553553104400635,None,,,,,,,,,,,,,,,,,,89,5,2025-02-24_10h59.12.473,comp,2024.2.4,62.08614457296296,2025-02-24 10h59.21.245599 -0500,
139,139,0,filler_random,None,None,None,None,None,None,None,None,None,None,2,1.8613150119781494,None,,,,,0,0,0,0,0,139,139,134,594.2672410011292,,,,,,,,,,,,,,,,,,,,,,,,,,,,,,,,,,,,,,,,,,,,,,,,,,,,,,,,,,,,,,,,,,,,,,,,,,,,,,,,,65.4374058020924,150.89115586252532,144.39391956367996,132.64273979631662,112.17532073118836,65.07883445599575,1.0,1.3,242,-263,480,-252,675,-281,594.2528684139252,594.2529089450836,594.2550482749939,594.2672410011292,594.417667388916,594.417667388916,594.417667388916,594.417667388916,594.417667388916,594.417667388916,594.417667388916,596.1362452507019,2,1.8613150119781494,None,,,,,,,,,,,,,,,,,,89,5,2025-02-24_10h59.12.473,comp,2024.2.4,62.08614457296296,2025-02-24 10h59.21.245599 -0500,
140,140,0,critical,hdw,35.0,2.1,lower,133.0,57.0,70.0,70.0,57.0,133.0,2,3.160794734954834,None,,,,,0,0,0,0,0,140,140,20,596.151228427887,,,,,,,,,,,,,,,,,,,,,,,,,,,,,,,,,,,,,,,,,,,,,,,,,,,,,,,,,,,,,,,,,,,,,,,,,,,,,,,,,133.0,57.0,70.0,70.0,57.0,133.0,2.1,2.11,-160,259,0,256,198,-275,596.1370377540588,596.1370794773102,596.1396751403809,596.151228427887,596.300595998764,596.300595998764,596.300595998764,596.300595998764,596.300595998764,596.300595998764,596.300595998764,599.3183403015137,2,3.160794734954834,None,,,,,,,,,,,,,,,,,,89,5,2025-02-24_10h59.12.473,comp,2024.2.4,62.08614457296296,2025-02-24 10h59.21.245599 -0500,
