thisN,thisTrialN,thisRepN,effect,order,distance,config,diag,h_1,w_1,h_2,w_2,h_3,w_3,rect_choice.keys,rect_choice.rt,rect_choice.duration,instructions_loop.thisRepN,instructions_loop.thisTrialN,instructions_loop.thisN,instructions_loop.thisIndex,blocks.thisRepN,blocks.thisTrialN,blocks.thisN,blocks.thisIndex,trials.thisRepN,trials.thisTrialN,trials.thisN,trials.thisIndex,thisRow.t,notes,consent.started,agree_button.started,decline_button.started,consent_img.started,mouse.started,consent.stopped,agree_button.numClicks,agree_button.timesOn,agree_button.timesOff,decline_button.numClicks,decline_button.timesOn,decline_button.timesOff,mouse.x,mouse.y,mouse.leftButton,mouse.midButton,mouse.rightButton,mouse.time,mouse.clicked_name,exp_params.started,exp_params.stopped,welcome.started,welcome_text.started,welcome.stopped,instructions_1.started,instructions_1_text_1.started,instructions_1_text_2.started,key_resp.started,instructions_1.stopped,instructions_loop.key_resp.keys,instructions_loop.key_resp.rt,instructions_loop.key_resp.duration,instructions_2.started,instructions_2_text_1.started,instructions_2_text_2.started,key_resp_2.started,instructions_2.stopped,instructions_loop.key_resp_2.keys,instructions_loop.key_resp_2.rt,instructions_loop.key_resp_2.duration,instructions_3.started,instructions_3_text_1.started,r1_instr3.started,r2_instr3.started,r3_instr3.started,r1_instr3_label.started,r2_instr3_label.started,r3_instr3_label.started,instructions_3_text_3.started,instructions_3_text_4.started,key_resp_3.started,instructions_3.stopped,instructions_loop.key_resp_3.keys,instructions_loop.key_resp_3.rt,instructions_loop.key_resp_3.duration,instructions_4.started,instructions_4_text_1.started,instructions_4_text_3.started,instructions_4_text_2.started,key_resp_4.started,instructions_4.stopped,instructions_loop.key_resp_4.keys,instructions_loop.key_resp_4.rt,instructions_loop.key_resp_4.duration,instructions_5.started,instructions_5_text_1.started,instructions_5_text_2.started,key_resp_5.started,instructions_5.stopped,instructions_loop.key_resp_5.keys,instructions_loop.key_resp_5.rt,instructions_loop.key_resp_5.duration,start_exp.started,start_exp_text.started,key_resp_6.started,start_exp.stopped,key_resp_6.keys,key_resp_6.rt,key_resp_6.duration,h_1_tmp,w_1_tmp,h_2_tmp,w_2_tmp,h_3_tmp,w_3_tmp,config_tmp,config_tmp_1,r_1_x,r_1_y,r_2_x,r_2_y,r_3_x,r_3_y,pre_trial.started,pre_trial.stopped,choice_trial.started,rect_choice.started,r_1.started,r_2.started,r_3.started,r_1_label.started,r_2_label.started,r_3_label.started,prompt.started,choice_trial.stopped,trials.rect_choice.keys,trials.rect_choice.rt,trials.rect_choice.duration,end_block.started,end_block_text.started,end_block.stopped,end.started,end_text.started,key_resp_7.started,end.stopped,key_resp_7.keys,key_resp_7.rt,key_resp_7.duration,debriefing.started,debrief_form.started,end_debrief.started,debriefing.stopped,end_debrief.keys,end_debrief.rt,end_debrief.duration,participant,computer,date,expName,psychopyVersion,frameRate,expStart,
,,,,,,,,,,,,,,,,,,,,,,,,,,,,,,,0.0167391300201416,0.0428159236907959,0.0428159236907959,0.0428159236907959,0.016190528869628906,26.899621725082397,1,[26.855589866638184],[26.855600833892822],0,,,[-73.0],[-500.0],[1],[0],[0],[26.88235092163086],['agree_button'],,,,,,,,,,,,,,,,,,,,,,,,,,,,,,,,,,,,,,,,,,,,,,,,,,,,,,,,,,,,,,,,,,,,,,,,,,,,,,,,,,,,,,,,,,,,,,,,,,,,,,,,,,,8,3,2025-02-18_12h57.24.771,comp,2024.2.4,60.08497812515221,2025-02-18 13h00.39.552686 -0500,
,,,,,,,,,,,,,,,,,,,,,,,,,,,,,,,,,,,,,,,,,,,,,,,,,,26.899916887283325,26.8999502658844,,,,,,,,,,,,,,,,,,,,,,,,,,,,,,,,,,,,,,,,,,,,,,,,,,,,,,,,,,,,,,,,,,,,,,,,,,,,,,,,,,,,,,,,,,,,,,,,,,,,,,,,,8,3,2025-02-18_12h57.24.771,comp,2024.2.4,60.08497812515221,2025-02-18 13h00.39.552686 -0500,
,,,,,,,,,,,,,,,,,,,,,,,,,,,,,,,,,,,,,,,,,,,,,,,,,,,,26.89997363090515,26.91325879096985,28.904195308685303,,,,,,,,,,,,,,,,,,,,,,,,,,,,,,,,,,,,,,,,,,,,,,,,,,,,,,,,,,,,,,,,,,,,,,,,,,,,,,,,,,,,,,,,,,,,,,,,,,,,,,8,3,2025-02-18_12h57.24.771,comp,2024.2.4,60.08497812515221,2025-02-18 13h00.39.552686 -0500,
0,0,0,,,,,,,,,,,,,,,0,0,0,0,,,,,,,,,28.920730352401733,,,,,,,,,,,,,,,,,,,,,,,,,,28.90473222732544,28.920730352401733,28.920730352401733,30.404020071029663,34.105430603027344,space,3.6794023513793945,None,34.105512857437134,34.12087059020996,34.12087059020996,35.62059235572815,41.28853940963745,space,5.66232442855835,None,41.28862452507019,41.31050395965576,41.31050395965576,41.31050395965576,41.31050395965576,41.31050395965576,41.31050395965576,41.31050395965576,41.31050395965576,41.31050395965576,42.787683963775635,49.222386837005615,space,6.4223058223724365,None,49.22247576713562,49.23743557929993,49.23743557929993,49.23743557929993,50.737303018569946,53.505043745040894,space,2.7528107166290283,None,53.505127906799316,53.52064251899719,53.52064251899719,55.02045297622681,55.68811249732971,space,0.6536643505096436,None,55.68822455406189,55.70372009277344,55.70372009277344,57.154688358306885,space,1.4343852996826172,None,,,,,,,,,,,,,,,,,,,,,,,,,,,,,,,,,,,,,,,,,,,,,,,8,3,2025-02-18_12h57.24.771,comp,2024.2.4,60.08497812515221,2025-02-18 13h00.39.552686 -0500,
0,0,0,filler_square,None,None,None,None,None,None,None,None,None,None,3,1.990452527999878,None,,,,,0,0,0,0,0,0,0,188,57.21363425254822,,,,,,,,,,,,,,,,,,,,,,,,,,,,,,,,,,,,,,,,,,,,,,,,,,,,,,,,,,,,,,,,,,,,,,,,,,,,,,,,,123.60172689094358,103.51908848019963,122.51699288199278,90.83220610510294,168.7765392361963,168.7765392361963,1.0,1.2,-193,-8,0,-16,226,-12,57.200159549713135,57.200204610824585,57.202186822891235,57.21363425254822,57.36064887046814,57.36064887046814,57.36064887046814,57.36064887046814,57.36064887046814,57.36064887046814,57.36064887046814,59.205389738082886,3,1.990452527999878,None,,,,,,,,,,,,,,,,,,8,3,2025-02-18_12h57.24.771,comp,2024.2.4,60.08497812515221,2025-02-18 13h00.39.552686 -0500,
1,1,0,critical,hdw,20.0,3.0,lower,133.0,57.0,78.0,78.0,57.0,133.0,3,6.669461250305176,None,,,,,0,0,0,0,0,1,1,116,59.22065043449402,,,,,,,,,,,,,,,,,,,,,,,,,,,,,,,,,,,,,,,,,,,,,,,,,,,,,,,,,,,,,,,,,,,,,,,,,,,,,,,,,133.0,57.0,78.0,78.0,57.0,133.0,3.0,3.2,-164,-273,0,-10,202,290,59.20619440078735,59.20623517036438,59.20864391326904,59.22065043449402,59.37059569358826,59.37059569358826,59.37059569358826,59.37059569358826,59.37059569358826,59.37059569358826,59.37059569358826,65.90500807762146,3,6.669461250305176,None,,,,,,,,,,,,,,,,,,8,3,2025-02-18_12h57.24.771,comp,2024.2.4,60.08497812515221,2025-02-18 13h00.39.552686 -0500,
2,2,0,critical,wdh,35.0,1.0,upper,125.0,200.0,127.0,127.0,200.0,125.0,3,7.858892917633057,None,,,,,0,0,0,0,0,2,2,73,65.92030572891235,,,,,,,,,,,,,,,,,,,,,,,,,,,,,,,,,,,,,,,,,,,,,,,,,,,,,,,,,,,,,,,,,,,,,,,,,,,,,,,,,125.0,200.0,127.0,127.0,200.0,125.0,1.0,1.2,-260,-11,0,20,222,-2,65.90582633018494,65.9058678150177,65.90825057029724,65.92030572891235,66.0706512928009,66.0706512928009,66.0706512928009,66.0706512928009,66.0706512928009,66.0706512928009,66.0706512928009,73.78836107254028,3,7.858892917633057,None,,,,,,,,,,,,,,,,,,8,3,2025-02-18_12h57.24.771,comp,2024.2.4,60.08497812515221,2025-02-18 13h00.39.552686 -0500,
3,3,0,critical,dwh,35.0,2.1,upper,127.0,127.0,125.0,200.0,200.0,125.0,2,4.102095603942871,None,,,,,0,0,0,0,0,3,3,5,73.8039276599884,,,,,,,,,,,,,,,,,,,,,,,,,,,,,,,,,,,,,,,,,,,,,,,,,,,,,,,,,,,,,,,,,,,,,,,,,,,,,,,,,127.0,127.0,125.0,200.0,200.0,125.0,2.1,2.12,-260,-272,0,-276,258,288,73.78915166854858,73.78919196128845,73.79180693626404,73.8039276599884,73.95406651496887,73.95406651496887,73.95406651496887,73.95406651496887,73.95406651496887,73.95406651496887,73.95406651496887,77.92179989814758,2,4.102095603942871,None,,,,,,,,,,,,,,,,,,8,3,2025-02-18_12h57.24.771,comp,2024.2.4,60.08497812515221,2025-02-18 13h00.39.552686 -0500,
4,4,0,filler_square,None,None,None,None,None,None,None,None,None,None,2,2.483767509460449,None,,,,,0,0,0,0,0,4,4,176,77.93695616722107,,,,,,,,,,,,,,,,,,,,,,,,,,,,,,,,,,,,,,,,,,,,,,,,,,,,,,,,,,,,,,,,,,,,,,,,,,,,,,,,,108.27116929110073,159.8581528088132,163.96943514610268,163.96943514610268,110.70313790806267,148.6172532585368,3.0,3.2,-258,-251,0,8,252,266,77.92278814315796,77.92282915115356,77.92488431930542,77.93695616722107,78.08742237091064,78.08742237091064,78.08742237091064,78.08742237091064,78.08742237091064,78.08742237091064,78.08742237091064,80.42204761505127,2,2.483767509460449,None,,,,,,,,,,,,,,,,,,8,3,2025-02-18_12h57.24.771,comp,2024.2.4,60.08497812515221,2025-02-18 13h00.39.552686 -0500,
5,5,0,critical,dwh,20.0,4.0,lower,78.0,78.0,57.0,133.0,133.0,57.0,2,19.733541250228882,None,,,,,0,0,0,0,0,5,5,70,80.43714642524719,,,,,,,,,,,,,,,,,,,,,,,,,,,,,,,,,,,,,,,,,,,,,,,,,,,,,,,,,,,,,,,,,,,,,,,,,,,,,,,,,78.0,78.0,57.0,133.0,133.0,57.0,4.0,4.2,-202,7,0,-262,191,-14,80.42285084724426,80.42289090156555,80.42496275901794,80.43714642524719,80.58701753616333,80.58701753616333,80.58701753616333,80.58701753616333,80.58701753616333,80.58701753616333,80.58701753616333,100.18789076805115,2,19.733541250228882,None,,,,,,,,,,,,,,,,,,8,3,2025-02-18_12h57.24.771,comp,2024.2.4,60.08497812515221,2025-02-18 13h00.39.552686 -0500,
6,6,0,critical,wdh,20.0,2.1,lower,57.0,133.0,78.0,78.0,133.0,57.0,1,2.886561870574951,None,,,,,0,0,0,0,0,6,6,10,100.2033212184906,,,,,,,,,,,,,,,,,,,,,,,,,,,,,,,,,,,,,,,,,,,,,,,,,,,,,,,,,,,,,,,,,,,,,,,,,,,,,,,,,57.0,133.0,78.0,78.0,133.0,57.0,2.1,2.12,-202,-268,0,-285,164,283,100.18867230415344,100.18871521949768,100.19099283218384,100.2033212184906,100.35346150398254,100.35346150398254,100.35346150398254,100.35346150398254,100.35346150398254,100.35346150398254,100.35346150398254,103.10448098182678,1,2.886561870574951,None,,,,,,,,,,,,,,,,,,8,3,2025-02-18_12h57.24.771,comp,2024.2.4,60.08497812515221,2025-02-18 13h00.39.552686 -0500,
7,7,0,filler_random,None,None,None,None,None,None,None,None,None,None,1,1.9946346282958984,None,,,,,0,0,0,0,0,7,7,132,103.1199643611908,,,,,,,,,,,,,,,,,,,,,,,,,,,,,,,,,,,,,,,,,,,,,,,,,,,,,,,,,,,,,,,,,,,,,,,,,,,,,,,,,152.9463334894723,169.40935708667286,183.4545711587176,101.15144235183047,108.89752853941755,84.86528302193625,2.2,2.21,-231,-280,0,254,189,267,103.10537624359131,103.10541582107544,103.10793781280518,103.1199643611908,103.2702751159668,103.2702751159668,103.2702751159668,103.2702751159668,103.2702751159668,103.2702751159668,103.2702751159668,105.12153053283691,1,1.9946346282958984,None,,,,,,,,,,,,,,,,,,8,3,2025-02-18_12h57.24.771,comp,2024.2.4,60.08497812515221,2025-02-18 13h00.39.552686 -0500,
8,8,0,critical,hdw,35.0,2.1,lower,133.0,57.0,70.0,70.0,57.0,133.0,1,3.1847805976867676,None,,,,,0,0,0,0,0,8,8,20,105.13697624206543,,,,,,,,,,,,,,,,,,,,,,,,,,,,,,,,,,,,,,,,,,,,,,,,,,,,,,,,,,,,,,,,,,,,,,,,,,,,,,,,,133.0,57.0,70.0,70.0,57.0,133.0,2.1,2.11,-160,274,0,269,198,-260,105.12234425544739,105.12238454818726,105.12481212615967,105.13697624206543,105.2867820262909,105.2867820262909,105.2867820262909,105.2867820262909,105.2867820262909,105.2867820262909,105.2867820262909,108.33781623840332,1,3.1847805976867676,None,,,,,,,,,,,,,,,,,,8,3,2025-02-18_12h57.24.771,comp,2024.2.4,60.08497812515221,2025-02-18 13h00.39.552686 -0500,
9,9,0,critical,dhw,35.0,4.0,lower,70.0,70.0,133.0,57.0,57.0,133.0,3,2.4415886402130127,None,,,,,0,0,0,0,0,9,9,52,108.35325598716736,,,,,,,,,,,,,,,,,,,,,,,,,,,,,,,,,,,,,,,,,,,,,,,,,,,,,,,,,,,,,,,,,,,,,,,,,,,,,,,,,70.0,70.0,133.0,57.0,57.0,133.0,4.0,4.2,-160,-19,0,-268,191,12,108.33858156204224,108.33862209320068,108.34086465835571,108.35325598716736,108.5034544467926,108.5034544467926,108.5034544467926,108.5034544467926,108.5034544467926,108.5034544467926,108.5034544467926,110.80441617965698,3,2.4415886402130127,None,,,,,,,,,,,,,,,,,,8,3,2025-02-18_12h57.24.771,comp,2024.2.4,60.08497812515221,2025-02-18 13h00.39.552686 -0500,
10,10,0,critical,whd,35.0,4.0,lower,57.0,133.0,133.0,57.0,70.0,70.0,1,2.318657636642456,None,,,,,0,0,0,0,0,10,10,88,110.82017183303833,,,,,,,,,,,,,,,,,,,,,,,,,,,,,,,,,,,,,,,,,,,,,,,,,,,,,,,,,,,,,,,,,,,,,,,,,,,,,,,,,57.0,133.0,133.0,57.0,70.0,70.0,4.0,4.1,-191,-286,0,13,160,-285,110.80526447296143,110.80530619621277,110.80770802497864,110.82017183303833,110.9700870513916,110.9700870513916,110.9700870513916,110.9700870513916,110.9700870513916,110.9700870513916,110.9700870513916,113.15484595298767,1,2.318657636642456,None,,,,,,,,,,,,,,,,,,8,3,2025-02-18_12h57.24.771,comp,2024.2.4,60.08497812515221,2025-02-18 13h00.39.552686 -0500,
11,11,0,filler_square,None,None,None,None,None,None,None,None,None,None,1,7.328532457351685,None,,,,,0,0,0,0,0,11,11,207,113.16980910301208,,,,,,,,,,,,,,,,,,,,,,,,,,,,,,,,,,,,,,,,,,,,,,,,,,,,,,,,,,,,,,,,,,,,,,,,,,,,,,,,,58.51744908030991,58.51744908030991,57.223208719833515,57.85155172375104,57.444436730797,57.958097914785235,2.2,2.21,-154,-274,0,275,154,289,113.1557948589325,113.15583443641663,113.15834307670593,113.16980910301208,113.32002353668213,113.32002353668213,113.32002353668213,113.32002353668213,113.32002353668213,113.32002353668213,113.32002353668213,120.50448846817017,1,7.328532457351685,None,,,,,,,,,,,,,,,,,,8,3,2025-02-18_12h57.24.771,comp,2024.2.4,60.08497812515221,2025-02-18 13h00.39.552686 -0500,
12,12,0,filler_square,None,None,None,None,None,None,None,None,None,None,2,1.3213436603546143,None,,,,,0,0,0,0,0,12,12,195,120.52006030082703,,,,,,,,,,,,,,,,,,,,,,,,,,,,,,,,,,,,,,,,,,,,,,,,,,,,,,,,,,,,,,,,,,,,,,,,,,,,,,,,,146.74864229511303,139.09301984176713,167.96726813628553,167.96726813628553,100.48458043045312,92.04278417314424,2.1,2.11,-250,260,0,260,226,-250,120.50545930862427,120.50550150871277,120.5080714225769,120.52006030082703,120.67046523094177,120.67046523094177,120.67046523094177,120.67046523094177,120.67046523094177,120.67046523094177,120.67046523094177,121.8545925617218,2,1.3213436603546143,None,,,,,,,,,,,,,,,,,,8,3,2025-02-18_12h57.24.771,comp,2024.2.4,60.08497812515221,2025-02-18 13h00.39.552686 -0500,
13,13,0,filler_random,None,None,None,None,None,None,None,None,None,None,1,1.2840397357940674,None,,,,,0,0,0,0,0,13,13,157,121.87029099464417,,,,,,,,,,,,,,,,,,,,,,,,,,,,,,,,,,,,,,,,,,,,,,,,,,,,,,,,,,,,,,,,,,,,,,,,,,,,,,,,,132.195547172589,142.79165714849907,143.14298582661502,74.86547178464433,176.6838741016779,100.03418788564943,2.2,2.21,-205,-251,0,259,183,288,121.8555064201355,121.8555474281311,121.85936260223389,121.87029099464417,122.02003455162048,122.02003455162048,122.02003455162048,122.02003455162048,122.02003455162048,122.02003455162048,122.02003455162048,123.17116165161133,1,1.2840397357940674,None,,,,,,,,,,,,,,,,,,8,3,2025-02-18_12h57.24.771,comp,2024.2.4,60.08497812515221,2025-02-18 13h00.39.552686 -0500,
14,14,0,critical,wdh,35.0,4.0,upper,125.0,200.0,127.0,127.0,200.0,125.0,1,1.3032495975494385,None,,,,,0,0,0,0,0,14,14,77,123.18654322624207,,,,,,,,,,,,,,,,,,,,,,,,,,,,,,,,,,,,,,,,,,,,,,,,,,,,,,,,,,,,,,,,,,,,,,,,,,,,,,,,,125.0,200.0,127.0,127.0,200.0,125.0,4.0,4.1,-260,-251,0,7,222,-259,123.17199563980103,123.17203760147095,123.17446255683899,123.18654322624207,123.33680891990662,123.33680891990662,123.33680891990662,123.33680891990662,123.33680891990662,123.33680891990662,123.33680891990662,124.50454306602478,1,1.3032495975494385,None,,,,,,,,,,,,,,,,,,8,3,2025-02-18_12h57.24.771,comp,2024.2.4,60.08497812515221,2025-02-18 13h00.39.552686 -0500,
15,15,0,critical,hwd,20.0,4.0,upper,200.0,125.0,125.0,200.0,141.0,141.0,2,1.889540672302246,None,,,,,0,0,0,0,0,15,15,107,124.51979184150696,,,,,,,,,,,,,,,,,,,,,,,,,,,,,,,,,,,,,,,,,,,,,,,,,,,,,,,,,,,,,,,,,,,,,,,,,,,,,,,,,200.0,125.0,125.0,200.0,141.0,141.0,4.0,4.2,-258,5,0,-283,266,5,124.50532698631287,124.50536680221558,124.5078673362732,124.51979184150696,124.6701431274414,124.6701431274414,124.6701431274414,124.6701431274414,124.6701431274414,124.6701431274414,124.6701431274414,126.42133092880249,2,1.889540672302246,None,,,,,,,,,,,,,,,,,,8,3,2025-02-18_12h57.24.771,comp,2024.2.4,60.08497812515221,2025-02-18 13h00.39.552686 -0500,
16,16,0,filler_random,None,None,None,None,None,None,None,None,None,None,2,1.7888243198394775,None,,,,,0,0,0,0,0,16,16,156,126.43643879890442,,,,,,,,,,,,,,,,,,,,,,,,,,,,,,,,,,,,,,,,,,,,,,,,,,,,,,,,,,,,,,,,,,,,,,,,,,,,,,,,,113.00750457617754,67.11626304796087,102.97839638308696,78.72590749914198,61.82249111566287,85.07751189490448,3.0,3.2,-169,-270,0,1,178,284,126.42226076126099,126.42230153083801,126.42471575737,126.43643879890442,126.58653235435486,126.58653235435486,126.58653235435486,126.58653235435486,126.58653235435486,126.58653235435486,126.58653235435486,128.23771357536316,2,1.7888243198394775,None,,,,,,,,,,,,,,,,,,8,3,2025-02-18_12h57.24.771,comp,2024.2.4,60.08497812515221,2025-02-18 13h00.39.552686 -0500,
17,17,0,critical,dhw,35.0,3.0,lower,70.0,70.0,133.0,57.0,57.0,133.0,3,2.7882702350616455,None,,,,,0,0,0,0,0,17,17,50,128.2531657218933,,,,,,,,,,,,,,,,,,,,,,,,,,,,,,,,,,,,,,,,,,,,,,,,,,,,,,,,,,,,,,,,,,,,,,,,,,,,,,,,,70.0,70.0,133.0,57.0,57.0,133.0,3.0,3.2,-160,-261,0,-13,191,266,128.23852443695068,128.23856329917908,128.2410500049591,128.2531657218933,128.40345692634583,128.40345692634583,128.40345692634583,128.40345692634583,128.40345692634583,128.40345692634583,128.40345692634583,131.0544502735138,3,2.7882702350616455,None,,,,,,,,,,,,,,,,,,8,3,2025-02-18_12h57.24.771,comp,2024.2.4,60.08497812515221,2025-02-18 13h00.39.552686 -0500,
18,18,0,filler_square,None,None,None,None,None,None,None,None,None,None,1,1.5662639141082764,None,,,,,0,0,0,0,0,18,18,175,131.06980895996094,,,,,,,,,,,,,,,,,,,,,,,,,,,,,,,,,,,,,,,,,,,,,,,,,,,,,,,,,,,,,,,,,,,,,,,,,,,,,,,,,176.32574259263592,176.32574259263592,114.08705560963234,125.47507651850101,96.44339818280187,165.99513196853135,3.0,3.1,-247,254,0,8,242,-279,131.05540919303894,131.05544924736023,131.05793356895447,131.06980895996094,131.2203757762909,131.2203757762909,131.2203757762909,131.2203757762909,131.2203757762909,131.2203757762909,131.2203757762909,132.63824248313904,1,1.5662639141082764,None,,,,,,,,,,,,,,,,,,8,3,2025-02-18_12h57.24.771,comp,2024.2.4,60.08497812515221,2025-02-18 13h00.39.552686 -0500,
19,19,0,critical,dhw,35.0,2.1,upper,127.0,127.0,200.0,125.0,125.0,200.0,3,2.108839273452759,None,,,,,0,0,0,0,0,19,19,25,132.65355396270752,,,,,,,,,,,,,,,,,,,,,,,,,,,,,,,,,,,,,,,,,,,,,,,,,,,,,,,,,,,,,,,,,,,,,,,,,,,,,,,,,127.0,127.0,200.0,125.0,125.0,200.0,2.1,2.12,-222,-263,0,-260,258,281,132.6390278339386,132.6390688419342,132.64111280441284,132.65355396270752,132.80346298217773,132.80346298217773,132.80346298217773,132.80346298217773,132.80346298217773,132.80346298217773,132.80346298217773,134.77127075195312,3,2.108839273452759,None,,,,,,,,,,,,,,,,,,8,3,2025-02-18_12h57.24.771,comp,2024.2.4,60.08497812515221,2025-02-18 13h00.39.552686 -0500,
20,20,0,filler_random,None,None,None,None,None,None,None,None,None,None,3,2.416759490966797,None,,,,,0,0,0,0,0,20,20,134,134.78664588928223,,,,,,,,,,,,,,,,,,,,,,,,,,,,,,,,,,,,,,,,,,,,,,,,,,,,,,,,,,,,,,,,,,,,,,,,,,,,,,,,,69.9392815072562,182.39933133872432,135.21580299281374,81.10276178705001,127.96950706362658,104.53655606192766,2.2,2.22,-228,268,0,-271,189,-278,134.77215313911438,134.77219223976135,134.77426981925964,134.78664588928223,134.93659472465515,134.93659472465515,134.93659472465515,134.93659472465515,134.93659472465515,134.93659472465515,134.93659472465515,137.2046775817871,3,2.416759490966797,None,,,,,,,,,,,,,,,,,,8,3,2025-02-18_12h57.24.771,comp,2024.2.4,60.08497812515221,2025-02-18 13h00.39.552686 -0500,
21,21,0,critical,dhw,35.0,2.1,lower,70.0,70.0,133.0,57.0,57.0,133.0,3,2.0535385608673096,None,,,,,0,0,0,0,0,21,21,0,137.2199056148529,,,,,,,,,,,,,,,,,,,,,,,,,,,,,,,,,,,,,,,,,,,,,,,,,,,,,,,,,,,,,,,,,,,,,,,,,,,,,,,,,70.0,70.0,133.0,57.0,57.0,133.0,2.1,2.12,-160,-260,0,-278,191,257,137.20547771453857,137.20551824569702,137.2079792022705,137.2199056148529,137.36979031562805,137.36979031562805,137.36979031562805,137.36979031562805,137.36979031562805,137.36979031562805,137.36979031562805,139.28761625289917,3,2.0535385608673096,None,,,,,,,,,,,,,,,,,,8,3,2025-02-18_12h57.24.771,comp,2024.2.4,60.08497812515221,2025-02-18 13h00.39.552686 -0500,
22,22,0,critical,dwh,35.0,2.1,lower,70.0,70.0,57.0,133.0,133.0,57.0,2,1.7548182010650635,None,,,,,0,0,0,0,0,22,22,4,139.3030240535736,,,,,,,,,,,,,,,,,,,,,,,,,,,,,,,,,,,,,,,,,,,,,,,,,,,,,,,,,,,,,,,,,,,,,,,,,,,,,,,,,70.0,70.0,57.0,133.0,133.0,57.0,2.1,2.11,-198,272,0,259,191,-268,139.2884383201599,139.28847813606262,139.2910339832306,139.3030240535736,139.4531445503235,139.4531445503235,139.4531445503235,139.4531445503235,139.4531445503235,139.4531445503235,139.4531445503235,141.07088088989258,2,1.7548182010650635,None,,,,,,,,,,,,,,,,,,8,3,2025-02-18_12h57.24.771,comp,2024.2.4,60.08497812515221,2025-02-18 13h00.39.552686 -0500,
23,23,0,critical,hdw,35.0,1.0,lower,133.0,57.0,70.0,70.0,57.0,133.0,3,1.9003522396087646,None,,,,,0,0,0,0,0,23,23,108,141.0862967967987,,,,,,,,,,,,,,,,,,,,,,,,,,,,,,,,,,,,,,,,,,,,,,,,,,,,,,,,,,,,,,,,,,,,,,,,,,,,,,,,,133.0,57.0,70.0,70.0,57.0,133.0,1.0,1.3,320,-253,480,-259,678,-277,141.07166123390198,141.0716996192932,141.07394170761108,141.0862967967987,141.2364227771759,141.2364227771759,141.2364227771759,141.2364227771759,141.2364227771759,141.2364227771759,141.2364227771759,142.98790431022644,3,1.9003522396087646,None,,,,,,,,,,,,,,,,,,8,3,2025-02-18_12h57.24.771,comp,2024.2.4,60.08497812515221,2025-02-18 13h00.39.552686 -0500,
24,24,0,critical,dwh,35.0,1.0,lower,70.0,70.0,57.0,133.0,133.0,57.0,3,2.4165022373199463,None,,,,,0,0,0,0,0,24,24,60,143.00325226783752,,,,,,,,,,,,,,,,,,,,,,,,,,,,,,,,,,,,,,,,,,,,,,,,,,,,,,,,,,,,,,,,,,,,,,,,,,,,,,,,,70.0,70.0,57.0,133.0,133.0,57.0,1.0,1.1,-678,260,-480,250,-289,259,142.9887113571167,142.98877143859863,142.99108624458313,143.00325226783752,143.15320801734924,143.15320801734924,143.15320801734924,143.15320801734924,143.15320801734924,143.15320801734924,143.15320801734924,145.42105913162231,3,2.4165022373199463,None,,,,,,,,,,,,,,,,,,8,3,2025-02-18_12h57.24.771,comp,2024.2.4,60.08497812515221,2025-02-18 13h00.39.552686 -0500,
25,25,0,filler_random,None,None,None,None,None,None,None,None,None,None,3,2.3015785217285156,None,,,,,0,0,0,0,0,25,25,150,145.4365153312683,,,,,,,,,,,,,,,,,,,,,,,,,,,,,,,,,,,,,,,,,,,,,,,,,,,,,,,,,,,,,,,,,,,,,,,,,,,,,,,,,71.60294884762101,173.48928916875158,84.64388947930746,108.418478282514,117.619737081153,191.711510735683,3.0,3.1,-237,288,0,9,246,-268,145.42195963859558,145.42200016975403,145.424058675766,145.4365153312683,145.58643794059753,145.58643794059753,145.58643794059753,145.58643794059753,145.58643794059753,145.58643794059753,145.58643794059753,147.754292011261,3,2.3015785217285156,None,,,,,,,,,,,,,,,,,,8,3,2025-02-18_12h57.24.771,comp,2024.2.4,60.08497812515221,2025-02-18 13h00.39.552686 -0500,
26,26,0,filler_random,None,None,None,None,None,None,None,None,None,None,3,3.167585611343384,None,,,,,0,0,0,0,0,26,26,140,147.76958680152893,,,,,,,,,,,,,,,,,,,,,,,,,,,,,,,,,,,,,,,,,,,,,,,,,,,,,,,,,,,,,,,,,,,,,,,,,,,,,,,,,64.53515484053743,97.27637653002691,159.83131521583545,168.37396628879716,139.16945986189603,185.43119164472645,3.0,3.1,-229,266,0,10,273,-256,147.75519490242004,147.75523495674133,147.75764751434326,147.76958680152893,147.91990089416504,147.91990089416504,147.91990089416504,147.91990089416504,147.91990089416504,147.91990089416504,147.91990089416504,150.95431685447693,3,3.167585611343384,None,,,,,,,,,,,,,,,,,,8,3,2025-02-18_12h57.24.771,comp,2024.2.4,60.08497812515221,2025-02-18 13h00.39.552686 -0500,
27,27,0,filler_square,None,None,None,None,None,None,None,None,None,None,2,2.239450693130493,None,,,,,0,0,0,0,0,27,27,182,150.9696011543274,,,,,,,,,,,,,,,,,,,,,,,,,,,,,,,,,,,,,,,,,,,,,,,,,,,,,,,,,,,,,,,,,,,,,,,,,,,,,,,,,65.88254976722088,65.88254976722088,63.390978122992195,57.126606796940216,57.04842696098859,65.29236738775109,2.2,2.22,-158,256,0,-280,157,-277,150.95532393455505,150.95536637306213,150.9578161239624,150.9696011543274,151.11970210075378,151.11970210075378,151.11970210075378,151.11970210075378,151.11970210075378,151.11970210075378,151.11970210075378,153.22144961357117,2,2.239450693130493,None,,,,,,,,,,,,,,,,,,8,3,2025-02-18_12h57.24.771,comp,2024.2.4,60.08497812515221,2025-02-18 13h00.39.552686 -0500,
28,28,0,catch,None,None,None,None,None,None,None,None,None,None,2,1.1832613945007324,None,,,,,0,0,0,0,0,28,28,125,153.23635411262512,,,,,,,,,,,,,,,,,,,,,,,,,,,,,,,,,,,,,,,,,,,,,,,,,,,,,,,,,,,,,,,,,,,,,,,,,,,,,,,,,66,124,139,186,63,127,2.1,2.12,-251,-255,0,-284,252,260,153.2225046157837,153.22254586219788,153.2249836921692,153.23635411262512,153.38673901557922,153.38673901557922,153.38673901557922,153.38673901557922,153.38673901557922,153.38673901557922,153.38673901557922,154.4210832118988,2,1.1832613945007324,None,,,,,,,,,,,,,,,,,,8,3,2025-02-18_12h57.24.771,comp,2024.2.4,60.08497812515221,2025-02-18 13h00.39.552686 -0500,
29,29,0,critical,dwh,20.0,2.1,upper,141.0,141.0,125.0,200.0,200.0,125.0,2,4.533679723739624,None,,,,,0,0,0,0,0,29,29,31,154.43638443946838,,,,,,,,,,,,,,,,,,,,,,,,,,,,,,,,,,,,,,,,,,,,,,,,,,,,,,,,,,,,,,,,,,,,,,,,,,,,,,,,,141.0,141.0,125.0,200.0,200.0,125.0,2.1,2.11,-266,253,0,259,258,-256,154.4218771457672,154.4219172000885,154.4239799976349,154.43638443946838,154.58649253845215,154.58649253845215,154.58649253845215,154.58649253845215,154.58649253845215,154.58649253845215,154.58649253845215,158.9876139163971,2,4.533679723739624,None,,,,,,,,,,,,,,,,,,8,3,2025-02-18_12h57.24.771,comp,2024.2.4,60.08497812515221,2025-02-18 13h00.39.552686 -0500,
30,30,0,critical,whd,20.0,2.1,upper,125.0,200.0,200.0,125.0,141.0,141.0,1,3.3024561405181885,None,,,,,0,0,0,0,0,30,30,39,159.00281882286072,,,,,,,,,,,,,,,,,,,,,,,,,,,,,,,,,,,,,,,,,,,,,,,,,,,,,,,,,,,,,,,,,,,,,,,,,,,,,,,,,125.0,200.0,200.0,125.0,141.0,141.0,2.1,2.12,-258,-281,0,-285,229,269,158.9884295463562,158.98846983909607,158.99100422859192,159.00281882286072,159.15349626541138,159.15349626541138,159.15349626541138,159.15349626541138,159.15349626541138,159.15349626541138,159.15349626541138,162.32100343704224,1,3.3024561405181885,None,,,,,,,,,,,,,,,,,,8,3,2025-02-18_12h57.24.771,comp,2024.2.4,60.08497812515221,2025-02-18 13h00.39.552686 -0500,
31,31,0,catch,None,None,None,None,None,None,None,None,None,None,2,1.0504348278045654,None,,,,,0,0,0,0,0,31,31,121,162.3361554145813,,,,,,,,,,,,,,,,,,,,,,,,,,,,,,,,,,,,,,,,,,,,,,,,,,,,,,,,,,,,,,,,,,,,,,,,,,,,,,,,,80,110,155,170,95,95,2.1,2.11,-236,274,0,261,228,-288,162.32204055786133,162.32207918167114,162.32407140731812,162.3361554145813,162.48629784584045,162.48629784584045,162.48629784584045,162.48629784584045,162.48629784584045,162.48629784584045,162.48629784584045,163.40427541732788,2,1.0504348278045654,None,,,,,,,,,,,,,,,,,,8,3,2025-02-18_12h57.24.771,comp,2024.2.4,60.08497812515221,2025-02-18 13h00.39.552686 -0500,
32,32,0,critical,wdh,35.0,2.1,upper,125.0,200.0,127.0,127.0,200.0,125.0,3,1.4380342960357666,None,,,,,0,0,0,0,0,32,32,33,163.41953587532043,,,,,,,,,,,,,,,,,,,,,,,,,,,,,,,,,,,,,,,,,,,,,,,,,,,,,,,,,,,,,,,,,,,,,,,,,,,,,,,,,125.0,200.0,127.0,127.0,200.0,125.0,2.1,2.12,-260,-265,0,-278,222,272,163.4050784111023,163.40511918067932,163.40754628181458,163.41953587532043,163.570068359375,163.570068359375,163.570068359375,163.570068359375,163.570068359375,163.570068359375,163.570068359375,164.87081098556519,3,1.4380342960357666,None,,,,,,,,,,,,,,,,,,8,3,2025-02-18_12h57.24.771,comp,2024.2.4,60.08497812515221,2025-02-18 13h00.39.552686 -0500,
33,33,0,critical,dhw,20.0,4.0,upper,141.0,141.0,200.0,125.0,125.0,200.0,2,0.9550247192382812,None,,,,,0,0,0,0,0,33,33,59,164.88606572151184,,,,,,,,,,,,,,,,,,,,,,,,,,,,,,,,,,,,,,,,,,,,,,,,,,,,,,,,,,,,,,,,,,,,,,,,,,,,,,,,,141.0,141.0,200.0,125.0,125.0,200.0,4.0,4.1,-229,-275,0,17,258,-254,164.87159895896912,164.87163949012756,164.87368321418762,164.88606572151184,165.03646683692932,165.03646683692932,165.03646683692932,165.03646683692932,165.03646683692932,165.03646683692932,165.03646683692932,165.85440516471863,2,0.9550247192382812,None,,,,,,,,,,,,,,,,,,8,3,2025-02-18_12h57.24.771,comp,2024.2.4,60.08497812515221,2025-02-18 13h00.39.552686 -0500,
34,34,0,critical,hdw,20.0,3.0,upper,200.0,125.0,141.0,141.0,125.0,200.0,1,1.0283408164978027,None,,,,,0,0,0,0,0,34,34,117,165.8694953918457,,,,,,,,,,,,,,,,,,,,,,,,,,,,,,,,,,,,,,,,,,,,,,,,,,,,,,,,,,,,,,,,,,,,,,,,,,,,,,,,,200.0,125.0,141.0,141.0,125.0,200.0,3.0,3.1,-229,251,0,19,266,-287,165.85521006584167,165.85524940490723,165.85766291618347,165.8694953918457,166.01974606513977,166.01974606513977,166.01974606513977,166.01974606513977,166.01974606513977,166.01974606513977,166.01974606513977,166.90433502197266,1,1.0283408164978027,None,,,,,,,,,,,,,,,,,,8,3,2025-02-18_12h57.24.771,comp,2024.2.4,60.08497812515221,2025-02-18 13h00.39.552686 -0500,
35,35,0,filler_square,None,None,None,None,None,None,None,None,None,None,3,1.3782610893249512,None,,,,,0,0,0,0,0,35,35,172,166.91960501670837,,,,,,,,,,,,,,,,,,,,,,,,,,,,,,,,,,,,,,,,,,,,,,,,,,,,,,,,,,,,,,,,,,,,,,,,,,,,,,,,,70.57914650120175,130.8231736180903,87.34046165176089,103.90591970775151,159.7100023889583,159.7100023889583,2.2,2.21,-213,-289,0,260,228,284,166.90530967712402,166.90535306930542,166.90798330307007,166.91960501670837,167.06971287727356,167.06971287727356,167.06971287727356,167.06971287727356,167.06971287727356,167.06971287727356,167.06971287727356,168.3040738105774,3,1.3782610893249512,None,,,,,,,,,,,,,,,,,,8,3,2025-02-18_12h57.24.771,comp,2024.2.4,60.08497812515221,2025-02-18 13h00.39.552686 -0500,
36,36,0,filler_random,None,None,None,None,None,None,None,None,None,None,1,1.5697953701019287,None,,,,,0,0,0,0,0,36,36,161,168.31958198547363,,,,,,,,,,,,,,,,,,,,,,,,,,,,,,,,,,,,,,,,,,,,,,,,,,,,,,,,,,,,,,,,,,,,,,,,,,,,,,,,,78.74943138817642,158.26004637132215,157.96184073573636,68.20278768413499,195.29873944734814,98.67490227355108,2.1,2.11,-209,256,0,271,179,-272,168.30496287345886,168.30500555038452,168.3074517250061,168.31958198547363,168.46958565711975,168.46958565711975,168.46958565711975,168.46958565711975,168.46958565711975,168.46958565711975,168.46958565711975,169.90425324440002,1,1.5697953701019287,None,,,,,,,,,,,,,,,,,,8,3,2025-02-18_12h57.24.771,comp,2024.2.4,60.08497812515221,2025-02-18 13h00.39.552686 -0500,
37,37,0,filler_random,None,None,None,None,None,None,None,None,None,None,2,2.100160598754883,None,,,,,0,0,0,0,0,37,37,143,169.91941785812378,,,,,,,,,,,,,,,,,,,,,,,,,,,,,,,,,,,,,,,,,,,,,,,,,,,,,,,,,,,,,,,,,,,,,,,,,,,,,,,,,157.46360298653227,115.40271005116605,130.31991601810137,192.32773380470962,95.01999887883287,176.99027885839925,1.0,1.2,-250,18,0,-7,281,-17,169.90516448020935,169.90520429611206,169.90754175186157,169.91941785812378,170.07008242607117,170.07008242607117,170.07008242607117,170.07008242607117,170.07008242607117,170.07008242607117,170.07008242607117,172.0210783481598,2,2.100160598754883,None,,,,,,,,,,,,,,,,,,8,3,2025-02-18_12h57.24.771,comp,2024.2.4,60.08497812515221,2025-02-18 13h00.39.552686 -0500,
38,38,0,critical,whd,35.0,1.0,upper,125.0,200.0,200.0,125.0,127.0,127.0,2,1.1578922271728516,None,,,,,0,0,0,0,0,38,38,85,172.03640818595886,,,,,,,,,,,,,,,,,,,,,,,,,,,,,,,,,,,,,,,,,,,,,,,,,,,,,,,,,,,,,,,,,,,,,,,,,,,,,,,,,125.0,200.0,200.0,125.0,127.0,127.0,1.0,1.3,222,-275,480,-261,702,-270,172.0218904018402,172.02193188667297,172.0240650177002,172.03640818595886,172.18627071380615,172.18627071380615,172.18627071380615,172.18627071380615,172.18627071380615,172.18627071380615,172.18627071380615,173.2041139602661,2,1.1578922271728516,None,,,,,,,,,,,,,,,,,,8,3,2025-02-18_12h57.24.771,comp,2024.2.4,60.08497812515221,2025-02-18 13h00.39.552686 -0500,
39,39,0,filler_random,None,None,None,None,None,None,None,None,None,None,3,1.326362133026123,None,,,,,0,0,0,0,0,39,39,152,173.21960401535034,,,,,,,,,,,,,,,,,,,,,,,,,,,,,,,,,,,,,,,,,,,,,,,,,,,,,,,,,,,,,,,,,,,,,,,,,,,,,,,,,61.67940006370753,176.19369328941502,184.0690433027899,73.22434030590543,152.28843630865947,165.86945735293767,4.0,4.1,-221,-283,0,20,216,-255,173.20504426956177,173.20508432388306,173.20714497566223,173.21960401535034,173.36951160430908,173.36951160430908,173.36951160430908,173.36951160430908,173.36951160430908,173.36951160430908,173.36951160430908,174.55408096313477,3,1.326362133026123,None,,,,,,,,,,,,,,,,,,8,3,2025-02-18_12h57.24.771,comp,2024.2.4,60.08497812515221,2025-02-18 13h00.39.552686 -0500,
40,40,0,catch,None,None,None,None,None,None,None,None,None,None,2,1.112264633178711,None,,,,,0,0,0,0,0,40,40,123,174.5695562362671,,,,,,,,,,,,,,,,,,,,,,,,,,,,,,,,,,,,,,,,,,,,,,,,,,,,,,,,,,,,,,,,,,,,,,,,,,,,,,,,,112,78,164,161,105,85,4.0,4.2,-216,0,0,-251,219,10,174.55525636672974,174.55530071258545,174.55789995193481,174.5695562362671,174.71962571144104,174.71962571144104,174.71962571144104,174.71962571144104,174.71962571144104,174.71962571144104,174.71962571144104,175.6873960494995,2,1.112264633178711,None,,,,,,,,,,,,,,,,,,8,3,2025-02-18_12h57.24.771,comp,2024.2.4,60.08497812515221,2025-02-18 13h00.39.552686 -0500,
41,41,0,filler_random,None,None,None,None,None,None,None,None,None,None,1,1.0030148029327393,None,,,,,0,0,0,0,0,41,41,153,175.70289397239685,,,,,,,,,,,,,,,,,,,,,,,,,,,,,,,,,,,,,,,,,,,,,,,,,,,,,,,,,,,,,,,,,,,,,,,,,,,,,,,,,183.6871048196549,134.90973768090652,98.71229613306818,143.16060951754378,57.85177805983986,163.409537514099,4.0,4.2,-235,20,0,-288,249,14,175.688316822052,175.68835759162903,175.69098806381226,175.70289397239685,175.85293579101562,175.85293579101562,175.85293579101562,175.85293579101562,175.85293579101562,175.85293579101562,175.85293579101562,176.71255683898926,1,1.0030148029327393,None,,,,,,,,,,,,,,,,,,8,3,2025-02-18_12h57.24.771,comp,2024.2.4,60.08497812515221,2025-02-18 13h00.39.552686 -0500,
42,42,0,critical,wdh,20.0,4.0,lower,57.0,133.0,78.0,78.0,133.0,57.0,3,3.1142985820770264,None,,,,,0,0,0,0,0,42,42,82,176.72654557228088,,,,,,,,,,,,,,,,,,,,,,,,,,,,,,,,,,,,,,,,,,,,,,,,,,,,,,,,,,,,,,,,,,,,,,,,,,,,,,,,,57.0,133.0,78.0,78.0,133.0,57.0,4.0,4.1,-202,-276,0,-5,164,-255,176.71331405639648,176.71335124969482,176.71507596969604,176.72654557228088,176.87007975578308,176.87007975578308,176.87007975578308,176.87007975578308,176.87007975578308,176.87007975578308,176.87007975578308,179.85391354560852,3,3.1142985820770264,None,,,,,,,,,,,,,,,,,,8,3,2025-02-18_12h57.24.771,comp,2024.2.4,60.08497812515221,2025-02-18 13h00.39.552686 -0500,
43,43,0,critical,whd,35.0,3.0,upper,125.0,200.0,200.0,125.0,127.0,127.0,1,1.4605615139007568,None,,,,,0,0,0,0,0,43,43,87,179.86925745010376,,,,,,,,,,,,,,,,,,,,,,,,,,,,,,,,,,,,,,,,,,,,,,,,,,,,,,,,,,,,,,,,,,,,,,,,,,,,,,,,,125.0,200.0,200.0,125.0,127.0,127.0,3.0,3.1,-258,276,0,6,222,-262,179.85469341278076,179.8547341823578,179.85709476470947,179.86925745010376,180.0197126865387,180.0197126865387,180.0197126865387,180.0197126865387,180.0197126865387,180.0197126865387,180.0197126865387,181.3373682498932,1,1.4605615139007568,None,,,,,,,,,,,,,,,,,,8,3,2025-02-18_12h57.24.771,comp,2024.2.4,60.08497812515221,2025-02-18 13h00.39.552686 -0500,
44,44,0,critical,hdw,20.0,2.1,lower,133.0,57.0,78.0,78.0,57.0,133.0,1,2.0719006061553955,None,,,,,0,0,0,0,0,44,44,22,181.35289669036865,,,,,,,,,,,,,,,,,,,,,,,,,,,,,,,,,,,,,,,,,,,,,,,,,,,,,,,,,,,,,,,,,,,,,,,,,,,,,,,,,133.0,57.0,78.0,78.0,57.0,133.0,2.1,2.11,-164,264,0,264,202,-280,181.33817839622498,181.33822107315063,181.3406572341919,181.35289669036865,181.50288939476013,181.50288939476013,181.50288939476013,181.50288939476013,181.50288939476013,181.50288939476013,181.50288939476013,183.43728590011597,1,2.0719006061553955,None,,,,,,,,,,,,,,,,,,8,3,2025-02-18_12h57.24.771,comp,2024.2.4,60.08497812515221,2025-02-18 13h00.39.552686 -0500,
45,45,0,catch,None,None,None,None,None,None,None,None,None,None,2,1.085526466369629,None,,,,,0,0,0,0,0,45,45,127,183.45265865325928,,,,,,,,,,,,,,,,,,,,,,,,,,,,,,,,,,,,,,,,,,,,,,,,,,,,,,,,,,,,,,,,,,,,,,,,,,,,,,,,,122,68,172,153,129,61,3.0,3.2,-206,-263,0,-6,203,253,183.43834495544434,183.43838620185852,183.44098019599915,183.45265865325928,183.60296607017517,183.60296607017517,183.60296607017517,183.60296607017517,183.60296607017517,183.60296607017517,183.60296607017517,184.55401635169983,2,1.085526466369629,None,,,,,,,,,,,,,,,,,,8,3,2025-02-18_12h57.24.771,comp,2024.2.4,60.08497812515221,2025-02-18 13h00.39.552686 -0500,
46,46,0,filler_random,None,None,None,None,None,None,None,None,None,None,3,1.3675577640533447,None,,,,,0,0,0,0,0,46,46,131,184.5692994594574,,,,,,,,,,,,,,,,,,,,,,,,,,,,,,,,,,,,,,,,,,,,,,,,,,,,,,,,,,,,,,,,,,,,,,,,,,,,,,,,,117.35678227816967,117.70034085326104,108.70013368586206,114.44389720721216,133.76674046043115,179.77901413507112,3.0,3.1,-212,262,0,-9,243,-264,184.55491948127747,184.55495977401733,184.55730557441711,184.5692994594574,184.71983981132507,184.71983981132507,184.71983981132507,184.71983981132507,184.71983981132507,184.71983981132507,184.71983981132507,185.95434713363647,3,1.3675577640533447,None,,,,,,,,,,,,,,,,,,8,3,2025-02-18_12h57.24.771,comp,2024.2.4,60.08497812515221,2025-02-18 13h00.39.552686 -0500,
47,47,0,critical,whd,35.0,3.0,lower,57.0,133.0,133.0,57.0,70.0,70.0,2,2.01751446723938,None,,,,,0,0,0,0,0,47,47,86,185.96937251091003,,,,,,,,,,,,,,,,,,,,,,,,,,,,,,,,,,,,,,,,,,,,,,,,,,,,,,,,,,,,,,,,,,,,,,,,,,,,,,,,,57.0,133.0,133.0,57.0,70.0,70.0,3.0,3.1,-191,260,0,13,160,-283,185.95514392852783,185.95518398284912,185.95754480361938,185.96937251091003,186.11931037902832,186.11931037902832,186.11931037902832,186.11931037902832,186.11931037902832,186.11931037902832,186.11931037902832,188.00383639335632,2,2.01751446723938,None,,,,,,,,,,,,,,,,,,8,3,2025-02-18_12h57.24.771,comp,2024.2.4,60.08497812515221,2025-02-18 13h00.39.552686 -0500,
48,48,0,critical,hdw,35.0,3.0,upper,200.0,125.0,127.0,127.0,125.0,200.0,3,2.1425819396972656,None,,,,,0,0,0,0,0,48,48,111,188.01923084259033,,,,,,,,,,,,,,,,,,,,,,,,,,,,,,,,,,,,,,,,,,,,,,,,,,,,,,,,,,,,,,,,,,,,,,,,,,,,,,,,,200.0,125.0,127.0,127.0,125.0,200.0,3.0,3.2,-222,-253,0,-8,260,251,188.00459575653076,188.00463604927063,188.00683403015137,188.01923084259033,188.16969275474548,188.16969275474548,188.16969275474548,188.16969275474548,188.16969275474548,188.16969275474548,188.16969275474548,190.17060160636902,3,2.1425819396972656,None,,,,,,,,,,,,,,,,,,8,3,2025-02-18_12h57.24.771,comp,2024.2.4,60.08497812515221,2025-02-18 13h00.39.552686 -0500,
49,49,0,critical,dhw,20.0,3.0,lower,78.0,78.0,133.0,57.0,57.0,133.0,2,1.9756591320037842,None,,,,,0,0,0,0,0,49,49,56,190.1861674785614,,,,,,,,,,,,,,,,,,,,,,,,,,,,,,,,,,,,,,,,,,,,,,,,,,,,,,,,,,,,,,,,,,,,,,,,,,,,,,,,,78.0,78.0,133.0,57.0,57.0,133.0,3.0,3.1,-164,262,0,11,191,-265,190.17137598991394,190.1714165210724,190.17386388778687,190.1861674785614,190.33590698242188,190.33590698242188,190.33590698242188,190.33590698242188,190.33590698242188,190.33590698242188,190.33590698242188,192.1706838607788,2,1.9756591320037842,None,,,,,,,,,,,,,,,,,,8,3,2025-02-18_12h57.24.771,comp,2024.2.4,60.08497812515221,2025-02-18 13h00.39.552686 -0500,
50,50,0,filler_square,None,None,None,None,None,None,None,None,None,None,1,1.0226211547851562,None,,,,,0,0,0,0,0,50,50,171,192.18618154525757,,,,,,,,,,,,,,,,,,,,,,,,,,,,,,,,,,,,,,,,,,,,,,,,,,,,,,,,,,,,,,,,,,,,,,,,,,,,,,,,,141.47443220612269,141.47443220612269,89.47911393665882,104.44253864452088,117.78770293125487,58.84299440265886,3.0,3.1,-219,261,0,10,178,-265,192.17163753509521,192.17167735099792,192.1742172241211,192.18618154525757,192.33609819412231,192.33609819412231,192.33609819412231,192.33609819412231,192.33609819412231,192.33609819412231,192.33609819412231,193.22067523002625,1,1.0226211547851562,None,,,,,,,,,,,,,,,,,,8,3,2025-02-18_12h57.24.771,comp,2024.2.4,60.08497812515221,2025-02-18 13h00.39.552686 -0500,
51,51,0,filler_random,None,None,None,None,None,None,None,None,None,None,1,1.0309662818908691,None,,,,,0,0,0,0,0,51,51,148,193.23580503463745,,,,,,,,,,,,,,,,,,,,,,,,,,,,,,,,,,,,,,,,,,,,,,,,,,,,,,,,,,,,,,,,,,,,,,,,,,,,,,,,,152.156360562805,179.52728918759595,163.5489960137715,84.96621310866371,112.3614818432539,70.99085927314378,2.2,2.21,-228,-258,0,283,174,259,193.22162127494812,193.22166228294373,193.22379350662231,193.23580503463745,193.38621830940247,193.38621830940247,193.38621830940247,193.38621830940247,193.38621830940247,193.38621830940247,193.38621830940247,194.27124738693237,1,1.0309662818908691,None,,,,,,,,,,,,,,,,,,8,3,2025-02-18_12h57.24.771,comp,2024.2.4,60.08497812515221,2025-02-18 13h00.39.552686 -0500,
52,52,0,filler_square,None,None,None,None,None,None,None,None,None,None,3,2.434720993041992,None,,,,,0,0,0,0,0,52,52,203,194.28608298301697,,,,,,,,,,,,,,,,,,,,,,,,,,,,,,,,,,,,,,,,,,,,,,,,,,,,,,,,,,,,,,,,,,,,,,,,,,,,,,,,,78.51574180586483,81.39453556552328,90.06102102172153,85.84735543613574,103.68256290345329,103.68256290345329,2.2,2.21,-180,-264,0,262,191,285,194.27221655845642,194.2722578048706,194.2743582725525,194.28608298301697,194.4359233379364,194.4359233379364,194.4359233379364,194.4359233379364,194.4359233379364,194.4359233379364,194.4359233379364,196.7370765209198,3,2.434720993041992,None,,,,,,,,,,,,,,,,,,8,3,2025-02-18_12h57.24.771,comp,2024.2.4,60.08497812515221,2025-02-18 13h00.39.552686 -0500,
53,53,0,filler_square,None,None,None,None,None,None,None,None,None,None,3,1.025437593460083,None,,,,,0,0,0,0,0,53,53,198,196.7524859905243,,,,,,,,,,,,,,,,,,,,,,,,,,,,,,,,,,,,,,,,,,,,,,,,,,,,,,,,,,,,,,,,,,,,,,,,,,,,,,,,,70.75529200845284,101.12876990693829,83.41727977112467,68.23868137995737,112.61401692617706,112.61401692617706,4.0,4.1,-181,-274,0,15,186,-259,196.738050699234,196.73809003829956,196.7404761314392,196.7524859905243,196.90267848968506,196.90267848968506,196.90267848968506,196.90267848968506,196.90267848968506,196.90267848968506,196.90267848968506,197.78713846206665,3,1.025437593460083,None,,,,,,,,,,,,,,,,,,8,3,2025-02-18_12h57.24.771,comp,2024.2.4,60.08497812515221,2025-02-18 13h00.39.552686 -0500,
54,54,0,critical,dhw,20.0,2.1,lower,78.0,78.0,133.0,57.0,57.0,133.0,3,1.6379787921905518,None,,,,,0,0,0,0,0,54,54,26,197.80265498161316,,,,,,,,,,,,,,,,,,,,,,,,,,,,,,,,,,,,,,,,,,,,,,,,,,,,,,,,,,,,,,,,,,,,,,,,,,,,,,,,,78.0,78.0,133.0,57.0,57.0,133.0,2.1,2.12,-164,-264,0,-288,191,256,197.78797101974487,197.78801321983337,197.79042387008667,197.80265498161316,197.9529070854187,197.9529070854187,197.9529070854187,197.9529070854187,197.9529070854187,197.9529070854187,197.9529070854187,199.4536452293396,3,1.6379787921905518,None,,,,,,,,,,,,,,,,,,8,3,2025-02-18_12h57.24.771,comp,2024.2.4,60.08497812515221,2025-02-18 13h00.39.552686 -0500,
55,55,0,critical,hdw,20.0,4.0,lower,133.0,57.0,78.0,78.0,57.0,133.0,1,2.060523748397827,None,,,,,0,0,0,0,0,55,55,118,199.4691300392151,,,,,,,,,,,,,,,,,,,,,,,,,,,,,,,,,,,,,,,,,,,,,,,,,,,,,,,,,,,,,,,,,,,,,,,,,,,,,,,,,133.0,57.0,78.0,78.0,57.0,133.0,4.0,4.2,-164,16,0,-263,202,8,199.4544162750244,199.45445680618286,199.45664882659912,199.4691300392151,199.61957430839539,199.61957430839539,199.61957430839539,199.61957430839539,199.61957430839539,199.61957430839539,199.61957430839539,201.53711485862732,1,2.060523748397827,None,,,,,,,,,,,,,,,,,,8,3,2025-02-18_12h57.24.771,comp,2024.2.4,60.08497812515221,2025-02-18 13h00.39.552686 -0500,
56,56,0,critical,whd,20.0,3.0,upper,125.0,200.0,200.0,125.0,141.0,141.0,1,1.7930908203125,None,,,,,0,0,0,0,0,56,56,93,201.55272388458252,,,,,,,,,,,,,,,,,,,,,,,,,,,,,,,,,,,,,,,,,,,,,,,,,,,,,,,,,,,,,,,,,,,,,,,,,,,,,,,,,125.0,200.0,200.0,125.0,141.0,141.0,3.0,3.2,-258,-253,0,11,229,282,201.5378863811493,201.53792524337769,201.54031085968018,201.55272388458252,201.70277643203735,201.70277643203735,201.70277643203735,201.70277643203735,201.70277643203735,201.70277643203735,201.70277643203735,203.3539502620697,1,1.7930908203125,None,,,,,,,,,,,,,,,,,,8,3,2025-02-18_12h57.24.771,comp,2024.2.4,60.08497812515221,2025-02-18 13h00.39.552686 -0500,
57,57,0,filler_random,None,None,None,None,None,None,None,None,None,None,1,3.800344944000244,None,,,,,0,0,0,0,0,57,57,141,203.36939907073975,,,,,,,,,,,,,,,,,,,,,,,,,,,,,,,,,,,,,,,,,,,,,,,,,,,,,,,,,,,,,,,,,,,,,,,,,,,,,,,,,183.58723703404854,146.90977812417435,187.1139210553643,121.1589481901931,142.96122519977084,123.65831078475703,1.0,1.3,250,-273,480,-266,698,-284,203.3548505306244,203.35489082336426,203.35698103904724,203.36939907073975,203.51960825920105,203.51960825920105,203.51960825920105,203.51960825920105,203.51960825920105,203.51960825920105,203.51960825920105,207.1871621608734,1,3.800344944000244,None,,,,,,,,,,,,,,,,,,8,3,2025-02-18_12h57.24.771,comp,2024.2.4,60.08497812515221,2025-02-18 13h00.39.552686 -0500,
58,58,0,critical,dwh,20.0,3.0,lower,78.0,78.0,57.0,133.0,133.0,57.0,2,3.911027669906616,None,,,,,0,0,0,0,0,58,58,68,207.202397108078,,,,,,,,,,,,,,,,,,,,,,,,,,,,,,,,,,,,,,,,,,,,,,,,,,,,,,,,,,,,,,,,,,,,,,,,,,,,,,,,,78.0,78.0,57.0,133.0,133.0,57.0,3.0,3.1,-202,251,0,-3,191,-288,207.18796706199646,207.1880078315735,207.19056224822998,207.202397108078,207.35279250144958,207.35279250144958,207.35279250144958,207.35279250144958,207.35279250144958,207.35279250144958,207.35279250144958,211.12024879455566,2,3.911027669906616,None,,,,,,,,,,,,,,,,,,8,3,2025-02-18_12h57.24.771,comp,2024.2.4,60.08497812515221,2025-02-18 13h00.39.552686 -0500,
59,59,0,filler_square,None,None,None,None,None,None,None,None,None,None,1,2.488626718521118,None,,,,,0,0,0,0,0,59,59,178,211.13594770431519,,,,,,,,,,,,,,,,,,,,,,,,,,,,,,,,,,,,,,,,,,,,,,,,,,,,,,,,,,,,,,,,,,,,,,,,,,,,,,,,,67.31866097543671,65.28621499917121,59.2626044454738,58.72936997348225,74.68741520154326,74.68741520154326,2.1,2.11,-158,275,0,266,163,-250,211.12121725082397,211.12125873565674,211.1236367225647,211.13594770431519,211.28565979003906,211.28565979003906,211.28565979003906,211.28565979003906,211.28565979003906,211.28565979003906,211.28565979003906,213.6368429660797,1,2.488626718521118,None,,,,,,,,,,,,,,,,,,8,3,2025-02-18_12h57.24.771,comp,2024.2.4,60.08497812515221,2025-02-18 13h00.39.552686 -0500,
60,60,0,filler_random,None,None,None,None,None,None,None,None,None,None,3,3.788020372390747,None,,,,,0,0,0,0,0,60,60,147,213.65245747566223,,,,,,,,,,,,,,,,,,,,,,,,,,,,,,,,,,,,,,,,,,,,,,,,,,,,,,,,,,,,,,,,,,,,,,,,,,,,,,,,,107.26063019586863,70.18189377902085,89.13623957473453,91.18424700992082,68.84504079771304,181.1661266564436,2.1,2.12,-177,-287,0,-268,232,286,213.6377363204956,213.63779020309448,213.64011573791504,213.65245747566223,213.80237770080566,213.80237770080566,213.80237770080566,213.80237770080566,213.80237770080566,213.80237770080566,213.80237770080566,217.4536111354828,3,3.788020372390747,None,,,,,,,,,,,,,,,,,,8,3,2025-02-18_12h57.24.771,comp,2024.2.4,60.08497812515221,2025-02-18 13h00.39.552686 -0500,
61,61,0,critical,dwh,35.0,1.0,upper,127.0,127.0,125.0,200.0,200.0,125.0,3,3.125079393386841,None,,,,,0,0,0,0,0,61,61,61,217.46891379356384,,,,,,,,,,,,,,,,,,,,,,,,,,,,,,,,,,,,,,,,,,,,,,,,,,,,,,,,,,,,,,,,,,,,,,,,,,,,,,,,,127.0,127.0,125.0,200.0,200.0,125.0,1.0,1.1,-740,253,-480,289,-222,290,217.45440101623535,217.45444178581238,217.45696878433228,217.46891379356384,217.6196939945221,217.6196939945221,217.6196939945221,217.6196939945221,217.6196939945221,217.6196939945221,217.6196939945221,220.60366082191467,3,3.125079393386841,None,,,,,,,,,,,,,,,,,,8,3,2025-02-18_12h57.24.771,comp,2024.2.4,60.08497812515221,2025-02-18 13h00.39.552686 -0500,
62,62,0,critical,whd,35.0,1.0,lower,57.0,133.0,133.0,57.0,70.0,70.0,1,2.701355218887329,None,,,,,0,0,0,0,0,62,62,84,220.61925721168518,,,,,,,,,,,,,,,,,,,,,,,,,,,,,,,,,,,,,,,,,,,,,,,,,,,,,,,,,,,,,,,,,,,,,,,,,,,,,,,,,57.0,133.0,133.0,57.0,70.0,70.0,1.0,1.3,289,-281,480,-261,640,-276,220.6044623851776,220.6045045852661,220.60702443122864,220.61925721168518,220.76929831504822,220.76929831504822,220.76929831504822,220.76929831504822,220.76929831504822,220.76929831504822,220.76929831504822,223.33693480491638,1,2.701355218887329,None,,,,,,,,,,,,,,,,,,8,3,2025-02-18_12h57.24.771,comp,2024.2.4,60.08497812515221,2025-02-18 13h00.39.552686 -0500,
63,63,0,critical,wdh,20.0,1.0,lower,57.0,133.0,78.0,78.0,133.0,57.0,1,0.9683620929718018,None,,,,,0,0,0,0,0,63,63,78,223.3522789478302,,,,,,,,,,,,,,,,,,,,,,,,,,,,,,,,,,,,,,,,,,,,,,,,,,,,,,,,,,,,,,,,,,,,,,,,,,,,,,,,,57.0,133.0,78.0,78.0,133.0,57.0,1.0,1.2,-202,17,0,17,164,18,223.3377161026001,223.33777260780334,223.3397934436798,223.3522789478302,223.5024061203003,223.5024061203003,223.5024061203003,223.5024061203003,223.5024061203003,223.5024061203003,223.5024061203003,224.3369710445404,1,0.9683620929718018,None,,,,,,,,,,,,,,,,,,8,3,2025-02-18_12h57.24.771,comp,2024.2.4,60.08497812515221,2025-02-18 13h00.39.552686 -0500,
64,64,0,critical,dhw,35.0,4.0,upper,127.0,127.0,200.0,125.0,125.0,200.0,2,2.488215446472168,None,,,,,0,0,0,0,0,64,64,53,224.35225296020508,,,,,,,,,,,,,,,,,,,,,,,,,,,,,,,,,,,,,,,,,,,,,,,,,,,,,,,,,,,,,,,,,,,,,,,,,,,,,,,,,127.0,127.0,200.0,125.0,125.0,200.0,4.0,4.2,-222,-16,0,-283,258,-18,224.33777046203613,224.337810754776,224.3410782814026,224.35225296020508,224.5025908946991,224.5025908946991,224.5025908946991,224.5025908946991,224.5025908946991,224.5025908946991,224.5025908946991,226.8536343574524,2,2.488215446472168,None,,,,,,,,,,,,,,,,,,8,3,2025-02-18_12h57.24.771,comp,2024.2.4,60.08497812515221,2025-02-18 13h00.39.552686 -0500,
65,65,0,critical,hwd,20.0,2.1,lower,133.0,57.0,57.0,133.0,78.0,78.0,1,1.1660258769989014,None,,,,,0,0,0,0,0,65,65,18,226.8688566684723,,,,,,,,,,,,,,,,,,,,,,,,,,,,,,,,,,,,,,,,,,,,,,,,,,,,,,,,,,,,,,,,,,,,,,,,,,,,,,,,,133.0,57.0,57.0,133.0,78.0,78.0,2.1,2.11,-191,280,0,284,202,-275,226.8544521331787,226.85449385643005,226.85657382011414,226.8688566684723,227.0190670490265,227.0190670490265,227.0190670490265,227.0190670490265,227.0190670490265,227.0190670490265,227.0190670490265,228.03693389892578,1,1.1660258769989014,None,,,,,,,,,,,,,,,,,,8,3,2025-02-18_12h57.24.771,comp,2024.2.4,60.08497812515221,2025-02-18 13h00.39.552686 -0500,
66,66,0,filler_square,None,None,None,None,None,None,None,None,None,None,2,1.1412456035614014,None,,,,,0,0,0,0,0,66,66,174,228.05261778831482,,,,,,,,,,,,,,,,,,,,,,,,,,,,,,,,,,,,,,,,,,,,,,,,,,,,,,,,,,,,,,,,,,,,,,,,,,,,,,,,,143.48057603148027,128.6555753390699,193.40633810546532,193.40633810546532,178.0634539304138,152.75868017457776,4.0,4.1,-257,-286,0,-4,269,-258,228.037855386734,228.03789567947388,228.03986859321594,228.05261778831482,228.202778339386,228.202778339386,228.202778339386,228.202778339386,228.202778339386,228.202778339386,228.202778339386,229.2036337852478,2,1.1412456035614014,None,,,,,,,,,,,,,,,,,,8,3,2025-02-18_12h57.24.771,comp,2024.2.4,60.08497812515221,2025-02-18 13h00.39.552686 -0500,
67,67,0,catch,None,None,None,None,None,None,None,None,None,None,1,0.8782837390899658,None,,,,,0,0,0,0,0,67,67,124,229.21911215782166,,,,,,,,,,,,,,,,,,,,,,,,,,,,,,,,,,,,,,,,,,,,,,,,,,,,,,,,,,,,,,,,,,,,,,,,,,,,,,,,,142,183,62,128,58,132,4.0,4.2,-252,-8,0,-276,226,8,229.20466494560242,229.20470547676086,229.20712542533875,229.21911215782166,229.36907982826233,229.36907982826233,229.36907982826233,229.36907982826233,229.36907982826233,229.36907982826233,229.36907982826233,230.10357904434204,1,0.8782837390899658,None,,,,,,,,,,,,,,,,,,8,3,2025-02-18_12h57.24.771,comp,2024.2.4,60.08497812515221,2025-02-18 13h00.39.552686 -0500,
68,68,0,critical,wdh,20.0,2.1,upper,125.0,200.0,141.0,141.0,200.0,125.0,1,2.018552541732788,None,,,,,0,0,0,0,0,68,68,11,230.11904644966125,,,,,,,,,,,,,,,,,,,,,,,,,,,,,,,,,,,,,,,,,,,,,,,,,,,,,,,,,,,,,,,,,,,,,,,,,,,,,,,,,125.0,200.0,141.0,141.0,200.0,125.0,2.1,2.11,-266,267,0,282,229,-263,230.10440301895142,230.10444355010986,230.10702419281006,230.11904644966125,230.26913905143738,230.26913905143738,230.26913905143738,230.26913905143738,230.26913905143738,230.26913905143738,230.26913905143738,232.15381526947021,1,2.018552541732788,None,,,,,,,,,,,,,,,,,,8,3,2025-02-18_12h57.24.771,comp,2024.2.4,60.08497812515221,2025-02-18 13h00.39.552686 -0500,
69,69,0,critical,wdh,35.0,2.1,lower,57.0,133.0,70.0,70.0,133.0,57.0,1,3.455507755279541,None,,,,,0,0,0,0,0,69,69,8,232.16882467269897,,,,,,,,,,,,,,,,,,,,,,,,,,,,,,,,,,,,,,,,,,,,,,,,,,,,,,,,,,,,,,,,,,,,,,,,,,,,,,,,,57.0,133.0,70.0,70.0,133.0,57.0,2.1,2.12,-198,-262,0,-254,160,272,232.15461206436157,232.15465188026428,232.15695762634277,232.16882467269897,232.31894969940186,232.31894969940186,232.31894969940186,232.31894969940186,232.31894969940186,232.31894969940186,232.31894969940186,235.63761568069458,1,3.455507755279541,None,,,,,,,,,,,,,,,,,,8,3,2025-02-18_12h57.24.771,comp,2024.2.4,60.08497812515221,2025-02-18 13h00.39.552686 -0500,
70,70,0,filler_square,None,None,None,None,None,None,None,None,None,None,2,2.350008010864258,None,,,,,0,0,0,0,0,70,70,196,235.6526243686676,,,,,,,,,,,,,,,,,,,,,,,,,,,,,,,,,,,,,,,,,,,,,,,,,,,,,,,,,,,,,,,,,,,,,,,,,,,,,,,,,143.87816016242874,93.25108924769826,165.06550666744556,165.06550666744556,131.3466604536892,149.9629258714321,1.0,1.2,-225,-11,0,-1,254,-14,235.63860511779785,235.63864159584045,235.64059901237488,235.6526243686676,235.80280208587646,235.80280208587646,235.80280208587646,235.80280208587646,235.80280208587646,235.80280208587646,235.80280208587646,238.0203948020935,2,2.350008010864258,None,,,,,,,,,,,,,,,,,,8,3,2025-02-18_12h57.24.771,comp,2024.2.4,60.08497812515221,2025-02-18 13h00.39.552686 -0500,
71,71,0,filler_square,None,None,None,None,None,None,None,None,None,None,1,1.3886749744415283,None,,,,,0,0,0,0,0,71,71,183,238.03559041023254,,,,,,,,,,,,,,,,,,,,,,,,,,,,,,,,,,,,,,,,,,,,,,,,,,,,,,,,,,,,,,,,,,,,,,,,,,,,,,,,,168.33995362581217,168.33995362581217,139.77091875731702,134.29467413195192,154.66352719259737,61.45308051181647,1.0,1.1,-727,279,-480,283,-286,264,238.02136516571045,238.02140641212463,238.02402091026306,238.03559041023254,238.1859426498413,238.1859426498413,238.1859426498413,238.1859426498413,238.1859426498413,238.1859426498413,238.1859426498413,239.43687987327576,1,1.3886749744415283,None,,,,,,,,,,,,,,,,,,8,3,2025-02-18_12h57.24.771,comp,2024.2.4,60.08497812515221,2025-02-18 13h00.39.552686 -0500,
72,72,0,filler_square,None,None,None,None,None,None,None,None,None,None,1,1.3719685077667236,None,,,,,0,0,0,0,0,72,72,190,239.45230841636658,,,,,,,,,,,,,,,,,,,,,,,,,,,,,,,,,,,,,,,,,,,,,,,,,,,,,,,,,,,,,,,,,,,,,,,,,,,,,,,,,150.0755625452614,150.0755625452614,130.45183625671328,141.27547629964553,126.59183821368461,143.877266220822,2.2,2.22,-242,285,0,-272,239,-275,239.43784427642822,239.43788528442383,239.4410319328308,239.45230841636658,239.60243582725525,239.60243582725525,239.60243582725525,239.60243582725525,239.60243582725525,239.60243582725525,239.60243582725525,240.83695697784424,1,1.3719685077667236,None,,,,,,,,,,,,,,,,,,8,3,2025-02-18_12h57.24.771,comp,2024.2.4,60.08497812515221,2025-02-18 13h00.39.552686 -0500,
73,73,0,critical,wdh,20.0,2.1,upper,125.0,200.0,141.0,141.0,200.0,125.0,1,1.9881706237792969,None,,,,,0,0,0,0,0,73,73,35,240.85216856002808,,,,,,,,,,,,,,,,,,,,,,,,,,,,,,,,,,,,,,,,,,,,,,,,,,,,,,,,,,,,,,,,,,,,,,,,,,,,,,,,,125.0,200.0,141.0,141.0,200.0,125.0,2.1,2.11,-266,281,0,252,229,-266,240.83776545524597,240.83780670166016,240.83989262580872,240.85216856002808,241.0027174949646,241.0027174949646,241.0027174949646,241.0027174949646,241.0027174949646,241.0027174949646,241.0027174949646,242.85359573364258,1,1.9881706237792969,None,,,,,,,,,,,,,,,,,,8,3,2025-02-18_12h57.24.771,comp,2024.2.4,60.08497812515221,2025-02-18 13h00.39.552686 -0500,
74,74,0,critical,hwd,20.0,3.0,upper,200.0,125.0,125.0,200.0,141.0,141.0,2,3.444462537765503,None,,,,,0,0,0,0,0,74,74,105,242.86873126029968,,,,,,,,,,,,,,,,,,,,,,,,,,,,,,,,,,,,,,,,,,,,,,,,,,,,,,,,,,,,,,,,,,,,,,,,,,,,,,,,,200.0,125.0,125.0,200.0,141.0,141.0,3.0,3.2,-258,-269,0,12,266,274,242.8543860912323,242.85442733764648,242.85692715644836,242.86873126029968,243.0195116996765,243.0195116996765,243.0195116996765,243.0195116996765,243.0195116996765,243.0195116996765,243.0195116996765,246.32018542289734,2,3.444462537765503,None,,,,,,,,,,,,,,,,,,8,3,2025-02-18_12h57.24.771,comp,2024.2.4,60.08497812515221,2025-02-18 13h00.39.552686 -0500,
75,75,0,filler_square,None,None,None,None,None,None,None,None,None,None,1,2.266824960708618,None,,,,,0,0,0,0,0,75,75,191,246.33562231063843,,,,,,,,,,,,,,,,,,,,,,,,,,,,,,,,,,,,,,,,,,,,,,,,,,,,,,,,,,,,,,,,,,,,,,,,,,,,,,,,,170.46154900045258,170.46154900045258,83.44900663124092,138.09705087219106,137.22397271415704,138.89369553482203,4.0,4.2,-250,-2,0,-285,234,15,246.3211374282837,246.32117891311646,246.32331895828247,246.33562231063843,246.48564743995667,246.48564743995667,246.48564743995667,246.48564743995667,246.48564743995667,246.48564743995667,246.48564743995667,248.6201765537262,1,2.266824960708618,None,,,,,,,,,,,,,,,,,,8,3,2025-02-18_12h57.24.771,comp,2024.2.4,60.08497812515221,2025-02-18 13h00.39.552686 -0500,
76,76,0,filler_random,None,None,None,None,None,None,None,None,None,None,1,1.021409034729004,None,,,,,0,0,0,0,0,76,76,146,248.63547015190125,,,,,,,,,,,,,,,,,,,,,,,,,,,,,,,,,,,,,,,,,,,,,,,,,,,,,,,,,,,,,,,,,,,,,,,,,,,,,,,,,168.83274864780955,103.68437305144563,144.8902863280436,101.872880570528,88.40136953178262,71.79732712100919,3.0,3.2,-199,-279,0,-2,183,286,248.62110090255737,248.62114095687866,248.62355780601501,248.63547015190125,248.7855236530304,248.7855236530304,248.7855236530304,248.7855236530304,248.7855236530304,248.7855236530304,248.7855236530304,249.6699538230896,1,1.021409034729004,None,,,,,,,,,,,,,,,,,,8,3,2025-02-18_12h57.24.771,comp,2024.2.4,60.08497812515221,2025-02-18 13h00.39.552686 -0500,
77,77,0,filler_random,None,None,None,None,None,None,None,None,None,None,2,1.2439348697662354,None,,,,,0,0,0,0,0,77,77,155,249.68529272079468,,,,,,,,,,,,,,,,,,,,,,,,,,,,,,,,,,,,,,,,,,,,,,,,,,,,,,,,,,,,,,,,,,,,,,,,,,,,,,,,,147.07600164712156,129.3286477358247,190.44785165093492,150.78638501640427,155.9495863020142,117.81948791504495,4.0,4.2,-236,-9,0,-263,230,6,249.67084741592407,249.67088913917542,249.67326474189758,249.68529272079468,249.83609628677368,249.83609628677368,249.83609628677368,249.83609628677368,249.83609628677368,249.83609628677368,249.83609628677368,250.93687772750854,2,1.2439348697662354,None,,,,,,,,,,,,,,,,,,8,3,2025-02-18_12h57.24.771,comp,2024.2.4,60.08497812515221,2025-02-18 13h00.39.552686 -0500,
78,78,0,critical,hwd,20.0,2.1,upper,200.0,125.0,125.0,200.0,141.0,141.0,1,1.2559280395507812,None,,,,,0,0,0,0,0,78,78,43,250.95226430892944,,,,,,,,,,,,,,,,,,,,,,,,,,,,,,,,,,,,,,,,,,,,,,,,,,,,,,,,,,,,,,,,,,,,,,,,,,,,,,,,,200.0,125.0,125.0,200.0,141.0,141.0,2.1,2.12,-258,-284,0,-264,266,253,250.9376745223999,250.93771529197693,250.9398365020752,250.95226430892944,251.10237836837769,251.10237836837769,251.10237836837769,251.10237836837769,251.10237836837769,251.10237836837769,251.10237836837769,252.22012639045715,1,1.2559280395507812,None,,,,,,,,,,,,,,,,,,8,3,2025-02-18_12h57.24.771,comp,2024.2.4,60.08497812515221,2025-02-18 13h00.39.552686 -0500,
79,79,0,critical,hwd,20.0,3.0,lower,133.0,57.0,57.0,133.0,78.0,78.0,2,2.742002248764038,None,,,,,0,0,0,0,0,79,79,104,252.2353549003601,,,,,,,,,,,,,,,,,,,,,,,,,,,,,,,,,,,,,,,,,,,,,,,,,,,,,,,,,,,,,,,,,,,,,,,,,,,,,,,,,133.0,57.0,57.0,133.0,78.0,78.0,3.0,3.2,-191,-268,0,-6,202,275,252.22091341018677,252.2209541797638,252.22333073616028,252.2353549003601,252.3854103088379,252.3854103088379,252.3854103088379,252.3854103088379,252.3854103088379,252.3854103088379,252.3854103088379,254.98651313781738,2,2.742002248764038,None,,,,,,,,,,,,,,,,,,8,3,2025-02-18_12h57.24.771,comp,2024.2.4,60.08497812515221,2025-02-18 13h00.39.552686 -0500,
80,80,0,critical,hdw,35.0,2.1,lower,133.0,57.0,70.0,70.0,57.0,133.0,3,2.478820323944092,None,,,,,0,0,0,0,0,80,80,44,255.00224113464355,,,,,,,,,,,,,,,,,,,,,,,,,,,,,,,,,,,,,,,,,,,,,,,,,,,,,,,,,,,,,,,,,,,,,,,,,,,,,,,,,133.0,57.0,70.0,70.0,57.0,133.0,2.1,2.11,-160,259,0,290,198,-279,254.98733520507812,254.9873766899109,254.98989748954773,255.00224113464355,255.15220403671265,255.15220403671265,255.15220403671265,255.15220403671265,255.15220403671265,255.15220403671265,255.15220403671265,257.4865412712097,3,2.478820323944092,None,,,,,,,,,,,,,,,,,,8,3,2025-02-18_12h57.24.771,comp,2024.2.4,60.08497812515221,2025-02-18 13h00.39.552686 -0500,
81,81,0,critical,dwh,20.0,2.1,upper,141.0,141.0,125.0,200.0,200.0,125.0,3,1.9702508449554443,None,,,,,0,0,0,0,0,81,81,7,257.5021138191223,,,,,,,,,,,,,,,,,,,,,,,,,,,,,,,,,,,,,,,,,,,,,,,,,,,,,,,,,,,,,,,,,,,,,,,,,,,,,,,,,141.0,141.0,125.0,200.0,200.0,125.0,2.1,2.11,-266,266,0,286,258,-285,257.4873249530792,257.48736596107483,257.48989725112915,257.5021138191223,257.6528401374817,257.6528401374817,257.6528401374817,257.6528401374817,257.6528401374817,257.6528401374817,257.6528401374817,259.4866828918457,3,1.9702508449554443,None,,,,,,,,,,,,,,,,,,8,3,2025-02-18_12h57.24.771,comp,2024.2.4,60.08497812515221,2025-02-18 13h00.39.552686 -0500,
82,82,0,filler_random,None,None,None,None,None,None,None,None,None,None,1,1.4671144485473633,None,,,,,0,0,0,0,0,82,82,139,259.50201535224915,,,,,,,,,,,,,,,,,,,,,,,,,,,,,,,,,,,,,,,,,,,,,,,,,,,,,,,,,,,,,,,,,,,,,,,,,,,,,,,,,76.45528149122525,167.5320208669504,98.2679173530059,75.71835238616526,175.7068674598428,65.12244198364148,2.2,2.22,-218,264,0,-272,166,-289,259.4876244068146,259.48766469955444,259.489697933197,259.50201535224915,259.65232491493225,259.65232491493225,259.65232491493225,259.65232491493225,259.65232491493225,259.65232491493225,259.65232491493225,260.9864809513092,1,1.4671144485473633,None,,,,,,,,,,,,,,,,,,8,3,2025-02-18_12h57.24.771,comp,2024.2.4,60.08497812515221,2025-02-18 13h00.39.552686 -0500,
83,83,0,filler_square,None,None,None,None,None,None,None,None,None,None,2,3.4062228202819824,None,,,,,0,0,0,0,0,83,83,180,261.0019602775574,,,,,,,,,,,,,,,,,,,,,,,,,,,,,,,,,,,,,,,,,,,,,,,,,,,,,,,,,,,,,,,,,,,,,,,,,,,,,,,,,58.90590401725529,112.56005671361632,121.94684177890692,121.94684177890692,83.14651256173488,62.288181824275014,2.1,2.11,-213,273,0,262,188,-290,260.98748445510864,260.98752617836,260.9902319908142,261.0019602775574,261.1521520614624,261.1521520614624,261.1521520614624,261.1521520614624,261.1521520614624,261.1521520614624,261.1521520614624,264.42000341415405,2,3.4062228202819824,None,,,,,,,,,,,,,,,,,,8,3,2025-02-18_12h57.24.771,comp,2024.2.4,60.08497812515221,2025-02-18 13h00.39.552686 -0500,
84,84,0,catch,None,None,None,None,None,None,None,None,None,None,1,1.1586830615997314,None,,,,,0,0,0,0,0,84,84,126,264.4353461265564,,,,,,,,,,,,,,,,,,,,,,,,,,,,,,,,,,,,,,,,,,,,,,,,,,,,,,,,,,,,,,,,,,,,,,,,,,,,,,,,,179,146,99,91,62,128,2.2,2.21,-214,-259,0,282,206,281,264.42107367515564,264.4211163520813,264.4235119819641,264.4353461265564,264.58561420440674,264.58561420440674,264.58561420440674,264.58561420440674,264.58561420440674,264.58561420440674,264.58561420440674,265.6031799316406,1,1.1586830615997314,None,,,,,,,,,,,,,,,,,,8,3,2025-02-18_12h57.24.771,comp,2024.2.4,60.08497812515221,2025-02-18 13h00.39.552686 -0500,
85,85,0,filler_random,None,None,None,None,None,None,None,None,None,None,2,1.056579828262329,None,,,,,0,0,0,0,0,85,85,166,265.6188657283783,,,,,,,,,,,,,,,,,,,,,,,,,,,,,,,,,,,,,,,,,,,,,,,,,,,,,,,,,,,,,,,,,,,,,,,,,,,,,,,,,117.06467488618448,124.32545761283082,190.04100661133552,185.5842271927861,82.00548017274231,176.2489116192835,3.0,3.1,-251,281,0,8,277,-253,265.60406494140625,265.60410737991333,265.60648226737976,265.6188657283783,265.7688744068146,265.7688744068146,265.7688744068146,265.7688744068146,265.7688744068146,265.7688744068146,265.7688744068146,266.7035574913025,2,1.056579828262329,None,,,,,,,,,,,,,,,,,,8,3,2025-02-18_12h57.24.771,comp,2024.2.4,60.08497812515221,2025-02-18 13h00.39.552686 -0500,
86,86,0,critical,whd,20.0,1.0,upper,125.0,200.0,200.0,125.0,141.0,141.0,1,1.2505981922149658,None,,,,,0,0,0,0,0,86,86,91,266.7188129425049,,,,,,,,,,,,,,,,,,,,,,,,,,,,,,,,,,,,,,,,,,,,,,,,,,,,,,,,,,,,,,,,,,,,,,,,,,,,,,,,,125.0,200.0,200.0,125.0,141.0,141.0,1.0,1.2,-258,16,0,-2,229,-15,266.7044939994812,266.7045319080353,266.70650601387024,266.7188129425049,266.8689064979553,266.8689064979553,266.8689064979553,266.8689064979553,266.8689064979553,266.8689064979553,266.8689064979553,267.98662757873535,1,1.2505981922149658,None,,,,,,,,,,,,,,,,,,8,3,2025-02-18_12h57.24.771,comp,2024.2.4,60.08497812515221,2025-02-18 13h00.39.552686 -0500,
87,87,0,critical,dhw,35.0,1.0,lower,70.0,70.0,133.0,57.0,57.0,133.0,2,1.4549920558929443,None,,,,,0,0,0,0,0,87,87,48,268.00173807144165,,,,,,,,,,,,,,,,,,,,,,,,,,,,,,,,,,,,,,,,,,,,,,,,,,,,,,,,,,,,,,,,,,,,,,,,,,,,,,,,,70.0,70.0,133.0,57.0,57.0,133.0,1.0,1.3,320,-278,480,-255,671,-285,267.9874348640442,267.9874746799469,267.9900403022766,268.00173807144165,268.15206122398376,268.15206122398376,268.15206122398376,268.15206122398376,268.15206122398376,268.15206122398376,268.15206122398376,269.4697299003601,2,1.4549920558929443,None,,,,,,,,,,,,,,,,,,8,3,2025-02-18_12h57.24.771,comp,2024.2.4,60.08497812515221,2025-02-18 13h00.39.552686 -0500,
88,88,0,critical,hwd,35.0,1.0,upper,200.0,125.0,125.0,200.0,127.0,127.0,2,2.0030856132507324,None,,,,,0,0,0,0,0,88,88,97,269.48517417907715,,,,,,,,,,,,,,,,,,,,,,,,,,,,,,,,,,,,,,,,,,,,,,,,,,,,,,,,,,,,,,,,,,,,,,,,,,,,,,,,,200.0,125.0,125.0,200.0,127.0,127.0,1.0,1.2,-258,11,0,0,260,17,269.4704887866974,269.47053027153015,269.4727294445038,269.48517417907715,269.635630607605,269.635630607605,269.635630607605,269.635630607605,269.635630607605,269.635630607605,269.635630607605,271.50379180908203,2,2.0030856132507324,None,,,,,,,,,,,,,,,,,,8,3,2025-02-18_12h57.24.771,comp,2024.2.4,60.08497812515221,2025-02-18 13h00.39.552686 -0500,
89,89,0,filler_square,None,None,None,None,None,None,None,None,None,None,2,1.4837827682495117,None,,,,,0,0,0,0,0,89,89,202,271.51861023902893,,,,,,,,,,,,,,,,,,,,,,,,,,,,,,,,,,,,,,,,,,,,,,,,,,,,,,,,,,,,,,,,,,,,,,,,,,,,,,,,,153.9526221495811,177.76979491137587,178.81385283011537,178.81385283011537,158.38639467630722,74.64461432469801,3.0,3.1,-274,279,0,-16,223,-268,271.50477862358093,271.5048191547394,271.50724720954895,271.51861023902893,271.6690037250519,271.6690037250519,271.6690037250519,271.6690037250519,271.6690037250519,271.6690037250519,271.6690037250519,273.02023005485535,2,1.4837827682495117,None,,,,,,,,,,,,,,,,,,8,3,2025-02-18_12h57.24.771,comp,2024.2.4,60.08497812515221,2025-02-18 13h00.39.552686 -0500,
90,90,0,critical,hwd,35.0,2.1,lower,133.0,57.0,57.0,133.0,70.0,70.0,1,2.1097588539123535,None,,,,,0,0,0,0,0,90,90,16,273.03521156311035,,,,,,,,,,,,,,,,,,,,,,,,,,,,,,,,,,,,,,,,,,,,,,,,,,,,,,,,,,,,,,,,,,,,,,,,,,,,,,,,,133.0,57.0,57.0,133.0,70.0,70.0,2.1,2.11,-191,282,0,265,198,-277,273.02105021476746,273.0210916996002,273.02318358421326,273.03521156311035,273.1853210926056,273.1853210926056,273.1853210926056,273.1853210926056,273.1853210926056,273.1853210926056,273.1853210926056,275.1530864238739,1,2.1097588539123535,None,,,,,,,,,,,,,,,,,,8,3,2025-02-18_12h57.24.771,comp,2024.2.4,60.08497812515221,2025-02-18 13h00.39.552686 -0500,
91,91,0,filler_random,None,None,None,None,None,None,None,None,None,None,1,1.4820830821990967,None,,,,,0,0,0,0,0,91,91,144,275.16866660118103,,,,,,,,,,,,,,,,,,,,,,,,,,,,,,,,,,,,,,,,,,,,,,,,,,,,,,,,,,,,,,,,,,,,,,,,,,,,,,,,,175.40270182555315,162.3010498038654,108.92982943775047,155.0098391606108,58.744567570125696,186.4627853784778,2.2,2.21,-255,-270,0,285,267,272,275.15398359298706,275.15402388572693,275.15638160705566,275.16866660118103,275.3187234401703,275.3187234401703,275.3187234401703,275.3187234401703,275.3187234401703,275.3187234401703,275.3187234401703,276.65347504615784,1,1.4820830821990967,None,,,,,,,,,,,,,,,,,,8,3,2025-02-18_12h57.24.771,comp,2024.2.4,60.08497812515221,2025-02-18 13h00.39.552686 -0500,
92,92,0,filler_square,None,None,None,None,None,None,None,None,None,None,3,4.716647148132324,None,,,,,0,0,0,0,0,92,92,193,276.66881251335144,,,,,,,,,,,,,,,,,,,,,,,,,,,,,,,,,,,,,,,,,,,,,,,,,,,,,,,,,,,,,,,,,,,,,,,,,,,,,,,,,57.189498810980375,57.094790549320884,57.50890313047352,57.50890313047352,57.35202533048182,57.03254586223688,3.0,3.1,-153,290,0,-7,153,-277,276.65443754196167,276.65447902679443,276.65691900253296,276.66881251335144,276.81851291656494,276.81851291656494,276.81851291656494,276.81851291656494,276.81851291656494,276.81851291656494,276.81851291656494,281.403137922287,3,4.716647148132324,None,,,,,,,,,,,,,,,,,,8,3,2025-02-18_12h57.24.771,comp,2024.2.4,60.08497812515221,2025-02-18 13h00.39.552686 -0500,
93,93,0,filler_random,None,None,None,None,None,None,None,None,None,None,2,1.2380921840667725,None,,,,,0,0,0,0,0,93,93,162,281.41845655441284,,,,,,,,,,,,,,,,,,,,,,,,,,,,,,,,,,,,,,,,,,,,,,,,,,,,,,,,,,,,,,,,,,,,,,,,,,,,,,,,,78.2464384630085,183.47132918177635,152.35627045895356,63.28106261452054,105.8069484708487,76.0045231328531,3.0,3.1,-219,253,0,-6,166,-267,281.40406489372253,281.4041061401367,281.4064872264862,281.41845655441284,281.56856632232666,281.56856632232666,281.56856632232666,281.56856632232666,281.56856632232666,281.56856632232666,281.56856632232666,282.6696639060974,2,1.2380921840667725,None,,,,,,,,,,,,,,,,,,8,3,2025-02-18_12h57.24.771,comp,2024.2.4,60.08497812515221,2025-02-18 13h00.39.552686 -0500,
94,94,0,critical,whd,20.0,2.1,lower,57.0,133.0,133.0,57.0,78.0,78.0,2,1.1809155941009521,None,,,,,0,0,0,0,0,94,94,14,282.68499398231506,,,,,,,,,,,,,,,,,,,,,,,,,,,,,,,,,,,,,,,,,,,,,,,,,,,,,,,,,,,,,,,,,,,,,,,,,,,,,,,,,57.0,133.0,133.0,57.0,78.0,78.0,2.1,2.11,-191,273,0,268,164,-254,282.67046332359314,282.67050433158875,282.6725027561188,282.68499398231506,282.8352036476135,282.8352036476135,282.8352036476135,282.8352036476135,282.8352036476135,282.8352036476135,282.8352036476135,283.86988377571106,2,1.1809155941009521,None,,,,,,,,,,,,,,,,,,8,3,2025-02-18_12h57.24.771,comp,2024.2.4,60.08497812515221,2025-02-18 13h00.39.552686 -0500,
95,95,0,critical,dwh,20.0,1.0,lower,78.0,78.0,57.0,133.0,133.0,57.0,3,3.0834195613861084,None,,,,,0,0,0,0,0,95,95,66,283.8853588104248,,,,,,,,,,,,,,,,,,,,,,,,,,,,,,,,,,,,,,,,,,,,,,,,,,,,,,,,,,,,,,,,,,,,,,,,,,,,,,,,,78.0,78.0,57.0,133.0,133.0,57.0,1.0,1.2,-202,17,0,17,191,-7,283.8706512451172,283.8706912994385,283.8727822303772,283.8853588104248,284.0353581905365,284.0353581905365,284.0353581905365,284.0353581905365,284.0353581905365,284.0353581905365,284.0353581905365,286.9863431453705,3,3.0834195613861084,None,,,,,,,,,,,,,,,,,,8,3,2025-02-18_12h57.24.771,comp,2024.2.4,60.08497812515221,2025-02-18 13h00.39.552686 -0500,
96,96,0,filler_square,None,None,None,None,None,None,None,None,None,None,1,1.7024309635162354,None,,,,,0,0,0,0,0,96,96,186,287.0016703605652,,,,,,,,,,,,,,,,,,,,,,,,,,,,,,,,,,,,,,,,,,,,,,,,,,,,,,,,,,,,,,,,,,,,,,,,,,,,,,,,,118.39862099438875,118.39862099438875,113.06804574338253,79.89860712844204,104.70133403089926,104.72030603043092,2.2,2.21,-195,-279,0,287,188,277,286.98732924461365,286.98737049102783,286.9898331165314,287.0016703605652,287.1518487930298,287.1518487930298,287.1518487930298,287.1518487930298,287.1518487930298,287.1518487930298,287.1518487930298,288.7196009159088,1,1.7024309635162354,None,,,,,,,,,,,,,,,,,,8,3,2025-02-18_12h57.24.771,comp,2024.2.4,60.08497812515221,2025-02-18 13h00.39.552686 -0500,
97,97,0,critical,hwd,35.0,3.0,lower,133.0,57.0,57.0,133.0,70.0,70.0,2,1.1691339015960693,None,,,,,0,0,0,0,0,97,97,98,288.7350342273712,,,,,,,,,,,,,,,,,,,,,,,,,,,,,,,,,,,,,,,,,,,,,,,,,,,,,,,,,,,,,,,,,,,,,,,,,,,,,,,,,133.0,57.0,57.0,133.0,70.0,70.0,3.0,3.2,-191,-274,0,11,198,283,288.7204191684723,288.720458984375,288.7230052947998,288.7350342273712,288.88516306877136,288.88516306877136,288.88516306877136,288.88516306877136,288.88516306877136,288.88516306877136,288.88516306877136,289.91955280303955,2,1.1691339015960693,None,,,,,,,,,,,,,,,,,,8,3,2025-02-18_12h57.24.771,comp,2024.2.4,60.08497812515221,2025-02-18 13h00.39.552686 -0500,
98,98,0,critical,dhw,20.0,4.0,lower,78.0,78.0,133.0,57.0,57.0,133.0,2,1.450326919555664,None,,,,,0,0,0,0,0,98,98,58,289.93499732017517,,,,,,,,,,,,,,,,,,,,,,,,,,,,,,,,,,,,,,,,,,,,,,,,,,,,,,,,,,,,,,,,,,,,,,,,,,,,,,,,,78.0,78.0,133.0,57.0,57.0,133.0,4.0,4.2,-164,12,0,-288,191,5,289.92034816741943,289.9203884601593,289.9224181175232,289.93499732017517,290.085196018219,290.085196018219,290.085196018219,290.085196018219,290.085196018219,290.085196018219,290.085196018219,291.4030132293701,2,1.450326919555664,None,,,,,,,,,,,,,,,,,,8,3,2025-02-18_12h57.24.771,comp,2024.2.4,60.08497812515221,2025-02-18 13h00.39.552686 -0500,
99,99,0,filler_square,None,None,None,None,None,None,None,None,None,None,2,0.9835424423217773,None,,,,,0,0,0,0,0,99,99,209,291.4185221195221,,,,,,,,,,,,,,,,,,,,,,,,,,,,,,,,,,,,,,,,,,,,,,,,,,,,,,,,,,,,,,,,,,,,,,,,,,,,,,,,,106.61993023923914,117.5264408523444,122.43681787240155,122.43681787240155,77.36607443503772,111.79111683092331,1.0,1.2,-216,4,0,12,213,2,291.40406346321106,291.4041063785553,291.4075171947479,291.4185221195221,291.568505525589,291.568505525589,291.568505525589,291.568505525589,291.568505525589,291.568505525589,291.568505525589,292.40329670906067,2,0.9835424423217773,None,,,,,,,,,,,,,,,,,,8,3,2025-02-18_12h57.24.771,comp,2024.2.4,60.08497812515221,2025-02-18 13h00.39.552686 -0500,
100,100,0,critical,whd,35.0,2.1,lower,57.0,133.0,133.0,57.0,70.0,70.0,1,2.269530773162842,None,,,,,0,0,0,0,0,100,100,36,292.41851139068604,,,,,,,,,,,,,,,,,,,,,,,,,,,,,,,,,,,,,,,,,,,,,,,,,,,,,,,,,,,,,,,,,,,,,,,,,,,,,,,,,57.0,133.0,133.0,57.0,70.0,70.0,2.1,2.12,-191,-286,0,-285,160,289,292.40407729148865,292.40411949157715,292.4062457084656,292.41851139068604,292.5687699317932,292.5687699317932,292.5687699317932,292.5687699317932,292.5687699317932,292.5687699317932,292.5687699317932,294.70283102989197,1,2.269530773162842,None,,,,,,,,,,,,,,,,,,8,3,2025-02-18_12h57.24.771,comp,2024.2.4,60.08497812515221,2025-02-18 13h00.39.552686 -0500,
101,101,0,filler_random,None,None,None,None,None,None,None,None,None,None,1,1.484114408493042,None,,,,,0,0,0,0,0,101,101,158,294.7182114124298,,,,,,,,,,,,,,,,,,,,,,,,,,,,,,,,,,,,,,,,,,,,,,,,,,,,,,,,,,,,,,,,,,,,,,,,,,,,,,,,,185.56724798713662,112.05595788148389,129.68156327638516,147.99190260995968,95.40381158437796,104.19790873191907,3.0,3.2,-226,-250,0,9,222,263,294.7037601470947,294.7038040161133,294.70614409446716,294.7182114124298,294.8685426712036,294.8685426712036,294.8685426712036,294.8685426712036,294.8685426712036,294.8685426712036,294.8685426712036,296.2194845676422,1,1.484114408493042,None,,,,,,,,,,,,,,,,,,8,3,2025-02-18_12h57.24.771,comp,2024.2.4,60.08497812515221,2025-02-18 13h00.39.552686 -0500,
102,102,0,critical,hdw,35.0,4.0,upper,200.0,125.0,127.0,127.0,125.0,200.0,1,0.9098410606384277,None,,,,,0,0,0,0,0,102,102,113,296.2349691390991,,,,,,,,,,,,,,,,,,,,,,,,,,,,,,,,,,,,,,,,,,,,,,,,,,,,,,,,,,,,,,,,,,,,,,,,,,,,,,,,,200.0,125.0,127.0,127.0,125.0,200.0,4.0,4.2,-222,-2,0,-275,260,5,296.2202868461609,296.2203280925751,296.2228651046753,296.2349691390991,296.3852324485779,296.3852324485779,296.3852324485779,296.3852324485779,296.3852324485779,296.3852324485779,296.3852324485779,297.15309882164,1,0.9098410606384277,None,,,,,,,,,,,,,,,,,,8,3,2025-02-18_12h57.24.771,comp,2024.2.4,60.08497812515221,2025-02-18 13h00.39.552686 -0500,
103,103,0,critical,wdh,35.0,2.1,upper,125.0,200.0,127.0,127.0,200.0,125.0,1,1.4169869422912598,None,,,,,0,0,0,0,0,103,103,9,297.1684672832489,,,,,,,,,,,,,,,,,,,,,,,,,,,,,,,,,,,,,,,,,,,,,,,,,,,,,,,,,,,,,,,,,,,,,,,,,,,,,,,,,125.0,200.0,127.0,127.0,200.0,125.0,2.1,2.12,-260,-265,0,-251,222,274,297.1538963317871,297.153936624527,297.1563205718994,297.1684672832489,297.31859612464905,297.31859612464905,297.31859612464905,297.31859612464905,297.31859612464905,297.31859612464905,297.31859612464905,298.58666133880615,1,1.4169869422912598,None,,,,,,,,,,,,,,,,,,8,3,2025-02-18_12h57.24.771,comp,2024.2.4,60.08497812515221,2025-02-18 13h00.39.552686 -0500,
104,104,0,filler_random,None,None,None,None,None,None,None,None,None,None,2,1.3270304203033447,None,,,,,0,0,0,0,0,104,104,133,298.60185050964355,,,,,,,,,,,,,,,,,,,,,,,,,,,,,,,,,,,,,,,,,,,,,,,,,,,,,,,,,,,,,,,,,,,,,,,,,,,,,,,,,74.87871607570963,196.65801040777583,189.7632721395309,172.46285047045296,71.96753618508099,118.8081671075737,1.0,1.2,-281,19,0,9,242,15,298.58782148361206,298.58786392211914,298.5902969837189,298.60185050964355,298.7518057823181,298.7518057823181,298.7518057823181,298.7518057823181,298.7518057823181,298.7518057823181,298.7518057823181,299.93623900413513,2,1.3270304203033447,None,,,,,,,,,,,,,,,,,,8,3,2025-02-18_12h57.24.771,comp,2024.2.4,60.08497812515221,2025-02-18 13h00.39.552686 -0500,
105,105,0,critical,hwd,35.0,2.1,upper,200.0,125.0,125.0,200.0,127.0,127.0,1,1.7929134368896484,None,,,,,0,0,0,0,0,105,105,41,299.95183849334717,,,,,,,,,,,,,,,,,,,,,,,,,,,,,,,,,,,,,,,,,,,,,,,,,,,,,,,,,,,,,,,,,,,,,,,,,,,,,,,,,200.0,125.0,125.0,200.0,127.0,127.0,2.1,2.12,-258,-275,0,-287,260,263,299.93707752227783,299.937118768692,299.9397175312042,299.95183849334717,300.10225653648376,300.10225653648376,300.10225653648376,300.10225653648376,300.10225653648376,300.10225653648376,300.10225653648376,301.75297474861145,1,1.7929134368896484,None,,,,,,,,,,,,,,,,,,8,3,2025-02-18_12h57.24.771,comp,2024.2.4,60.08497812515221,2025-02-18 13h00.39.552686 -0500,
106,106,0,critical,dhw,20.0,2.1,lower,78.0,78.0,133.0,57.0,57.0,133.0,3,2.992357015609741,None,,,,,0,0,0,0,0,106,106,2,301.7684700489044,,,,,,,,,,,,,,,,,,,,,,,,,,,,,,,,,,,,,,,,,,,,,,,,,,,,,,,,,,,,,,,,,,,,,,,,,,,,,,,,,78.0,78.0,133.0,57.0,57.0,133.0,2.1,2.11,-164,269,0,274,191,-251,301.7537760734558,301.75381803512573,301.75614380836487,301.7684700489044,301.91827940940857,301.91827940940857,301.91827940940857,301.91827940940857,301.91827940940857,301.91827940940857,301.91827940940857,304.7693786621094,3,2.992357015609741,None,,,,,,,,,,,,,,,,,,8,3,2025-02-18_12h57.24.771,comp,2024.2.4,60.08497812515221,2025-02-18 13h00.39.552686 -0500,
107,107,0,filler_square,None,None,None,None,None,None,None,None,None,None,3,3.9918289184570312,None,,,,,0,0,0,0,0,107,107,185,304.7851254940033,,,,,,,,,,,,,,,,,,,,,,,,,,,,,,,,,,,,,,,,,,,,,,,,,,,,,,,,,,,,,,,,,,,,,,,,,,,,,,,,,57.01639516918956,57.137366923405786,57.38959857300126,57.38959857300126,57.31950826811345,57.103785165382796,3.0,3.2,-153,-258,0,-11,153,280,304.7703273296356,304.7703688144684,304.77281498908997,304.7851254940033,304.9350075721741,304.9350075721741,304.9350075721741,304.9350075721741,304.9350075721741,304.9350075721741,304.9350075721741,308.78610920906067,3,3.9918289184570312,None,,,,,,,,,,,,,,,,,,8,3,2025-02-18_12h57.24.771,comp,2024.2.4,60.08497812515221,2025-02-18 13h00.39.552686 -0500,
108,108,0,filler_random,None,None,None,None,None,None,None,None,None,None,3,1.3746910095214844,None,,,,,0,0,0,0,0,108,108,135,308.80186223983765,,,,,,,,,,,,,,,,,,,,,,,,,,,,,,,,,,,,,,,,,,,,,,,,,,,,,,,,,,,,,,,,,,,,,,,,,,,,,,,,,109.89301435941623,193.03469149151508,57.96922241904469,114.7675439019552,160.77445465865642,195.30781299263086,3.0,3.2,-250,-262,0,19,251,280,308.7870228290558,308.7870635986328,308.7894630432129,308.80186223983765,308.9519646167755,308.9519646167755,308.9519646167755,308.9519646167755,308.9519646167755,308.9519646167755,308.9519646167755,310.18610429763794,3,1.3746910095214844,None,,,,,,,,,,,,,,,,,,8,3,2025-02-18_12h57.24.771,comp,2024.2.4,60.08497812515221,2025-02-18 13h00.39.552686 -0500,
109,109,0,critical,dhw,35.0,2.1,lower,70.0,70.0,133.0,57.0,57.0,133.0,2,1.583449125289917,None,,,,,0,0,0,0,0,109,109,24,310.201691865921,,,,,,,,,,,,,,,,,,,,,,,,,,,,,,,,,,,,,,,,,,,,,,,,,,,,,,,,,,,,,,,,,,,,,,,,,,,,,,,,,70.0,70.0,133.0,57.0,57.0,133.0,2.1,2.11,-160,276,0,254,191,-280,310.1869659423828,310.18700671195984,310.18956875801086,310.201691865921,310.3516466617584,310.3516466617584,310.3516466617584,310.3516466617584,310.3516466617584,310.3516466617584,310.3516466617584,311.8027446269989,2,1.583449125289917,None,,,,,,,,,,,,,,,,,,8,3,2025-02-18_12h57.24.771,comp,2024.2.4,60.08497812515221,2025-02-18 13h00.39.552686 -0500,
110,110,0,critical,hwd,20.0,2.1,upper,200.0,125.0,125.0,200.0,141.0,141.0,2,2.8784468173980713,None,,,,,0,0,0,0,0,110,110,19,311.818154335022,,,,,,,,,,,,,,,,,,,,,,,,,,,,,,,,,,,,,,,,,,,,,,,,,,,,,,,,,,,,,,,,,,,,,,,,,,,,,,,,,200.0,125.0,125.0,200.0,141.0,141.0,2.1,2.12,-258,-261,0,-252,266,264,311.8035593032837,311.8035991191864,311.80617094039917,311.818154335022,311.96867966651917,311.96867966651917,311.96867966651917,311.96867966651917,311.96867966651917,311.96867966651917,311.96867966651917,314.7030529975891,2,2.8784468173980713,None,,,,,,,,,,,,,,,,,,8,3,2025-02-18_12h57.24.771,comp,2024.2.4,60.08497812515221,2025-02-18 13h00.39.552686 -0500,
111,111,0,filler_square,None,None,None,None,None,None,None,None,None,None,1,1.2263116836547852,None,,,,,0,0,0,0,0,111,111,208,314.7184224128723,,,,,,,,,,,,,,,,,,,,,,,,,,,,,,,,,,,,,,,,,,,,,,,,,,,,,,,,,,,,,,,,,,,,,,,,,,,,,,,,,165.42787121536907,165.42787121536907,84.43410260566696,71.95992217156403,82.85666247493427,98.92810771194075,3.0,3.2,-215,-254,0,7,181,274,314.70403122901917,314.70407366752625,314.70641589164734,314.7184224128723,314.8682782649994,314.8682782649994,314.8682782649994,314.8682782649994,314.8682782649994,314.8682782649994,314.8682782649994,315.95289421081543,1,1.2263116836547852,None,,,,,,,,,,,,,,,,,,8,3,2025-02-18_12h57.24.771,comp,2024.2.4,60.08497812515221,2025-02-18 13h00.39.552686 -0500,
112,112,0,filler_random,None,None,None,None,None,None,None,None,None,None,1,3.7280404567718506,None,,,,,0,0,0,0,0,112,112,145,315.9684166908264,,,,,,,,,,,,,,,,,,,,,,,,,,,,,,,,,,,,,,,,,,,,,,,,,,,,,,,,,,,,,,,,,,,,,,,,,,,,,,,,,71.46712009909082,177.00387488239068,61.21188967475092,173.95945006858994,130.54398017172502,71.14707760973988,3.0,3.1,-271,283,0,20,219,-259,315.95390796661377,315.953950881958,315.9565510749817,315.9684166908264,316.11821699142456,316.11821699142456,316.11821699142456,316.11821699142456,316.11821699142456,316.11821699142456,316.11821699142456,319.7026481628418,1,3.7280404567718506,None,,,,,,,,,,,,,,,,,,8,3,2025-02-18_12h57.24.771,comp,2024.2.4,60.08497812515221,2025-02-18 13h00.39.552686 -0500,
113,113,0,filler_square,None,None,None,None,None,None,None,None,None,None,1,2.5785069465637207,None,,,,,0,0,0,0,0,113,113,194,319.71819257736206,,,,,,,,,,,,,,,,,,,,,,,,,,,,,,,,,,,,,,,,,,,,,,,,,,,,,,,,,,,,,,,,,,,,,,,,,,,,,,,,,70.78652592443372,70.78652592443372,57.04699349965368,60.9491356079087,69.82464470824466,62.499269031649014,4.0,4.1,-162,-251,0,14,158,-259,319.7036221027374,319.70366168022156,319.7059495449066,319.71819257736206,319.86820244789124,319.86820244789124,319.86820244789124,319.86820244789124,319.86820244789124,319.86820244789124,319.86820244789124,322.30256152153015,1,2.5785069465637207,None,,,,,,,,,,,,,,,,,,8,3,2025-02-18_12h57.24.771,comp,2024.2.4,60.08497812515221,2025-02-18 13h00.39.552686 -0500,
114,114,0,critical,whd,20.0,2.1,lower,57.0,133.0,133.0,57.0,78.0,78.0,2,3.0017383098602295,None,,,,,0,0,0,0,0,114,114,38,322.31815361976624,,,,,,,,,,,,,,,,,,,,,,,,,,,,,,,,,,,,,,,,,,,,,,,,,,,,,,,,,,,,,,,,,,,,,,,,,,,,,,,,,57.0,133.0,133.0,57.0,78.0,78.0,2.1,2.12,-191,-280,0,-276,164,258,322.30334401130676,322.30338430404663,322.3058931827545,322.31815361976624,322.46817541122437,322.46817541122437,322.46817541122437,322.46817541122437,322.46817541122437,322.46817541122437,322.46817541122437,325.3358874320984,2,3.0017383098602295,None,,,,,,,,,,,,,,,,,,8,3,2025-02-18_12h57.24.771,comp,2024.2.4,60.08497812515221,2025-02-18 13h00.39.552686 -0500,
115,115,0,filler_square,None,None,None,None,None,None,None,None,None,None,2,1.2006585597991943,None,,,,,0,0,0,0,0,115,115,177,325.3512632846832,,,,,,,,,,,,,,,,,,,,,,,,,,,,,,,,,,,,,,,,,,,,,,,,,,,,,,,,,,,,,,,,,,,,,,,,,,,,,,,,,67.53176814094913,65.52063318078625,109.99376873976384,109.99376873976384,92.71289627084695,90.25242835685178,1.0,1.3,296,-258,480,-254,676,-282,325.3368260860443,325.3368673324585,325.33917117118835,325.3512632846832,325.5013782978058,325.5013782978058,325.5013782978058,325.5013782978058,325.5013782978058,325.5013782978058,325.5013782978058,326.5695197582245,2,1.2006585597991943,None,,,,,,,,,,,,,,,,,,8,3,2025-02-18_12h57.24.771,comp,2024.2.4,60.08497812515221,2025-02-18 13h00.39.552686 -0500,
116,116,0,critical,wdh,35.0,3.0,upper,125.0,200.0,127.0,127.0,200.0,125.0,3,1.3918423652648926,None,,,,,0,0,0,0,0,116,116,75,326.58469581604004,,,,,,,,,,,,,,,,,,,,,,,,,,,,,,,,,,,,,,,,,,,,,,,,,,,,,,,,,,,,,,,,,,,,,,,,,,,,,,,,,125.0,200.0,127.0,127.0,200.0,125.0,3.0,3.1,-260,251,0,7,222,-255,326.57032680511475,326.57036685943604,326.5730011463165,326.58469581604004,326.7350203990936,326.7350203990936,326.7350203990936,326.7350203990936,326.7350203990936,326.7350203990936,326.7350203990936,327.98608469963074,3,1.3918423652648926,None,,,,,,,,,,,,,,,,,,8,3,2025-02-18_12h57.24.771,comp,2024.2.4,60.08497812515221,2025-02-18 13h00.39.552686 -0500,
117,117,0,critical,whd,20.0,4.0,lower,57.0,133.0,133.0,57.0,78.0,78.0,2,1.7502262592315674,None,,,,,0,0,0,0,0,117,117,94,328.0016007423401,,,,,,,,,,,,,,,,,,,,,,,,,,,,,,,,,,,,,,,,,,,,,,,,,,,,,,,,,,,,,,,,,,,,,,,,,,,,,,,,,57.0,133.0,133.0,57.0,78.0,78.0,4.0,4.2,-191,6,0,-285,164,4,327.9868676662445,327.9869079589844,327.98919129371643,328.0016007423401,328.151823759079,328.151823759079,328.151823759079,328.151823759079,328.151823759079,328.151823759079,328.151823759079,329.7693555355072,2,1.7502262592315674,None,,,,,,,,,,,,,,,,,,8,3,2025-02-18_12h57.24.771,comp,2024.2.4,60.08497812515221,2025-02-18 13h00.39.552686 -0500,
118,118,0,critical,dwh,35.0,4.0,upper,127.0,127.0,125.0,200.0,200.0,125.0,3,1.9838688373565674,None,,,,,0,0,0,0,0,118,118,65,329.7846541404724,,,,,,,,,,,,,,,,,,,,,,,,,,,,,,,,,,,,,,,,,,,,,,,,,,,,,,,,,,,,,,,,,,,,,,,,,,,,,,,,,127.0,127.0,125.0,200.0,200.0,125.0,4.0,4.1,-260,-265,0,18,258,-280,329.77016949653625,329.7702085971832,329.7726032733917,329.7846541404724,329.93535685539246,329.93535685539246,329.93535685539246,329.93535685539246,329.93535685539246,329.93535685539246,329.93535685539246,331.7859642505646,3,1.9838688373565674,None,,,,,,,,,,,,,,,,,,8,3,2025-02-18_12h57.24.771,comp,2024.2.4,60.08497812515221,2025-02-18 13h00.39.552686 -0500,
119,119,0,critical,dhw,35.0,3.0,upper,127.0,127.0,200.0,125.0,125.0,200.0,3,1.8704471588134766,None,,,,,0,0,0,0,0,119,119,51,331.8011591434479,,,,,,,,,,,,,,,,,,,,,,,,,,,,,,,,,,,,,,,,,,,,,,,,,,,,,,,,,,,,,,,,,,,,,,,,,,,,,,,,,127.0,127.0,200.0,125.0,125.0,200.0,3.0,3.2,-222,-285,0,9,258,289,331.78676295280457,331.7868046760559,331.7891757488251,331.8011591434479,331.95160698890686,331.95160698890686,331.95160698890686,331.95160698890686,331.95160698890686,331.95160698890686,331.95160698890686,333.68597197532654,3,1.8704471588134766,None,,,,,,,,,,,,,,,,,,8,3,2025-02-18_12h57.24.771,comp,2024.2.4,60.08497812515221,2025-02-18 13h00.39.552686 -0500,
120,120,0,critical,hdw,20.0,2.1,lower,133.0,57.0,78.0,78.0,57.0,133.0,1,2.4506332874298096,None,,,,,0,0,0,0,0,120,120,46,333.701224565506,,,,,,,,,,,,,,,,,,,,,,,,,,,,,,,,,,,,,,,,,,,,,,,,,,,,,,,,,,,,,,,,,,,,,,,,,,,,,,,,,133.0,57.0,78.0,78.0,57.0,133.0,2.1,2.11,-164,286,0,284,202,-284,333.6867814064026,333.6868200302124,333.68919563293457,333.701224565506,333.85132241249084,333.85132241249084,333.85132241249084,333.85132241249084,333.85132241249084,333.85132241249084,333.85132241249084,336.1692488193512,1,2.4506332874298096,None,,,,,,,,,,,,,,,,,,8,3,2025-02-18_12h57.24.771,comp,2024.2.4,60.08497812515221,2025-02-18 13h00.39.552686 -0500,
121,121,0,critical,dwh,20.0,2.1,lower,78.0,78.0,57.0,133.0,133.0,57.0,3,3.0334441661834717,None,,,,,0,0,0,0,0,121,121,30,336.1846270561218,,,,,,,,,,,,,,,,,,,,,,,,,,,,,,,,,,,,,,,,,,,,,,,,,,,,,,,,,,,,,,,,,,,,,,,,,,,,,,,,,78.0,78.0,57.0,133.0,133.0,57.0,2.1,2.12,-202,-280,0,-274,191,280,336.17005801200867,336.17009830474854,336.1725084781647,336.1846270561218,336.3347840309143,336.3347840309143,336.3347840309143,336.3347840309143,336.3347840309143,336.3347840309143,336.3347840309143,339.2357392311096,3,3.0334441661834717,None,,,,,,,,,,,,,,,,,,8,3,2025-02-18_12h57.24.771,comp,2024.2.4,60.08497812515221,2025-02-18 13h00.39.552686 -0500,
122,122,0,critical,wdh,35.0,1.0,lower,57.0,133.0,70.0,70.0,133.0,57.0,3,1.8932199478149414,None,,,,,0,0,0,0,0,122,122,72,339.2511501312256,,,,,,,,,,,,,,,,,,,,,,,,,,,,,,,,,,,,,,,,,,,,,,,,,,,,,,,,,,,,,,,,,,,,,,,,,,,,,,,,,57.0,133.0,70.0,70.0,133.0,57.0,1.0,1.3,282,-253,480,-263,640,-287,339.2365951538086,339.2366347312927,339.2388708591461,339.2511501312256,339.401531457901,339.401531457901,339.401531457901,339.401531457901,339.401531457901,339.401531457901,339.401531457901,341.1525568962097,3,1.8932199478149414,None,,,,,,,,,,,,,,,,,,8,3,2025-02-18_12h57.24.771,comp,2024.2.4,60.08497812515221,2025-02-18 13h00.39.552686 -0500,
123,123,0,filler_square,None,None,None,None,None,None,None,None,None,None,1,2.681992292404175,None,,,,,0,0,0,0,0,123,123,192,341.1680312156677,,,,,,,,,,,,,,,,,,,,,,,,,,,,,,,,,,,,,,,,,,,,,,,,,,,,,,,,,,,,,,,,,,,,,,,,,,,,,,,,,134.50299593408533,134.50299593408533,105.68857094495394,101.15609115852968,73.31629000092947,77.79658115566701,4.0,4.2,-214,-11,0,-254,185,15,341.1534917354584,341.1535310745239,341.15574526786804,341.1680312156677,341.31795954704285,341.31795954704285,341.31795954704285,341.31795954704285,341.31795954704285,341.31795954704285,341.31795954704285,343.8525540828705,1,2.681992292404175,None,,,,,,,,,,,,,,,,,,8,3,2025-02-18_12h57.24.771,comp,2024.2.4,60.08497812515221,2025-02-18 13h00.39.552686 -0500,
124,124,0,critical,whd,20.0,4.0,upper,125.0,200.0,200.0,125.0,141.0,141.0,2,4.300405263900757,None,,,,,0,0,0,0,0,124,124,95,343.8680498600006,,,,,,,,,,,,,,,,,,,,,,,,,,,,,,,,,,,,,,,,,,,,,,,,,,,,,,,,,,,,,,,,,,,,,,,,,,,,,,,,,125.0,200.0,200.0,125.0,141.0,141.0,4.0,4.1,-258,-251,0,5,229,-264,343.8533229827881,343.8533606529236,343.85525274276733,343.8680498600006,344.018221616745,344.018221616745,344.018221616745,344.018221616745,344.018221616745,344.018221616745,344.018221616745,348.1860337257385,2,4.300405263900757,None,,,,,,,,,,,,,,,,,,8,3,2025-02-18_12h57.24.771,comp,2024.2.4,60.08497812515221,2025-02-18 13h00.39.552686 -0500,
125,125,0,critical,hdw,35.0,3.0,lower,133.0,57.0,70.0,70.0,57.0,133.0,3,3.0002377033233643,None,,,,,0,0,0,0,0,125,125,110,348.2012264728546,,,,,,,,,,,,,,,,,,,,,,,,,,,,,,,,,,,,,,,,,,,,,,,,,,,,,,,,,,,,,,,,,,,,,,,,,,,,,,,,,133.0,57.0,70.0,70.0,57.0,133.0,3.0,3.1,-160,265,0,-1,198,-255,348.18686056137085,348.1869010925293,348.1889810562134,348.2012264728546,348.3512010574341,348.3512010574341,348.3512010574341,348.3512010574341,348.3512010574341,348.3512010574341,348.3512010574341,351.2189667224884,3,3.0002377033233643,None,,,,,,,,,,,,,,,,,,8,3,2025-02-18_12h57.24.771,comp,2024.2.4,60.08497812515221,2025-02-18 13h00.39.552686 -0500,
126,126,0,critical,whd,20.0,2.1,upper,125.0,200.0,200.0,125.0,141.0,141.0,2,1.4156529903411865,None,,,,,0,0,0,0,0,126,126,15,351.2343623638153,,,,,,,,,,,,,,,,,,,,,,,,,,,,,,,,,,,,,,,,,,,,,,,,,,,,,,,,,,,,,,,,,,,,,,,,,,,,,,,,,125.0,200.0,200.0,125.0,141.0,141.0,2.1,2.11,-258,271,0,255,229,-266,351.2197906970978,351.2198302745819,351.2220230102539,351.2343623638153,351.38486337661743,351.38486337661743,351.38486337661743,351.38486337661743,351.38486337661743,351.38486337661743,351.38486337661743,352.65293526649475,2,1.4156529903411865,None,,,,,,,,,,,,,,,,,,8,3,2025-02-18_12h57.24.771,comp,2024.2.4,60.08497812515221,2025-02-18 13h00.39.552686 -0500,
127,127,0,critical,dwh,20.0,3.0,upper,141.0,141.0,125.0,200.0,200.0,125.0,2,0.9001340866088867,None,,,,,0,0,0,0,0,127,127,69,352.668251991272,,,,,,,,,,,,,,,,,,,,,,,,,,,,,,,,,,,,,,,,,,,,,,,,,,,,,,,,,,,,,,,,,,,,,,,,,,,,,,,,,141.0,141.0,125.0,200.0,200.0,125.0,3.0,3.1,-266,277,0,-12,258,-280,352.6536784172058,352.65371680259705,352.65567541122437,352.668251991272,352.81825280189514,352.81825280189514,352.81825280189514,352.81825280189514,352.81825280189514,352.81825280189514,352.81825280189514,353.56960248947144,2,0.9001340866088867,None,,,,,,,,,,,,,,,,,,8,3,2025-02-18_12h57.24.771,comp,2024.2.4,60.08497812515221,2025-02-18 13h00.39.552686 -0500,
128,128,0,filler_square,None,None,None,None,None,None,None,None,None,None,3,1.743481159210205,None,,,,,0,0,0,0,0,128,128,206,353.58484840393066,,,,,,,,,,,,,,,,,,,,,,,,,,,,,,,,,,,,,,,,,,,,,,,,,,,,,,,,,,,,,,,,,,,,,,,,,,,,,,,,,89.02362092659592,74.83993118282014,84.32905043793114,97.24059906055587,102.20598820535305,102.20598820535305,1.0,1.3,298,-272,480,-287,676,-264,353.5706956386566,353.5707378387451,353.57372093200684,353.58484840393066,353.73467445373535,353.73467445373535,353.73467445373535,353.73467445373535,353.73467445373535,353.73467445373535,353.73467445373535,355.335697889328,3,1.743481159210205,None,,,,,,,,,,,,,,,,,,8,3,2025-02-18_12h57.24.771,comp,2024.2.4,60.08497812515221,2025-02-18 13h00.39.552686 -0500,
129,129,0,filler_square,None,None,None,None,None,None,None,None,None,None,3,1.008549451828003,None,,,,,0,0,0,0,0,129,129,201,355.35164427757263,,,,,,,,,,,,,,,,,,,,,,,,,,,,,,,,,,,,,,,,,,,,,,,,,,,,,,,,,,,,,,,,,,,,,,,,,,,,,,,,,104.45548988038553,102.52581498743231,105.9117201084076,149.6915764662027,189.60122581777182,189.60122581777182,1.0,1.3,258,-273,480,-261,746,-254,355.3366184234619,355.33665895462036,355.3386073112488,355.35164427757263,355.50145745277405,355.50145745277405,355.50145745277405,355.50145745277405,355.50145745277405,355.50145745277405,355.50145745277405,356.3691141605377,3,1.008549451828003,None,,,,,,,,,,,,,,,,,,8,3,2025-02-18_12h57.24.771,comp,2024.2.4,60.08497812515221,2025-02-18 13h00.39.552686 -0500,
130,130,0,critical,whd,20.0,3.0,lower,57.0,133.0,133.0,57.0,78.0,78.0,2,1.1187891960144043,None,,,,,0,0,0,0,0,130,130,92,356.38455057144165,,,,,,,,,,,,,,,,,,,,,,,,,,,,,,,,,,,,,,,,,,,,,,,,,,,,,,,,,,,,,,,,,,,,,,,,,,,,,,,,,57.0,133.0,133.0,57.0,78.0,78.0,3.0,3.2,-191,-287,0,11,164,281,356.3698983192444,356.36993956565857,356.3720097541809,356.38455057144165,356.53455805778503,356.53455805778503,356.53455805778503,356.53455805778503,356.53455805778503,356.53455805778503,356.53455805778503,357.51893520355225,2,1.1187891960144043,None,,,,,,,,,,,,,,,,,,8,3,2025-02-18_12h57.24.771,comp,2024.2.4,60.08497812515221,2025-02-18 13h00.39.552686 -0500,
131,131,0,critical,whd,35.0,2.1,upper,125.0,200.0,200.0,125.0,127.0,127.0,2,0.9311292171478271,None,,,,,0,0,0,0,0,131,131,13,357.53431725502014,,,,,,,,,,,,,,,,,,,,,,,,,,,,,,,,,,,,,,,,,,,,,,,,,,,,,,,,,,,,,,,,,,,,,,,,,,,,,,,,,125.0,200.0,200.0,125.0,127.0,127.0,2.1,2.11,-258,251,0,250,222,-281,357.51972579956055,357.5197813510895,357.5220682621002,357.53431725502014,357.68480348587036,357.68480348587036,357.68480348587036,357.68480348587036,357.68480348587036,357.68480348587036,357.68480348587036,358.46932101249695,2,0.9311292171478271,None,,,,,,,,,,,,,,,,,,8,3,2025-02-18_12h57.24.771,comp,2024.2.4,60.08497812515221,2025-02-18 13h00.39.552686 -0500,
132,132,0,critical,dhw,20.0,2.1,upper,141.0,141.0,200.0,125.0,125.0,200.0,3,1.8670368194580078,None,,,,,0,0,0,0,0,132,132,27,358.4846086502075,,,,,,,,,,,,,,,,,,,,,,,,,,,,,,,,,,,,,,,,,,,,,,,,,,,,,,,,,,,,,,,,,,,,,,,,,,,,,,,,,141.0,141.0,200.0,125.0,125.0,200.0,2.1,2.11,-229,267,0,253,258,-250,358.47010231018066,358.4701416492462,358.4721374511719,358.4846086502075,358.63512802124023,358.63512802124023,358.63512802124023,358.63512802124023,358.63512802124023,358.63512802124023,358.63512802124023,360.3529098033905,3,1.8670368194580078,None,,,,,,,,,,,,,,,,,,8,3,2025-02-18_12h57.24.771,comp,2024.2.4,60.08497812515221,2025-02-18 13h00.39.552686 -0500,
133,133,0,critical,hwd,20.0,2.1,lower,133.0,57.0,57.0,133.0,78.0,78.0,2,2.0972511768341064,None,,,,,0,0,0,0,0,133,133,42,360.3678731918335,,,,,,,,,,,,,,,,,,,,,,,,,,,,,,,,,,,,,,,,,,,,,,,,,,,,,,,,,,,,,,,,,,,,,,,,,,,,,,,,,133.0,57.0,57.0,133.0,78.0,78.0,2.1,2.12,-191,-261,0,-279,202,281,360.3536911010742,360.3537313938141,360.3560402393341,360.3678731918335,360.5179030895233,360.5179030895233,360.5179030895233,360.5179030895233,360.5179030895233,360.5179030895233,360.5179030895233,362.4690546989441,2,2.0972511768341064,None,,,,,,,,,,,,,,,,,,8,3,2025-02-18_12h57.24.771,comp,2024.2.4,60.08497812515221,2025-02-18 13h00.39.552686 -0500,
134,134,0,critical,wdh,35.0,3.0,lower,57.0,133.0,70.0,70.0,133.0,57.0,1,1.9497125148773193,None,,,,,0,0,0,0,0,134,134,74,362.4844899177551,,,,,,,,,,,,,,,,,,,,,,,,,,,,,,,,,,,,,,,,,,,,,,,,,,,,,,,,,,,,,,,,,,,,,,,,,,,,,,,,,57.0,133.0,70.0,70.0,133.0,57.0,3.0,3.2,-198,-262,0,-18,160,270,362.4698123931885,362.46985244750977,362.4721713066101,362.4844899177551,362.6344804763794,362.6344804763794,362.6344804763794,362.6344804763794,362.6344804763794,362.6344804763794,362.6344804763794,364.4358158111572,1,1.9497125148773193,None,,,,,,,,,,,,,,,,,,8,3,2025-02-18_12h57.24.771,comp,2024.2.4,60.08497812515221,2025-02-18 13h00.39.552686 -0500,
135,135,0,critical,dwh,35.0,3.0,upper,127.0,127.0,125.0,200.0,200.0,125.0,3,2.0136878490448,None,,,,,0,0,0,0,0,135,135,63,364.45126581192017,,,,,,,,,,,,,,,,,,,,,,,,,,,,,,,,,,,,,,,,,,,,,,,,,,,,,,,,,,,,,,,,,,,,,,,,,,,,,,,,,127.0,127.0,125.0,200.0,200.0,125.0,3.0,3.2,-260,-283,0,-18,258,287,364.43659234046936,364.43663215637207,364.4389533996582,364.45126581192017,364.60134720802307,364.60134720802307,364.60134720802307,364.60134720802307,364.60134720802307,364.60134720802307,364.60134720802307,366.4692018032074,3,2.0136878490448,None,,,,,,,,,,,,,,,,,,8,3,2025-02-18_12h57.24.771,comp,2024.2.4,60.08497812515221,2025-02-18 13h00.39.552686 -0500,
136,136,0,filler_random,None,None,None,None,None,None,None,None,None,None,2,1.2754967212677002,None,,,,,0,0,0,0,0,136,136,136,366.4845929145813,,,,,,,,,,,,,,,,,,,,,,,,,,,,,,,,,,,,,,,,,,,,,,,,,,,,,,,,,,,,,,,,,,,,,,,,,,,,,,,,,141.58410957296203,198.90379069963146,198.66375688336015,173.5489804330375,196.1053572494132,74.82505783736711,2.2,2.22,-282,268,0,-269,220,-263,366.4700825214386,366.47012400627136,366.47219920158386,366.4845929145813,366.63484144210815,366.63484144210815,366.63484144210815,366.63484144210815,366.63484144210815,366.63484144210815,366.63484144210815,367.76915192604065,2,1.2754967212677002,None,,,,,,,,,,,,,,,,,,8,3,2025-02-18_12h57.24.771,comp,2024.2.4,60.08497812515221,2025-02-18 13h00.39.552686 -0500,
137,137,0,catch,None,None,None,None,None,None,None,None,None,None,3,1.1756393909454346,None,,,,,0,0,0,0,0,137,137,120,367.78460907936096,,,,,,,,,,,,,,,,,,,,,,,,,,,,,,,,,,,,,,,,,,,,,,,,,,,,,,,,,,,,,,,,,,,,,,,,,,,,,,,,,133,57,69,121,178,147,2.2,2.22,-185,258,0,-263,230,-262,367.77026414871216,367.7703061103821,367.7726631164551,367.78460907936096,367.93447279930115,367.93447279930115,367.93447279930115,367.93447279930115,367.93447279930115,367.93447279930115,367.93447279930115,368.9689166545868,3,1.1756393909454346,None,,,,,,,,,,,,,,,,,,8,3,2025-02-18_12h57.24.771,comp,2024.2.4,60.08497812515221,2025-02-18 13h00.39.552686 -0500,
138,138,0,critical,dhw,20.0,2.1,upper,141.0,141.0,200.0,125.0,125.0,200.0,2,1.5346906185150146,None,,,,,0,0,0,0,0,138,138,3,368.98454213142395,,,,,,,,,,,,,,,,,,,,,,,,,,,,,,,,,,,,,,,,,,,,,,,,,,,,,,,,,,,,,,,,,,,,,,,,,,,,,,,,,141.0,141.0,200.0,125.0,125.0,200.0,2.1,2.12,-229,-274,0,-258,258,260,368.9697313308716,368.96979212760925,368.97185611724854,368.98454213142395,369.13469219207764,369.13469219207764,369.13469219207764,369.13469219207764,369.13469219207764,369.13469219207764,369.13469219207764,370.53572726249695,2,1.5346906185150146,None,,,,,,,,,,,,,,,,,,8,3,2025-02-18_12h57.24.771,comp,2024.2.4,60.08497812515221,2025-02-18 13h00.39.552686 -0500,
139,139,0,critical,hwd,35.0,4.0,upper,200.0,125.0,125.0,200.0,127.0,127.0,1,1.913686752319336,None,,,,,0,0,0,0,0,139,139,101,370.5510063171387,,,,,,,,,,,,,,,,,,,,,,,,,,,,,,,,,,,,,,,,,,,,,,,,,,,,,,,,,,,,,,,,,,,,,,,,,,,,,,,,,200.0,125.0,125.0,200.0,127.0,127.0,4.0,4.2,-258,-15,0,-274,260,14,370.5365173816681,370.5365569591522,370.5385549068451,370.5510063171387,370.70130586624146,370.70130586624146,370.70130586624146,370.70130586624146,370.70130586624146,370.70130586624146,370.70130586624146,372.4690947532654,1,1.913686752319336,None,,,,,,,,,,,,,,,,,,8,3,2025-02-18_12h57.24.771,comp,2024.2.4,60.08497812515221,2025-02-18 13h00.39.552686 -0500,
140,140,0,critical,dhw,20.0,1.0,lower,78.0,78.0,133.0,57.0,57.0,133.0,2,2.043654441833496,None,,,,,0,0,0,0,0,140,140,54,372.48446893692017,,,,,,,,,,,,,,,,,,,,,,,,,,,,,,,,,,,,,,,,,,,,,,,,,,,,,,,,,,,,,,,,,,,,,,,,,,,,,,,,,78.0,78.0,133.0,57.0,57.0,133.0,1.0,1.3,316,-286,480,-286,671,-275,372.46991872787476,372.46995973587036,372.4720456600189,372.48446893692017,372.634286403656,372.634286403656,372.634286403656,372.634286403656,372.634286403656,372.634286403656,372.634286403656,374.53546476364136,2,2.043654441833496,None,,,,,,,,,,,,,,,,,,8,3,2025-02-18_12h57.24.771,comp,2024.2.4,60.08497812515221,2025-02-18 13h00.39.552686 -0500,
