thisN,thisTrialN,thisRepN,effect,order,distance,config,diag,h_1,w_1,h_2,w_2,h_3,w_3,rect_choice.keys,rect_choice.rt,rect_choice.duration,instructions_loop.thisRepN,instructions_loop.thisTrialN,instructions_loop.thisN,instructions_loop.thisIndex,blocks.thisRepN,blocks.thisTrialN,blocks.thisN,blocks.thisIndex,trials.thisRepN,trials.thisTrialN,trials.thisN,trials.thisIndex,thisRow.t,notes,consent.started,agree_button.started,decline_button.started,consent_img.started,mouse.started,consent.stopped,agree_button.numClicks,agree_button.timesOn,agree_button.timesOff,decline_button.numClicks,decline_button.timesOn,decline_button.timesOff,mouse.x,mouse.y,mouse.leftButton,mouse.midButton,mouse.rightButton,mouse.time,mouse.clicked_name,exp_params.started,exp_params.stopped,welcome.started,welcome_text.started,welcome.stopped,instructions_1.started,instructions_1_text_1.started,instructions_1_text_2.started,key_resp.started,instructions_1.stopped,instructions_loop.key_resp.keys,instructions_loop.key_resp.rt,instructions_loop.key_resp.duration,instructions_2.started,instructions_2_text_1.started,instructions_2_text_2.started,key_resp_2.started,instructions_2.stopped,instructions_loop.key_resp_2.keys,instructions_loop.key_resp_2.rt,instructions_loop.key_resp_2.duration,instructions_3.started,instructions_3_text_1.started,r1_instr3.started,r2_instr3.started,r3_instr3.started,r1_instr3_label.started,r2_instr3_label.started,r3_instr3_label.started,instructions_3_text_3.started,instructions_3_text_4.started,key_resp_3.started,instructions_3.stopped,instructions_loop.key_resp_3.keys,instructions_loop.key_resp_3.rt,instructions_loop.key_resp_3.duration,instructions_4.started,instructions_4_text_1.started,instructions_4_text_3.started,instructions_4_text_2.started,key_resp_4.started,instructions_4.stopped,instructions_loop.key_resp_4.keys,instructions_loop.key_resp_4.rt,instructions_loop.key_resp_4.duration,instructions_5.started,instructions_5_text_1.started,instructions_5_text_2.started,key_resp_5.started,instructions_5.stopped,instructions_loop.key_resp_5.keys,instructions_loop.key_resp_5.rt,instructions_loop.key_resp_5.duration,start_exp.started,start_exp_text.started,key_resp_6.started,start_exp.stopped,key_resp_6.keys,key_resp_6.rt,key_resp_6.duration,h_1_tmp,w_1_tmp,h_2_tmp,w_2_tmp,h_3_tmp,w_3_tmp,config_tmp,config_tmp_1,r_1_x,r_1_y,r_2_x,r_2_y,r_3_x,r_3_y,pre_trial.started,pre_trial.stopped,choice_trial.started,rect_choice.started,r_1.started,r_2.started,r_3.started,r_1_label.started,r_2_label.started,r_3_label.started,prompt.started,choice_trial.stopped,trials.rect_choice.keys,trials.rect_choice.rt,trials.rect_choice.duration,end_block.started,end_block_text.started,end_block.stopped,end.started,end_text.started,key_resp_7.started,end.stopped,key_resp_7.keys,key_resp_7.rt,key_resp_7.duration,debriefing.started,debrief_form.started,end_debrief.started,debriefing.stopped,end_debrief.keys,end_debrief.rt,end_debrief.duration,participant,computer,date,expName,psychopyVersion,frameRate,expStart,
,,,,,,,,,,,,,,,,,,,,,,,,,,,,,,,0.014892101287841797,0.03882646560668945,0.03882646560668945,0.03882646560668945,0.014683723449707031,64.60608243942261,1,[64.56567287445068],[64.56568646430969],0,,,[-60.0],[-483.0],[1],[0],[0],[64.59070086479187],['agree_button'],,,,,,,,,,,,,,,,,,,,,,,,,,,,,,,,,,,,,,,,,,,,,,,,,,,,,,,,,,,,,,,,,,,,,,,,,,,,,,,,,,,,,,,,,,,,,,,,,,,,,,,,,,,90,6,2025-02-24_11h00.21.329,comp,2024.2.4,57.859731359384426,2025-02-24 11h00.31.634141 -0500,
,,,,,,,,,,,,,,,,,,,,,,,,,,,,,,,,,,,,,,,,,,,,,,,,,,64.60645794868469,64.60649991035461,,,,,,,,,,,,,,,,,,,,,,,,,,,,,,,,,,,,,,,,,,,,,,,,,,,,,,,,,,,,,,,,,,,,,,,,,,,,,,,,,,,,,,,,,,,,,,,,,,,,,,,,,90,6,2025-02-24_11h00.21.329,comp,2024.2.4,57.859731359384426,2025-02-24 11h00.31.634141 -0500,
,,,,,,,,,,,,,,,,,,,,,,,,,,,,,,,,,,,,,,,,,,,,,,,,,,,,64.60653424263,64.62332391738892,66.60730290412903,,,,,,,,,,,,,,,,,,,,,,,,,,,,,,,,,,,,,,,,,,,,,,,,,,,,,,,,,,,,,,,,,,,,,,,,,,,,,,,,,,,,,,,,,,,,,,,,,,,,,,90,6,2025-02-24_11h00.21.329,comp,2024.2.4,57.859731359384426,2025-02-24 11h00.31.634141 -0500,
0,0,0,,,,,,,,,,,,,,,0,0,0,0,,,,,,,,,66.6235613822937,,,,,,,,,,,,,,,,,,,,,,,,,,66.60862684249878,66.6235613822937,66.6235613822937,68.10670614242554,72.24401044845581,space,4.121600389480591,None,72.24418902397156,72.2621579170227,72.2621579170227,73.75908088684082,78.94579434394836,space,5.173125505447388,None,78.94594621658325,78.97390151023865,78.97390151023865,78.97390151023865,78.97390151023865,78.97390151023865,78.97390151023865,78.97390151023865,78.97390151023865,78.97390151023865,80.46155261993408,100.12751460075378,space,19.646690368652344,None,100.12767314910889,100.14855813980103,100.14855813980103,100.14855813980103,101.6329607963562,109.4371109008789,space,7.787360668182373,None,109.43730592727661,109.4521734714508,109.4521734714508,110.95249271392822,112.03863096237183,space,1.0837843418121338,None,112.03883242607117,112.05426263809204,112.05426263809204,113.83836650848389,space,1.766394853591919,None,,,,,,,,,,,,,,,,,,,,,,,,,,,,,,,,,,,,,,,,,,,,,,,90,6,2025-02-24_11h00.21.329,comp,2024.2.4,57.859731359384426,2025-02-24 11h00.31.634141 -0500,
0,0,0,filler_random,None,None,None,None,None,None,None,None,None,None,3,2.0794970989227295,None,,,,,0,0,0,0,0,0,0,163,113.91678977012634,,,,,,,,,,,,,,,,,,,,,,,,,,,,,,,,,,,,,,,,,,,,,,,,,,,,,,,,,,,,,,,,,,,,,,,,,,,,,,,,,118.49866759132937,140.30171714388337,123.91306507203917,89.65912942547877,158.42513903682197,194.83299515055347,4.0,4.2,-211,4,0,-253,238,-5,113.9008400440216,113.90088844299316,113.90216088294983,113.91678977012634,114.0666298866272,114.0666298866272,114.0666298866272,114.0666298866272,114.0666298866272,114.0666298866272,114.0666298866272,116.01322174072266,3,2.0794970989227295,None,,,,,,,,,,,,,,,,,,90,6,2025-02-24_11h00.21.329,comp,2024.2.4,57.859731359384426,2025-02-24 11h00.31.634141 -0500,
1,1,0,critical,dhw,20.0,3.0,upper,141.0,141.0,200.0,125.0,125.0,200.0,3,13.104973077774048,None,,,,,0,0,0,0,0,1,1,57,116.02757334709167,,,,,,,,,,,,,,,,,,,,,,,,,,,,,,,,,,,,,,,,,,,,,,,,,,,,,,,,,,,,,,,,,,,,,,,,,,,,,,,,,141.0,141.0,200.0,125.0,125.0,200.0,3.0,3.2,-229,-283,0,-6,258,261,116.01465177536011,116.01472425460815,116.01737952232361,116.02757334709167,116.1735360622406,116.1735360622406,116.1735360622406,116.1735360622406,116.1735360622406,116.1735360622406,116.1735360622406,129.13472032546997,3,13.104973077774048,None,,,,,,,,,,,,,,,,,,90,6,2025-02-24_11h00.21.329,comp,2024.2.4,57.859731359384426,2025-02-24 11h00.31.634141 -0500,
2,2,0,critical,whd,35.0,1.0,upper,125.0,200.0,200.0,125.0,127.0,127.0,1,6.972561597824097,None,,,,,0,0,0,0,0,2,2,85,129.1524841785431,,,,,,,,,,,,,,,,,,,,,,,,,,,,,,,,,,,,,,,,,,,,,,,,,,,,,,,,,,,,,,,,,,,,,,,,,,,,,,,,,125.0,200.0,200.0,125.0,127.0,127.0,1.0,1.1,-738,286,-480,282,-258,257,129.13628005981445,129.13636136054993,129.13935470581055,129.1524841785431,129.29432678222656,129.29432678222656,129.29432678222656,129.29432678222656,129.29432678222656,129.29432678222656,129.29432678222656,136.1299431324005,1,6.972561597824097,None,,,,,,,,,,,,,,,,,,90,6,2025-02-24_11h00.21.329,comp,2024.2.4,57.859731359384426,2025-02-24 11h00.31.634141 -0500,
3,3,0,critical,wdh,35.0,2.1,lower,57.0,133.0,70.0,70.0,133.0,57.0,1,8.73032522201538,None,,,,,0,0,0,0,0,3,3,32,136.1465504169464,,,,,,,,,,,,,,,,,,,,,,,,,,,,,,,,,,,,,,,,,,,,,,,,,,,,,,,,,,,,,,,,,,,,,,,,,,,,,,,,,57.0,133.0,70.0,70.0,133.0,57.0,2.1,2.11,-198,253,0,288,160,-277,136.1314640045166,136.1315405368805,136.1349687576294,136.1465504169464,136.2949960231781,136.2949960231781,136.2949960231781,136.2949960231781,136.2949960231781,136.2949960231781,136.2949960231781,144.88159465789795,1,8.73032522201538,None,,,,,,,,,,,,,,,,,,90,6,2025-02-24_11h00.21.329,comp,2024.2.4,57.859731359384426,2025-02-24 11h00.31.634141 -0500,
4,4,0,critical,hdw,20.0,4.0,upper,200.0,125.0,141.0,141.0,125.0,200.0,3,6.186288833618164,None,,,,,0,0,0,0,0,4,4,119,144.89801502227783,,,,,,,,,,,,,,,,,,,,,,,,,,,,,,,,,,,,,,,,,,,,,,,,,,,,,,,,,,,,,,,,,,,,,,,,,,,,,,,,,200.0,125.0,141.0,141.0,125.0,200.0,4.0,4.2,-229,10,0,-288,266,-4,144.88302373886108,144.8831000328064,144.88649439811707,144.89801502227783,145.0494818687439,145.0494818687439,145.0494818687439,145.0494818687439,145.0494818687439,145.0494818687439,145.0494818687439,151.08654522895813,3,6.186288833618164,None,,,,,,,,,,,,,,,,,,90,6,2025-02-24_11h00.21.329,comp,2024.2.4,57.859731359384426,2025-02-24 11h00.31.634141 -0500,
5,5,0,filler_random,None,None,None,None,None,None,None,None,None,None,3,1.5021460056304932,None,,,,,0,0,0,0,0,5,5,157,151.10241532325745,,,,,,,,,,,,,,,,,,,,,,,,,,,,,,,,,,,,,,,,,,,,,,,,,,,,,,,,,,,,,,,,,,,,,,,,,,,,,,,,,198.80156432740722,97.84649056821684,94.65033532985393,62.03757837092071,190.56376338978433,135.7372782459206,3.0,3.2,-176,-257,0,3,195,279,151.08839321136475,151.0884747505188,151.09170269966125,151.10241532325745,151.25148057937622,151.25148057937622,151.25148057937622,151.25148057937622,151.25148057937622,151.25148057937622,151.25148057937622,152.62605476379395,3,1.5021460056304932,None,,,,,,,,,,,,,,,,,,90,6,2025-02-24_11h00.21.329,comp,2024.2.4,57.859731359384426,2025-02-24 11h00.31.634141 -0500,
6,6,0,critical,dwh,20.0,4.0,lower,78.0,78.0,57.0,133.0,133.0,57.0,2,19.72915530204773,None,,,,,0,0,0,0,0,6,6,70,152.6433732509613,,,,,,,,,,,,,,,,,,,,,,,,,,,,,,,,,,,,,,,,,,,,,,,,,,,,,,,,,,,,,,,,,,,,,,,,,,,,,,,,,78.0,78.0,57.0,133.0,133.0,57.0,4.0,4.2,-202,17,0,-268,191,15,152.62759065628052,152.62766861915588,152.63073229789734,152.6433732509613,152.78501534461975,152.78501534461975,152.78501534461975,152.78501534461975,152.78501534461975,152.78501534461975,152.78501534461975,172.37532114982605,2,19.72915530204773,None,,,,,,,,,,,,,,,,,,90,6,2025-02-24_11h00.21.329,comp,2024.2.4,57.859731359384426,2025-02-24 11h00.31.634141 -0500,
7,7,0,critical,whd,35.0,3.0,upper,125.0,200.0,200.0,125.0,127.0,127.0,1,8.11708927154541,None,,,,,0,0,0,0,0,7,7,87,172.39135575294495,,,,,,,,,,,,,,,,,,,,,,,,,,,,,,,,,,,,,,,,,,,,,,,,,,,,,,,,,,,,,,,,,,,,,,,,,,,,,,,,,125.0,200.0,200.0,125.0,127.0,127.0,3.0,3.1,-258,251,0,12,222,-288,172.37689089775085,172.37696981430054,172.38049054145813,172.39135575294495,172.54144287109375,172.54144287109375,172.54144287109375,172.54144287109375,172.54144287109375,172.54144287109375,172.54144287109375,180.5226809978485,1,8.11708927154541,None,,,,,,,,,,,,,,,,,,90,6,2025-02-24_11h00.21.329,comp,2024.2.4,57.859731359384426,2025-02-24 11h00.31.634141 -0500,
8,8,0,filler_random,None,None,None,None,None,None,None,None,None,None,2,2.151146173477173,None,,,,,0,0,0,0,0,8,8,141,180.54126834869385,,,,,,,,,,,,,,,,,,,,,,,,,,,,,,,,,,,,,,,,,,,,,,,,,,,,,,,,,,,,,,,,,,,,,,,,,,,,,,,,,101.44814032980716,81.13875403365086,186.0154383722638,190.0857652955871,159.885351241909,130.02760481299543,1.0,1.1,-712,279,-480,265,-224,281,180.52455973625183,180.52465391159058,180.52794003486633,180.54126834869385,180.68260860443115,180.68260860443115,180.68260860443115,180.68260860443115,180.68260860443115,180.68260860443115,180.68260860443115,182.6956012248993,2,2.151146173477173,None,,,,,,,,,,,,,,,,,,90,6,2025-02-24_11h00.21.329,comp,2024.2.4,57.859731359384426,2025-02-24 11h00.31.634141 -0500,
9,9,0,filler_square,None,None,None,None,None,None,None,None,None,None,3,2.540722370147705,None,,,,,0,0,0,0,0,9,9,207,182.71262311935425,,,,,,,,,,,,,,,,,,,,,,,,,,,,,,,,,,,,,,,,,,,,,,,,,,,,,,,,,,,,,,,,,,,,,,,,,,,,,,,,,90.1074207219699,110.17739888819357,87.17079685054975,86.15023221245106,138.2606999994315,138.2606999994315,4.0,4.1,-194,-256,0,12,208,-275,182.69761276245117,182.69769310951233,182.70148015022278,182.71262311935425,182.86326599121094,182.86326599121094,182.86326599121094,182.86326599121094,182.86326599121094,182.86326599121094,182.86326599121094,185.26187825202942,3,2.540722370147705,None,,,,,,,,,,,,,,,,,,90,6,2025-02-24_11h00.21.329,comp,2024.2.4,57.859731359384426,2025-02-24 11h00.31.634141 -0500,
10,10,0,filler_square,None,None,None,None,None,None,None,None,None,None,3,2.6142940521240234,None,,,,,0,0,0,0,0,10,10,192,185.2785165309906,,,,,,,,,,,,,,,,,,,,,,,,,,,,,,,,,,,,,,,,,,,,,,,,,,,,,,,,,,,,,,,,,,,,,,,,,,,,,,,,,58.093553240553796,93.7231087183937,82.48339708685911,76.14825537538786,105.17880147462526,105.17880147462526,3.0,3.2,-181,-252,0,-9,187,259,185.26390266418457,185.26397848129272,185.26762676239014,185.2785165309906,185.43009424209595,185.43009424209595,185.43009424209595,185.43009424209595,185.43009424209595,185.43009424209595,185.43009424209595,187.89504408836365,3,2.6142940521240234,None,,,,,,,,,,,,,,,,,,90,6,2025-02-24_11h00.21.329,comp,2024.2.4,57.859731359384426,2025-02-24 11h00.31.634141 -0500,
11,11,0,critical,dhw,20.0,1.0,upper,141.0,141.0,200.0,125.0,125.0,200.0,2,4.31696081161499,None,,,,,0,0,0,0,0,11,11,55,187.91160535812378,,,,,,,,,,,,,,,,,,,,,,,,,,,,,,,,,,,,,,,,,,,,,,,,,,,,,,,,,,,,,,,,,,,,,,,,,,,,,,,,,141.0,141.0,200.0,125.0,125.0,200.0,1.0,1.2,-229,18,0,-5,258,6,187.89654803276062,187.8966245651245,187.899799823761,187.91160535812378,188.0646891593933,188.0646891593933,188.0646891593933,188.0646891593933,188.0646891593933,188.0646891593933,188.0646891593933,192.2466971874237,2,4.31696081161499,None,,,,,,,,,,,,,,,,,,90,6,2025-02-24_11h00.21.329,comp,2024.2.4,57.859731359384426,2025-02-24 11h00.31.634141 -0500,
12,12,0,filler_square,None,None,None,None,None,None,None,None,None,None,1,2.6918506622314453,None,,,,,0,0,0,0,0,12,12,205,192.26684021949768,,,,,,,,,,,,,,,,,,,,,,,,,,,,,,,,,,,,,,,,,,,,,,,,,,,,,,,,,,,,,,,,,,,,,,,,,,,,,,,,,149.1391450654454,149.1391450654454,126.24644036314874,110.07253136604018,116.6226902466237,87.53424513793011,3.0,3.1,-226,261,0,-4,195,-258,192.24849700927734,192.24857711791992,192.25160908699036,192.26684021949768,192.41547179222107,192.41547179222107,192.41547179222107,192.41547179222107,192.41547179222107,192.41547179222107,192.41547179222107,194.9614999294281,1,2.6918506622314453,None,,,,,,,,,,,,,,,,,,90,6,2025-02-24_11h00.21.329,comp,2024.2.4,57.859731359384426,2025-02-24 11h00.31.634141 -0500,
13,13,0,critical,wdh,20.0,4.0,upper,125.0,200.0,141.0,141.0,200.0,125.0,1,3.705132246017456,None,,,,,0,0,0,0,0,13,13,83,194.978830575943,,,,,,,,,,,,,,,,,,,,,,,,,,,,,,,,,,,,,,,,,,,,,,,,,,,,,,,,,,,,,,,,,,,,,,,,,,,,,,,,,125.0,200.0,141.0,141.0,200.0,125.0,4.0,4.2,-266,-16,0,-284,229,7,194.9630753993988,194.9631953239441,194.96658444404602,194.978830575943,195.11843419075012,195.11843419075012,195.11843419075012,195.11843419075012,195.11843419075012,195.11843419075012,195.11843419075012,198.69788360595703,1,3.705132246017456,None,,,,,,,,,,,,,,,,,,90,6,2025-02-24_11h00.21.329,comp,2024.2.4,57.859731359384426,2025-02-24 11h00.31.634141 -0500,
14,14,0,critical,dhw,20.0,2.1,lower,78.0,78.0,133.0,57.0,57.0,133.0,3,11.019537210464478,None,,,,,0,0,0,0,0,14,14,2,198.71396350860596,,,,,,,,,,,,,,,,,,,,,,,,,,,,,,,,,,,,,,,,,,,,,,,,,,,,,,,,,,,,,,,,,,,,,,,,,,,,,,,,,78.0,78.0,133.0,57.0,57.0,133.0,2.1,2.12,-164,-286,0,-254,191,271,198.69832849502563,198.6983470916748,198.6991264820099,198.71396350860596,198.84943056106567,198.84943056106567,198.84943056106567,198.84943056106567,198.84943056106567,198.84943056106567,198.84943056106567,209.7395260334015,3,11.019537210464478,None,,,,,,,,,,,,,,,,,,90,6,2025-02-24_11h00.21.329,comp,2024.2.4,57.859731359384426,2025-02-24 11h00.31.634141 -0500,
15,15,0,critical,hwd,20.0,3.0,lower,133.0,57.0,57.0,133.0,78.0,78.0,2,4.55375337600708,None,,,,,0,0,0,0,0,15,15,104,209.7558536529541,,,,,,,,,,,,,,,,,,,,,,,,,,,,,,,,,,,,,,,,,,,,,,,,,,,,,,,,,,,,,,,,,,,,,,,,,,,,,,,,,133.0,57.0,57.0,133.0,78.0,78.0,3.0,3.2,-191,-253,0,-4,202,271,209.74155831336975,209.74171209335327,209.7448537349701,209.7558536529541,209.89557480812073,209.89557480812073,209.89557480812073,209.89557480812073,209.89557480812073,209.89557480812073,209.89557480812073,214.31218910217285,2,4.55375337600708,None,,,,,,,,,,,,,,,,,,90,6,2025-02-24_11h00.21.329,comp,2024.2.4,57.859731359384426,2025-02-24 11h00.31.634141 -0500,
16,16,0,filler_square,None,None,None,None,None,None,None,None,None,None,3,3.0925395488739014,None,,,,,0,0,0,0,0,16,16,179,214.32787609100342,,,,,,,,,,,,,,,,,,,,,,,,,,,,,,,,,,,,,,,,,,,,,,,,,,,,,,,,,,,,,,,,,,,,,,,,,,,,,,,,,57.12272813440804,108.68672006792602,105.9709714815798,85.79460193144342,111.0839711778222,111.0839711778222,3.0,3.1,-193,272,0,-5,194,-283,214.31398630142212,214.31406331062317,214.31709146499634,214.32787609100342,214.47023224830627,214.47023224830627,214.47023224830627,214.47023224830627,214.47023224830627,214.47023224830627,214.47023224830627,217.43787479400635,3,3.0925395488739014,None,,,,,,,,,,,,,,,,,,90,6,2025-02-24_11h00.21.329,comp,2024.2.4,57.859731359384426,2025-02-24 11h00.31.634141 -0500,
17,17,0,critical,hwd,20.0,2.1,lower,133.0,57.0,57.0,133.0,78.0,78.0,2,4.4466938972473145,None,,,,,0,0,0,0,0,17,17,18,217.4540672302246,,,,,,,,,,,,,,,,,,,,,,,,,,,,,,,,,,,,,,,,,,,,,,,,,,,,,,,,,,,,,,,,,,,,,,,,,,,,,,,,,133.0,57.0,57.0,133.0,78.0,78.0,2.1,2.12,-191,-289,0,-261,202,266,217.43939185142517,217.43947291374207,217.44280076026917,217.4540672302246,217.59636688232422,217.59636688232422,217.59636688232422,217.59636688232422,217.59636688232422,217.59636688232422,217.59636688232422,221.9055790901184,2,4.4466938972473145,None,,,,,,,,,,,,,,,,,,90,6,2025-02-24_11h00.21.329,comp,2024.2.4,57.859731359384426,2025-02-24 11h00.31.634141 -0500,
18,18,0,critical,dwh,35.0,2.1,lower,70.0,70.0,57.0,133.0,133.0,57.0,2,11.618038415908813,None,,,,,0,0,0,0,0,18,18,28,221.92259812355042,,,,,,,,,,,,,,,,,,,,,,,,,,,,,,,,,,,,,,,,,,,,,,,,,,,,,,,,,,,,,,,,,,,,,,,,,,,,,,,,,70.0,70.0,57.0,133.0,133.0,57.0,2.1,2.12,-198,-281,0,-280,191,279,221.9071695804596,221.90725088119507,221.91091132164001,221.92259812355042,222.0733766555786,222.0733766555786,222.0733766555786,222.0733766555786,222.0733766555786,222.0733766555786,222.0733766555786,233.55917811393738,2,11.618038415908813,None,,,,,,,,,,,,,,,,,,90,6,2025-02-24_11h00.21.329,comp,2024.2.4,57.859731359384426,2025-02-24 11h00.31.634141 -0500,
19,19,0,critical,hdw,20.0,2.1,upper,200.0,125.0,141.0,141.0,125.0,200.0,1,8.518021583557129,None,,,,,0,0,0,0,0,19,19,23,233.57519388198853,,,,,,,,,,,,,,,,,,,,,,,,,,,,,,,,,,,,,,,,,,,,,,,,,,,,,,,,,,,,,,,,,,,,,,,,,,,,,,,,,200.0,125.0,141.0,141.0,125.0,200.0,2.1,2.12,-229,-283,0,-275,266,283,233.56063866615295,233.56071496009827,233.5638885498047,233.57519388198853,233.7301619052887,233.7301619052887,233.7301619052887,233.7301619052887,233.7301619052887,233.7301619052887,233.7301619052887,242.0998010635376,1,8.518021583557129,None,,,,,,,,,,,,,,,,,,90,6,2025-02-24_11h00.21.329,comp,2024.2.4,57.859731359384426,2025-02-24 11h00.31.634141 -0500,
20,20,0,critical,hdw,20.0,1.0,upper,200.0,125.0,141.0,141.0,125.0,200.0,1,4.640329122543335,None,,,,,0,0,0,0,0,20,20,115,242.11760544776917,,,,,,,,,,,,,,,,,,,,,,,,,,,,,,,,,,,,,,,,,,,,,,,,,,,,,,,,,,,,,,,,,,,,,,,,,,,,,,,,,200.0,125.0,141.0,141.0,125.0,200.0,1.0,1.1,-709,272,-480,265,-214,280,242.10144591331482,242.10152745246887,242.1045470237732,242.11760544776917,242.2635989189148,242.2635989189148,242.2635989189148,242.2635989189148,242.2635989189148,242.2635989189148,242.2635989189148,246.76736402511597,1,4.640329122543335,None,,,,,,,,,,,,,,,,,,90,6,2025-02-24_11h00.21.329,comp,2024.2.4,57.859731359384426,2025-02-24 11h00.31.634141 -0500,
21,21,0,critical,hdw,35.0,3.0,lower,133.0,57.0,70.0,70.0,57.0,133.0,3,18.570493936538696,None,,,,,0,0,0,0,0,21,21,110,246.7860803604126,,,,,,,,,,,,,,,,,,,,,,,,,,,,,,,,,,,,,,,,,,,,,,,,,,,,,,,,,,,,,,,,,,,,,,,,,,,,,,,,,133.0,57.0,70.0,70.0,57.0,133.0,3.0,3.1,-160,279,0,-4,198,-263,246.76896333694458,246.76904201507568,246.7724871635437,246.7860803604126,246.94012713432312,246.94012713432312,246.94012713432312,246.94012713432312,246.94012713432312,246.94012713432312,246.94012713432312,265.3701243400574,3,18.570493936538696,None,,,,,,,,,,,,,,,,,,90,6,2025-02-24_11h00.21.329,comp,2024.2.4,57.859731359384426,2025-02-24 11h00.31.634141 -0500,
22,22,0,critical,dwh,35.0,4.0,upper,127.0,127.0,125.0,200.0,200.0,125.0,3,1.7786269187927246,None,,,,,0,0,0,0,0,22,22,65,265.38579058647156,,,,,,,,,,,,,,,,,,,,,,,,,,,,,,,,,,,,,,,,,,,,,,,,,,,,,,,,,,,,,,,,,,,,,,,,,,,,,,,,,127.0,127.0,125.0,200.0,200.0,125.0,4.0,4.1,-260,-257,0,-11,258,-258,265.3716559410095,265.37173533439636,265.37525272369385,265.38579058647156,265.5358829498291,265.5358829498291,265.5358829498291,265.5358829498291,265.5358829498291,265.5358829498291,265.5358829498291,267.1762454509735,3,1.7786269187927246,None,,,,,,,,,,,,,,,,,,90,6,2025-02-24_11h00.21.329,comp,2024.2.4,57.859731359384426,2025-02-24 11h00.31.634141 -0500,
23,23,0,critical,whd,35.0,2.1,lower,57.0,133.0,133.0,57.0,70.0,70.0,2,3.403160572052002,None,,,,,0,0,0,0,0,23,23,12,267.1938965320587,,,,,,,,,,,,,,,,,,,,,,,,,,,,,,,,,,,,,,,,,,,,,,,,,,,,,,,,,,,,,,,,,,,,,,,,,,,,,,,,,57.0,133.0,133.0,57.0,70.0,70.0,2.1,2.12,-191,-289,0,-255,160,260,267.17778730392456,267.1778635978699,267.1808235645294,267.1938965320587,267.33712887763977,267.33712887763977,267.33712887763977,267.33712887763977,267.33712887763977,267.33712887763977,267.33712887763977,270.60202860832214,2,3.403160572052002,None,,,,,,,,,,,,,,,,,,90,6,2025-02-24_11h00.21.329,comp,2024.2.4,57.859731359384426,2025-02-24 11h00.31.634141 -0500,
24,24,0,critical,dwh,20.0,2.1,lower,78.0,78.0,57.0,133.0,133.0,57.0,3,6.95381760597229,None,,,,,0,0,0,0,0,24,24,6,270.6193211078644,,,,,,,,,,,,,,,,,,,,,,,,,,,,,,,,,,,,,,,,,,,,,,,,,,,,,,,,,,,,,,,,,,,,,,,,,,,,,,,,,78.0,78.0,57.0,133.0,133.0,57.0,2.1,2.12,-202,-260,0,-288,191,271,270.60358238220215,270.6036603450775,270.60662508010864,270.6193211078644,270.7562749385834,270.7562749385834,270.7562749385834,270.7562749385834,270.7562749385834,270.7562749385834,270.7562749385834,277.58154225349426,3,6.95381760597229,None,,,,,,,,,,,,,,,,,,90,6,2025-02-24_11h00.21.329,comp,2024.2.4,57.859731359384426,2025-02-24 11h00.31.634141 -0500,
25,25,0,filler_square,None,None,None,None,None,None,None,None,None,None,1,1.174361228942871,None,,,,,0,0,0,0,0,25,25,173,277.59810066223145,,,,,,,,,,,,,,,,,,,,,,,,,,,,,,,,,,,,,,,,,,,,,,,,,,,,,,,,,,,,,,,,,,,,,,,,,,,,,,,,,115.41551739131447,115.41551739131447,85.1152840934004,72.96813512148836,76.9405210387047,68.17945446909891,1.0,1.2,-190,-17,0,0,167,12,277.5833389759064,277.5834205150604,277.58644795417786,277.59810066223145,277.74438214302063,277.74438214302063,277.74438214302063,277.74438214302063,277.74438214302063,277.74438214302063,277.74438214302063,278.7753493785858,1,1.174361228942871,None,,,,,,,,,,,,,,,,,,90,6,2025-02-24_11h00.21.329,comp,2024.2.4,57.859731359384426,2025-02-24 11h00.31.634141 -0500,
26,26,0,critical,hwd,20.0,2.1,upper,200.0,125.0,125.0,200.0,141.0,141.0,1,5.357231616973877,None,,,,,0,0,0,0,0,26,26,43,278.7916226387024,,,,,,,,,,,,,,,,,,,,,,,,,,,,,,,,,,,,,,,,,,,,,,,,,,,,,,,,,,,,,,,,,,,,,,,,,,,,,,,,,200.0,125.0,125.0,200.0,141.0,141.0,2.1,2.12,-258,-283,0,-261,266,281,278.776878118515,278.77695512771606,278.78018069267273,278.7916226387024,278.94199991226196,278.94199991226196,278.94199991226196,278.94199991226196,278.94199991226196,278.94199991226196,278.94199991226196,284.1604027748108,1,5.357231616973877,None,,,,,,,,,,,,,,,,,,90,6,2025-02-24_11h00.21.329,comp,2024.2.4,57.859731359384426,2025-02-24 11h00.31.634141 -0500,
27,27,0,catch,None,None,None,None,None,None,None,None,None,None,2,1.1951963901519775,None,,,,,0,0,0,0,0,27,27,128,284.1773726940155,,,,,,,,,,,,,,,,,,,,,,,,,,,,,,,,,,,,,,,,,,,,,,,,,,,,,,,,,,,,,,,,,,,,,,,,,,,,,,,,,61,129,139,186,73,117,2.1,2.11,-254,254,0,275,248,-273,284.1624593734741,284.1625397205353,284.16599798202515,284.1773726940155,284.3269646167755,284.3269646167755,284.3269646167755,284.3269646167755,284.3269646167755,284.3269646167755,284.3269646167755,285.3764908313751,2,1.1951963901519775,None,,,,,,,,,,,,,,,,,,90,6,2025-02-24_11h00.21.329,comp,2024.2.4,57.859731359384426,2025-02-24 11h00.31.634141 -0500,
28,28,0,critical,wdh,35.0,3.0,lower,57.0,133.0,70.0,70.0,133.0,57.0,3,3.478020191192627,None,,,,,0,0,0,0,0,28,28,74,285.39243745803833,,,,,,,,,,,,,,,,,,,,,,,,,,,,,,,,,,,,,,,,,,,,,,,,,,,,,,,,,,,,,,,,,,,,,,,,,,,,,,,,,57.0,133.0,70.0,70.0,133.0,57.0,3.0,3.1,-198,261,0,-4,160,-258,285.377947807312,285.3780243396759,285.38161444664,285.39243745803833,285.53337478637695,285.53337478637695,285.53337478637695,285.53337478637695,285.53337478637695,285.53337478637695,285.53337478637695,288.8765559196472,3,3.478020191192627,None,,,,,,,,,,,,,,,,,,90,6,2025-02-24_11h00.21.329,comp,2024.2.4,57.859731359384426,2025-02-24 11h00.31.634141 -0500,
29,29,0,critical,wdh,35.0,1.0,upper,125.0,200.0,127.0,127.0,200.0,125.0,3,5.336383104324341,None,,,,,0,0,0,0,0,29,29,73,288.8921585083008,,,,,,,,,,,,,,,,,,,,,,,,,,,,,,,,,,,,,,,,,,,,,,,,,,,,,,,,,,,,,,,,,,,,,,,,,,,,,,,,,125.0,200.0,127.0,127.0,200.0,125.0,1.0,1.2,-260,8,0,-9,222,6,288.8779742717743,288.8780515193939,288.88117694854736,288.8921585083008,289.04262256622314,289.04262256622314,289.04262256622314,289.04262256622314,289.04262256622314,289.04262256622314,289.04262256622314,294.25006079673767,3,5.336383104324341,None,,,,,,,,,,,,,,,,,,90,6,2025-02-24_11h00.21.329,comp,2024.2.4,57.859731359384426,2025-02-24 11h00.31.634141 -0500,
30,30,0,critical,hwd,35.0,2.1,lower,133.0,57.0,57.0,133.0,70.0,70.0,2,11.40685486793518,None,,,,,0,0,0,0,0,30,30,16,294.27055263519287,,,,,,,,,,,,,,,,,,,,,,,,,,,,,,,,,,,,,,,,,,,,,,,,,,,,,,,,,,,,,,,,,,,,,,,,,,,,,,,,,133.0,57.0,57.0,133.0,70.0,70.0,2.1,2.11,-191,273,0,261,198,-276,294.25188541412354,294.25201749801636,294.2553207874298,294.27055263519287,294.41256046295166,294.41256046295166,294.41256046295166,294.41256046295166,294.41256046295166,294.41256046295166,294.41256046295166,305.6832277774811,2,11.40685486793518,None,,,,,,,,,,,,,,,,,,90,6,2025-02-24_11h00.21.329,comp,2024.2.4,57.859731359384426,2025-02-24 11h00.31.634141 -0500,
31,31,0,critical,whd,20.0,2.1,upper,125.0,200.0,200.0,125.0,141.0,141.0,1,3.9917984008789062,None,,,,,0,0,0,0,0,31,31,39,305.70071506500244,,,,,,,,,,,,,,,,,,,,,,,,,,,,,,,,,,,,,,,,,,,,,,,,,,,,,,,,,,,,,,,,,,,,,,,,,,,,,,,,,125.0,200.0,200.0,125.0,141.0,141.0,2.1,2.12,-258,-285,0,-268,229,269,305.68482422828674,305.6849482059479,305.68916177749634,305.70071506500244,305.8464353084564,305.8464353084564,305.8464353084564,305.8464353084564,305.8464353084564,305.8464353084564,305.8464353084564,309.7050986289978,1,3.9917984008789062,None,,,,,,,,,,,,,,,,,,90,6,2025-02-24_11h00.21.329,comp,2024.2.4,57.859731359384426,2025-02-24 11h00.31.634141 -0500,
32,32,0,critical,whd,35.0,3.0,lower,57.0,133.0,133.0,57.0,70.0,70.0,2,20.987568140029907,None,,,,,0,0,0,0,0,32,32,86,309.72093296051025,,,,,,,,,,,,,,,,,,,,,,,,,,,,,,,,,,,,,,,,,,,,,,,,,,,,,,,,,,,,,,,,,,,,,,,,,,,,,,,,,57.0,133.0,133.0,57.0,70.0,70.0,3.0,3.2,-191,-282,0,-14,160,259,309.70665764808655,309.70673537254333,309.7101855278015,309.72093296051025,309.8675014972687,309.8675014972687,309.8675014972687,309.8675014972687,309.8675014972687,309.8675014972687,309.8675014972687,330.7247083187103,2,20.987568140029907,None,,,,,,,,,,,,,,,,,,90,6,2025-02-24_11h00.21.329,comp,2024.2.4,57.859731359384426,2025-02-24 11h00.31.634141 -0500,
33,33,0,filler_square,None,None,None,None,None,None,None,None,None,None,1,3.4791507720947266,None,,,,,0,0,0,0,0,33,33,170,330.741783618927,,,,,,,,,,,,,,,,,,,,,,,,,,,,,,,,,,,,,,,,,,,,,,,,,,,,,,,,,,,,,,,,,,,,,,,,,,,,,,,,,131.30330062937853,131.30330062937853,77.31076230366534,100.12006902462977,112.86685796739158,91.83806959322672,2.2,2.22,-212,286,0,-273,192,-276,330.7266330718994,330.726763010025,330.73011207580566,330.741783618927,330.8897385597229,330.8897385597229,330.8897385597229,330.8897385597229,330.8897385597229,330.8897385597229,330.8897385597229,334.2314291000366,1,3.4791507720947266,None,,,,,,,,,,,,,,,,,,90,6,2025-02-24_11h00.21.329,comp,2024.2.4,57.859731359384426,2025-02-24 11h00.31.634141 -0500,
34,34,0,critical,dwh,20.0,2.1,upper,141.0,141.0,125.0,200.0,200.0,125.0,3,3.242509603500366,None,,,,,0,0,0,0,0,34,34,31,334.250928401947,,,,,,,,,,,,,,,,,,,,,,,,,,,,,,,,,,,,,,,,,,,,,,,,,,,,,,,,,,,,,,,,,,,,,,,,,,,,,,,,,141.0,141.0,125.0,200.0,200.0,125.0,2.1,2.12,-266,-273,0,-258,258,287,334.23289227485657,334.2329692840576,334.2360074520111,334.250928401947,334.391884803772,334.391884803772,334.391884803772,334.391884803772,334.391884803772,334.391884803772,334.391884803772,337.49838376045227,3,3.242509603500366,None,,,,,,,,,,,,,,,,,,90,6,2025-02-24_11h00.21.329,comp,2024.2.4,57.859731359384426,2025-02-24 11h00.31.634141 -0500,
35,35,0,critical,dwh,20.0,1.0,upper,141.0,141.0,125.0,200.0,200.0,125.0,2,6.011767864227295,None,,,,,0,0,0,0,0,35,35,67,337.5137314796448,,,,,,,,,,,,,,,,,,,,,,,,,,,,,,,,,,,,,,,,,,,,,,,,,,,,,,,,,,,,,,,,,,,,,,,,,,,,,,,,,141.0,141.0,125.0,200.0,200.0,125.0,1.0,1.1,-746,263,-480,256,-222,259,337.49993109703064,337.5000081062317,337.50296449661255,337.5137314796448,337.65976643562317,337.65976643562317,337.65976643562317,337.65976643562317,337.65976643562317,337.65976643562317,337.65976643562317,343.53163957595825,2,6.011767864227295,None,,,,,,,,,,,,,,,,,,90,6,2025-02-24_11h00.21.329,comp,2024.2.4,57.859731359384426,2025-02-24 11h00.31.634141 -0500,
36,36,0,critical,dhw,20.0,1.0,lower,78.0,78.0,133.0,57.0,57.0,133.0,2,4.120872497558594,None,,,,,0,0,0,0,0,36,36,54,343.5479037761688,,,,,,,,,,,,,,,,,,,,,,,,,,,,,,,,,,,,,,,,,,,,,,,,,,,,,,,,,,,,,,,,,,,,,,,,,,,,,,,,,78.0,78.0,133.0,57.0,57.0,133.0,1.0,1.1,-644,257,-480,266,-289,254,343.5332262516022,343.53330731391907,343.53637862205505,343.5479037761688,343.69535660743713,343.69535660743713,343.69535660743713,343.69535660743713,343.69535660743713,343.69535660743713,343.69535660743713,347.6782350540161,2,4.120872497558594,None,,,,,,,,,,,,,,,,,,90,6,2025-02-24_11h00.21.329,comp,2024.2.4,57.859731359384426,2025-02-24 11h00.31.634141 -0500,
37,37,0,filler_random,None,None,None,None,None,None,None,None,None,None,2,11.526071071624756,None,,,,,0,0,0,0,0,37,37,155,347.6947886943817,,,,,,,,,,,,,,,,,,,,,,,,,,,,,,,,,,,,,,,,,,,,,,,,,,,,,,,,,,,,,,,,,,,,,,,,,,,,,,,,,77.87235854875158,163.07673142441922,167.08144636624132,79.13081514293232,74.89689688385658,187.7265876834946,2.2,2.22,-217,279,0,-290,229,-256,347.67989587783813,347.67997431755066,347.6831729412079,347.6947886943817,347.8346652984619,347.8346652984619,347.8346652984619,347.8346652984619,347.8346652984619,347.8346652984619,347.8346652984619,359.24100136756897,2,11.526071071624756,None,,,,,,,,,,,,,,,,,,90,6,2025-02-24_11h00.21.329,comp,2024.2.4,57.859731359384426,2025-02-24 11h00.31.634141 -0500,
38,38,0,filler_square,None,None,None,None,None,None,None,None,None,None,1,2.130403757095337,None,,,,,0,0,0,0,0,38,38,175,359.2586131095886,,,,,,,,,,,,,,,,,,,,,,,,,,,,,,,,,,,,,,,,,,,,,,,,,,,,,,,,,,,,,,,,,,,,,,,,,,,,,,,,,172.64514040312585,172.64514040312585,99.11630925196499,72.57226409257377,68.33441164238916,114.91722024056617,4.0,4.2,-219,-14,0,-280,190,-10,359.2427990436554,359.24287581443787,359.2458987236023,359.2586131095886,359.39879059791565,359.39879059791565,359.39879059791565,359.39879059791565,359.39879059791565,359.39879059791565,359.39879059791565,361.39562487602234,1,2.130403757095337,None,,,,,,,,,,,,,,,,,,90,6,2025-02-24_11h00.21.329,comp,2024.2.4,57.859731359384426,2025-02-24 11h00.31.634141 -0500,
39,39,0,critical,hdw,20.0,1.0,lower,133.0,57.0,78.0,78.0,57.0,133.0,3,16.64738893508911,None,,,,,0,0,0,0,0,39,39,114,361.4142744541168,,,,,,,,,,,,,,,,,,,,,,,,,,,,,,,,,,,,,,,,,,,,,,,,,,,,,,,,,,,,,,,,,,,,,,,,,,,,,,,,,133.0,57.0,78.0,78.0,57.0,133.0,1.0,1.2,-164,-6,0,15,202,14,361.3972771167755,361.3973515033722,361.4007887840271,361.4142744541168,361.55111289024353,361.55111289024353,361.55111289024353,361.55111289024353,361.55111289024353,361.55111289024353,361.55111289024353,378.0710406303406,3,16.64738893508911,None,,,,,,,,,,,,,,,,,,90,6,2025-02-24_11h00.21.329,comp,2024.2.4,57.859731359384426,2025-02-24 11h00.31.634141 -0500,
40,40,0,critical,dhw,20.0,3.0,lower,78.0,78.0,133.0,57.0,57.0,133.0,3,8.37123966217041,None,,,,,0,0,0,0,0,40,40,56,378.08954763412476,,,,,,,,,,,,,,,,,,,,,,,,,,,,,,,,,,,,,,,,,,,,,,,,,,,,,,,,,,,,,,,,,,,,,,,,,,,,,,,,,78.0,78.0,133.0,57.0,57.0,133.0,3.0,3.2,-164,-263,0,-19,191,283,378.0726339817047,378.07271099090576,378.0761046409607,378.08954763412476,378.23986053466797,378.23986053466797,378.23986053466797,378.23986053466797,378.23986053466797,378.23986053466797,378.23986053466797,386.47561717033386,3,8.37123966217041,None,,,,,,,,,,,,,,,,,,90,6,2025-02-24_11h00.21.329,comp,2024.2.4,57.859731359384426,2025-02-24 11h00.31.634141 -0500,
41,41,0,filler_random,None,None,None,None,None,None,None,None,None,None,1,1.6816110610961914,None,,,,,0,0,0,0,0,41,41,165,386.49091935157776,,,,,,,,,,,,,,,,,,,,,,,,,,,,,,,,,,,,,,,,,,,,,,,,,,,,,,,,,,,,,,,,,,,,,,,,,,,,,,,,,197.86851424683005,172.7189173355969,97.53801389243111,87.10970023552514,156.0396259715547,75.7997776805654,4.0,4.2,-226,-3,0,-267,177,-14,386.4773540496826,386.47743558883667,386.4806797504425,386.49091935157776,386.6395890712738,386.6395890712738,386.6395890712738,386.6395890712738,386.6395890712738,386.6395890712738,386.6395890712738,388.18673157691956,1,1.6816110610961914,None,,,,,,,,,,,,,,,,,,90,6,2025-02-24_11h00.21.329,comp,2024.2.4,57.859731359384426,2025-02-24 11h00.31.634141 -0500,
42,42,0,filler_random,None,None,None,None,None,None,None,None,None,None,3,2.1026980876922607,None,,,,,0,0,0,0,0,42,42,154,388.2058837413788,,,,,,,,,,,,,,,,,,,,,,,,,,,,,,,,,,,,,,,,,,,,,,,,,,,,,,,,,,,,,,,,,,,,,,,,,,,,,,,,,193.33575942388342,65.83507651817777,61.41471218494432,148.22889935906795,151.9532875139239,156.96474263491115,1.0,1.1,-683,286,-480,277,-231,290,388.1884980201721,388.18861865997314,388.19192361831665,388.2058837413788,388.34907746315,388.34907746315,388.34907746315,388.34907746315,388.34907746315,388.34907746315,388.34907746315,390.3254680633545,3,2.1026980876922607,None,,,,,,,,,,,,,,,,,,90,6,2025-02-24_11h00.21.329,comp,2024.2.4,57.859731359384426,2025-02-24 11h00.31.634141 -0500,
43,43,0,catch,None,None,None,None,None,None,None,None,None,None,1,1.5994560718536377,None,,,,,0,0,0,0,0,43,43,120,390.34181237220764,,,,,,,,,,,,,,,,,,,,,,,,,,,,,,,,,,,,,,,,,,,,,,,,,,,,,,,,,,,,,,,,,,,,,,,,,,,,,,,,,149,176,73,117,120,70,4.0,4.2,-242,-4,0,-268,190,8,390.3273055553436,390.3273823261261,390.33057928085327,390.34181237220764,390.49586057662964,390.49586057662964,390.49586057662964,390.49586057662964,390.49586057662964,390.49586057662964,390.49586057662964,391.9452271461487,1,1.5994560718536377,None,,,,,,,,,,,,,,,,,,90,6,2025-02-24_11h00.21.329,comp,2024.2.4,57.859731359384426,2025-02-24 11h00.31.634141 -0500,
44,44,0,critical,whd,20.0,3.0,lower,57.0,133.0,133.0,57.0,78.0,78.0,2,4.612484931945801,None,,,,,0,0,0,0,0,44,44,92,391.9611883163452,,,,,,,,,,,,,,,,,,,,,,,,,,,,,,,,,,,,,,,,,,,,,,,,,,,,,,,,,,,,,,,,,,,,,,,,,,,,,,,,,57.0,133.0,133.0,57.0,78.0,78.0,3.0,3.1,-191,267,0,-13,164,-254,391.9469187259674,391.9470000267029,391.95020961761475,391.9611883163452,392.1105399131775,392.1105399131775,392.1105399131775,392.1105399131775,392.1105399131775,392.1105399131775,392.1105399131775,396.57793283462524,2,4.612484931945801,None,,,,,,,,,,,,,,,,,,90,6,2025-02-24_11h00.21.329,comp,2024.2.4,57.859731359384426,2025-02-24 11h00.31.634141 -0500,
45,45,0,critical,whd,35.0,2.1,lower,57.0,133.0,133.0,57.0,70.0,70.0,1,5.898744583129883,None,,,,,0,0,0,0,0,45,45,36,396.5940020084381,,,,,,,,,,,,,,,,,,,,,,,,,,,,,,,,,,,,,,,,,,,,,,,,,,,,,,,,,,,,,,,,,,,,,,,,,,,,,,,,,57.0,133.0,133.0,57.0,70.0,70.0,2.1,2.11,-191,260,0,283,160,-257,396.57951378822327,396.5795884132385,396.5831243991852,396.5940020084381,396.7446496486664,396.7446496486664,396.7446496486664,396.7446496486664,396.7446496486664,396.7446496486664,396.7446496486664,402.49632716178894,1,5.898744583129883,None,,,,,,,,,,,,,,,,,,90,6,2025-02-24_11h00.21.329,comp,2024.2.4,57.859731359384426,2025-02-24 11h00.31.634141 -0500,
46,46,0,filler_square,None,None,None,None,None,None,None,None,None,None,1,2.329463243484497,None,,,,,0,0,0,0,0,46,46,195,402.52311420440674,,,,,,,,,,,,,,,,,,,,,,,,,,,,,,,,,,,,,,,,,,,,,,,,,,,,,,,,,,,,,,,,,,,,,,,,,,,,,,,,,98.88258105323362,98.88258105323362,83.0991096255373,97.88353736995063,66.40551503608222,81.06629899843155,4.0,4.1,-194,-282,0,5,185,-266,402.4982662200928,402.49834656715393,402.50174593925476,402.52311420440674,402.6644558906555,402.6644558906555,402.6644558906555,402.6644558906555,402.6644558906555,402.6644558906555,402.6644558906555,404.8666663169861,1,2.329463243484497,None,,,,,,,,,,,,,,,,,,90,6,2025-02-24_11h00.21.329,comp,2024.2.4,57.859731359384426,2025-02-24 11h00.31.634141 -0500,
47,47,0,filler_square,None,None,None,None,None,None,None,None,None,None,1,2.2619898319244385,None,,,,,0,0,0,0,0,47,47,206,404.88650822639465,,,,,,,,,,,,,,,,,,,,,,,,,,,,,,,,,,,,,,,,,,,,,,,,,,,,,,,,,,,,,,,,,,,,,,,,,,,,,,,,,185.25335352791734,185.25335352791734,176.134063179196,72.19308637709425,133.44676777422498,169.48254076147134,2.2,2.21,-225,-254,0,265,217,274,404.8686912059784,404.8687677383423,404.8724386692047,404.88650822639465,405.03674030303955,405.03674030303955,405.03674030303955,405.03674030303955,405.03674030303955,405.03674030303955,405.03674030303955,407.1655879020691,1,2.2619898319244385,None,,,,,,,,,,,,,,,,,,90,6,2025-02-24_11h00.21.329,comp,2024.2.4,57.859731359384426,2025-02-24 11h00.31.634141 -0500,
48,48,0,filler_square,None,None,None,None,None,None,None,None,None,None,2,1.2125351428985596,None,,,,,0,0,0,0,0,48,48,172,407.18424248695374,,,,,,,,,,,,,,,,,,,,,,,,,,,,,,,,,,,,,,,,,,,,,,,,,,,,,,,,,,,,,,,,,,,,,,,,,,,,,,,,,146.5332500167455,75.70105970059477,180.38738768463423,180.38738768463423,71.08195359528591,176.07962522180517,2.2,2.21,-224,-266,0,289,274,286,407.16743683815,407.1675443649292,407.17094016075134,407.18424248695374,407.3322148323059,407.3322148323059,407.3322148323059,407.3322148323059,407.3322148323059,407.3322148323059,407.3322148323059,408.4014914035797,2,1.2125351428985596,None,,,,,,,,,,,,,,,,,,90,6,2025-02-24_11h00.21.329,comp,2024.2.4,57.859731359384426,2025-02-24 11h00.31.634141 -0500,
49,49,0,filler_square,None,None,None,None,None,None,None,None,None,None,2,1.0756902694702148,None,,,,,0,0,0,0,0,49,49,197,408.4176232814789,,,,,,,,,,,,,,,,,,,,,,,,,,,,,,,,,,,,,,,,,,,,,,,,,,,,,,,,,,,,,,,,,,,,,,,,,,,,,,,,,128.7932583225982,127.7454621802426,139.65962368149758,139.65962368149758,119.53036379463381,77.9416594709161,2.2,2.22,-230,255,0,-261,205,-270,408.4033570289612,408.403457403183,408.40683364868164,408.4176232814789,408.56533122062683,408.56533122062683,408.56533122062683,408.56533122062683,408.56533122062683,408.56533122062683,408.56533122062683,409.49724292755127,2,1.0756902694702148,None,,,,,,,,,,,,,,,,,,90,6,2025-02-24_11h00.21.329,comp,2024.2.4,57.859731359384426,2025-02-24 11h00.31.634141 -0500,
50,50,0,critical,hdw,20.0,2.1,lower,133.0,57.0,78.0,78.0,57.0,133.0,3,6.844025135040283,None,,,,,0,0,0,0,0,50,50,22,409.5136716365814,,,,,,,,,,,,,,,,,,,,,,,,,,,,,,,,,,,,,,,,,,,,,,,,,,,,,,,,,,,,,,,,,,,,,,,,,,,,,,,,,133.0,57.0,78.0,78.0,57.0,133.0,2.1,2.12,-164,-255,0,-252,202,260,409.49871730804443,409.49879360198975,409.5019187927246,409.5136716365814,409.65322375297546,409.65322375297546,409.65322375297546,409.65322375297546,409.65322375297546,409.65322375297546,409.65322375297546,416.36806440353394,3,6.844025135040283,None,,,,,,,,,,,,,,,,,,90,6,2025-02-24_11h00.21.329,comp,2024.2.4,57.859731359384426,2025-02-24 11h00.31.634141 -0500,
51,51,0,critical,dwh,35.0,2.1,lower,70.0,70.0,57.0,133.0,133.0,57.0,3,3.7719781398773193,None,,,,,0,0,0,0,0,51,51,4,416.3846206665039,,,,,,,,,,,,,,,,,,,,,,,,,,,,,,,,,,,,,,,,,,,,,,,,,,,,,,,,,,,,,,,,,,,,,,,,,,,,,,,,,70.0,70.0,57.0,133.0,133.0,57.0,2.1,2.11,-198,251,0,251,191,-274,416.36960911750793,416.3696930408478,416.37385630607605,416.3846206665039,416.53265261650085,416.53265261650085,416.53265261650085,416.53265261650085,416.53265261650085,416.53265261650085,416.53265261650085,420.1764657497406,3,3.7719781398773193,None,,,,,,,,,,,,,,,,,,90,6,2025-02-24_11h00.21.329,comp,2024.2.4,57.859731359384426,2025-02-24 11h00.31.634141 -0500,
52,52,0,critical,dhw,20.0,2.1,upper,141.0,141.0,200.0,125.0,125.0,200.0,3,8.738332986831665,None,,,,,0,0,0,0,0,52,52,27,420.19495844841003,,,,,,,,,,,,,,,,,,,,,,,,,,,,,,,,,,,,,,,,,,,,,,,,,,,,,,,,,,,,,,,,,,,,,,,,,,,,,,,,,141.0,141.0,200.0,125.0,125.0,200.0,2.1,2.11,-229,256,0,253,258,-279,420.17812514305115,420.1782388687134,420.1816637516022,420.19495844841003,420.33623337745667,420.33623337745667,420.33623337745667,420.33623337745667,420.33623337745667,420.33623337745667,420.33623337745667,428.9382827281952,3,8.738332986831665,None,,,,,,,,,,,,,,,,,,90,6,2025-02-24_11h00.21.329,comp,2024.2.4,57.859731359384426,2025-02-24 11h00.31.634141 -0500,
53,53,0,critical,whd,20.0,2.1,upper,125.0,200.0,200.0,125.0,141.0,141.0,1,22.06637740135193,None,,,,,0,0,0,0,0,53,53,15,428.95499062538147,,,,,,,,,,,,,,,,,,,,,,,,,,,,,,,,,,,,,,,,,,,,,,,,,,,,,,,,,,,,,,,,,,,,,,,,,,,,,,,,,125.0,200.0,200.0,125.0,141.0,141.0,2.1,2.11,-258,274,0,251,229,-263,428.93988728523254,428.93996596336365,428.9442768096924,428.95499062538147,429.10297107696533,429.10297107696533,429.10297107696533,429.10297107696533,429.10297107696533,429.10297107696533,429.10297107696533,451.02890491485596,1,22.06637740135193,None,,,,,,,,,,,,,,,,,,90,6,2025-02-24_11h00.21.329,comp,2024.2.4,57.859731359384426,2025-02-24 11h00.31.634141 -0500,
54,54,0,critical,whd,20.0,2.1,lower,57.0,133.0,133.0,57.0,78.0,78.0,2,3.128441333770752,None,,,,,0,0,0,0,0,54,54,14,451.0446672439575,,,,,,,,,,,,,,,,,,,,,,,,,,,,,,,,,,,,,,,,,,,,,,,,,,,,,,,,,,,,,,,,,,,,,,,,,,,,,,,,,57.0,133.0,133.0,57.0,78.0,78.0,2.1,2.12,-191,-272,0,-282,164,285,451.03044271469116,451.03051829338074,451.033974647522,451.0446672439575,451.19729137420654,451.19729137420654,451.19729137420654,451.19729137420654,451.19729137420654,451.19729137420654,451.19729137420654,454.17808985710144,2,3.128441333770752,None,,,,,,,,,,,,,,,,,,90,6,2025-02-24_11h00.21.329,comp,2024.2.4,57.859731359384426,2025-02-24 11h00.31.634141 -0500,
55,55,0,filler_random,None,None,None,None,None,None,None,None,None,None,2,4.345891237258911,None,,,,,0,0,0,0,0,55,55,135,454.1950669288635,,,,,,,,,,,,,,,,,,,,,,,,,,,,,,,,,,,,,,,,,,,,,,,,,,,,,,,,,,,,,,,,,,,,,,,,,,,,,,,,,170.22904379471328,126.9825326401721,136.85522220696174,171.67352660386703,179.4103057018462,91.88086461235645,2.1,2.11,-245,276,0,277,228,-279,454.17989015579224,454.1800215244293,454.18350100517273,454.1950669288635,454.3457386493683,454.3457386493683,454.3457386493683,454.3457386493683,454.3457386493683,454.3457386493683,454.3457386493683,458.54837107658386,2,4.345891237258911,None,,,,,,,,,,,,,,,,,,90,6,2025-02-24_11h00.21.329,comp,2024.2.4,57.859731359384426,2025-02-24 11h00.31.634141 -0500,
56,56,0,critical,hdw,35.0,4.0,lower,133.0,57.0,70.0,70.0,57.0,133.0,1,4.184330224990845,None,,,,,0,0,0,0,0,56,56,112,458.5643858909607,,,,,,,,,,,,,,,,,,,,,,,,,,,,,,,,,,,,,,,,,,,,,,,,,,,,,,,,,,,,,,,,,,,,,,,,,,,,,,,,,133.0,57.0,70.0,70.0,57.0,133.0,4.0,4.1,-160,-273,0,-1,198,-269,458.54997181892395,458.55004596710205,458.55357789993286,458.5643858909607,458.70182061195374,458.70182061195374,458.70182061195374,458.70182061195374,458.70182061195374,458.70182061195374,458.70182061195374,462.7541079521179,1,4.184330224990845,None,,,,,,,,,,,,,,,,,,90,6,2025-02-24_11h00.21.329,comp,2024.2.4,57.859731359384426,2025-02-24 11h00.31.634141 -0500,
57,57,0,filler_random,None,None,None,None,None,None,None,None,None,None,3,5.5827202796936035,None,,,,,0,0,0,0,0,57,57,162,462.7745804786682,,,,,,,,,,,,,,,,,,,,,,,,,,,,,,,,,,,,,,,,,,,,,,,,,,,,,,,,,,,,,,,,,,,,,,,,,,,,,,,,,151.61098228719345,111.34135185384372,107.54853976488363,160.0814821768013,127.08648687234255,154.1559040552467,2.2,2.22,-232,259,0,-272,253,-269,462.75583124160767,462.7559082508087,462.75892400741577,462.7745804786682,462.9158878326416,462.9158878326416,462.9158878326416,462.9158878326416,462.9158878326416,462.9158878326416,462.9158878326416,468.36746525764465,3,5.5827202796936035,None,,,,,,,,,,,,,,,,,,90,6,2025-02-24_11h00.21.329,comp,2024.2.4,57.859731359384426,2025-02-24 11h00.31.634141 -0500,
58,58,0,filler_square,None,None,None,None,None,None,None,None,None,None,1,1.3814668655395508,None,,,,,0,0,0,0,0,58,58,203,468.3835461139679,,,,,,,,,,,,,,,,,,,,,,,,,,,,,,,,,,,,,,,,,,,,,,,,,,,,,,,,,,,,,,,,,,,,,,,,,,,,,,,,,186.3862818522436,186.3862818522436,127.3764295577104,113.04161503897504,144.86729096944214,130.32806200053096,1.0,1.2,-246,18,0,-19,218,-9,468.3692858219147,468.3693633079529,468.37286472320557,468.3835461139679,468.5327069759369,468.5327069759369,468.5327069759369,468.5327069759369,468.5327069759369,468.5327069759369,468.5327069759369,469.77519059181213,1,1.3814668655395508,None,,,,,,,,,,,,,,,,,,90,6,2025-02-24_11h00.21.329,comp,2024.2.4,57.859731359384426,2025-02-24 11h00.31.634141 -0500,
59,59,0,critical,hwd,20.0,1.0,lower,133.0,57.0,57.0,133.0,78.0,78.0,1,6.850382566452026,None,,,,,0,0,0,0,0,59,59,102,469.7952170372009,,,,,,,,,,,,,,,,,,,,,,,,,,,,,,,,,,,,,,,,,,,,,,,,,,,,,,,,,,,,,,,,,,,,,,,,,,,,,,,,,133.0,57.0,57.0,133.0,78.0,78.0,1.0,1.2,-191,-3,0,-5,202,-8,469.7766354084015,469.7767131328583,469.7796859741211,469.7952170372009,469.9351816177368,469.9351816177368,469.9351816177368,469.9351816177368,469.9351816177368,469.9351816177368,469.9351816177368,476.653124332428,1,6.850382566452026,None,,,,,,,,,,,,,,,,,,90,6,2025-02-24_11h00.21.329,comp,2024.2.4,57.859731359384426,2025-02-24 11h00.31.634141 -0500,
60,60,0,filler_random,None,None,None,None,None,None,None,None,None,None,1,1.2706565856933594,None,,,,,0,0,0,0,0,60,60,149,476.6700723171234,,,,,,,,,,,,,,,,,,,,,,,,,,,,,,,,,,,,,,,,,,,,,,,,,,,,,,,,,,,,,,,,,,,,,,,,,,,,,,,,,163.1606439990283,190.10192829297472,150.37670101477437,99.64094221861461,170.5530199524938,164.49697181035617,4.0,4.1,-241,-273,0,-8,228,-271,476.65502285957336,476.6551899909973,476.6593589782715,476.6700723171234,476.8232800960541,476.8232800960541,476.8232800960541,476.8232800960541,476.8232800960541,476.8232800960541,476.8232800960541,477.95366740226746,1,1.2706565856933594,None,,,,,,,,,,,,,,,,,,90,6,2025-02-24_11h00.21.329,comp,2024.2.4,57.859731359384426,2025-02-24 11h00.31.634141 -0500,
61,61,0,filler_random,None,None,None,None,None,None,None,None,None,None,1,1.171961784362793,None,,,,,0,0,0,0,0,61,61,153,477.96878385543823,,,,,,,,,,,,,,,,,,,,,,,,,,,,,,,,,,,,,,,,,,,,,,,,,,,,,,,,,,,,,,,,,,,,,,,,,,,,,,,,,171.73043561958957,170.94483932000946,155.94056249953098,102.90283965392625,91.85473496634518,199.33899009633055,1.0,1.1,-713,281,-480,259,-233,259,477.95529198646545,477.95538854599,477.95853781700134,477.96878385543823,478.11834502220154,478.11834502220154,478.11834502220154,478.11834502220154,478.11834502220154,478.11834502220154,478.11834502220154,479.1540732383728,1,1.171961784362793,None,,,,,,,,,,,,,,,,,,90,6,2025-02-24_11h00.21.329,comp,2024.2.4,57.859731359384426,2025-02-24 11h00.31.634141 -0500,
62,62,0,critical,dhw,20.0,4.0,lower,78.0,78.0,133.0,57.0,57.0,133.0,3,4.634007453918457,None,,,,,0,0,0,0,0,62,62,58,479.1708080768585,,,,,,,,,,,,,,,,,,,,,,,,,,,,,,,,,,,,,,,,,,,,,,,,,,,,,,,,,,,,,,,,,,,,,,,,,,,,,,,,,78.0,78.0,133.0,57.0,57.0,133.0,4.0,4.1,-164,-280,0,19,191,-273,479.15569043159485,479.1557891368866,479.1595661640167,479.1708080768585,479.32121205329895,479.32121205329895,479.32121205329895,479.32121205329895,479.32121205329895,479.32121205329895,479.32121205329895,483.807053565979,3,4.634007453918457,None,,,,,,,,,,,,,,,,,,90,6,2025-02-24_11h00.21.329,comp,2024.2.4,57.859731359384426,2025-02-24 11h00.31.634141 -0500,
63,63,0,critical,dhw,35.0,1.0,lower,70.0,70.0,133.0,57.0,57.0,133.0,2,2.597792148590088,None,,,,,0,0,0,0,0,63,63,48,483.8233664035797,,,,,,,,,,,,,,,,,,,,,,,,,,,,,,,,,,,,,,,,,,,,,,,,,,,,,,,,,,,,,,,,,,,,,,,,,,,,,,,,,70.0,70.0,133.0,57.0,57.0,133.0,1.0,1.2,-160,14,0,-18,191,-13,483.80856704711914,483.8086450099945,483.81197476387024,483.8233664035797,483.97294425964355,483.97294425964355,483.97294425964355,483.97294425964355,483.97294425964355,483.97294425964355,483.97294425964355,486.4233009815216,2,2.597792148590088,None,,,,,,,,,,,,,,,,,,90,6,2025-02-24_11h00.21.329,comp,2024.2.4,57.859731359384426,2025-02-24 11h00.31.634141 -0500,
64,64,0,catch,None,None,None,None,None,None,None,None,None,None,3,1.2458035945892334,None,,,,,0,0,0,0,0,64,64,127,486.439453125,,,,,,,,,,,,,,,,,,,,,,,,,,,,,,,,,,,,,,,,,,,,,,,,,,,,,,,,,,,,,,,,,,,,,,,,,,,,,,,,,128,62,61,129,139,186,1.0,1.2,-192,-6,0,8,254,-5,486.42515540122986,486.4252369403839,486.4287211894989,486.439453125,486.59005212783813,486.59005212783813,486.59005212783813,486.59005212783813,486.59005212783813,486.59005212783813,486.59005212783813,487.7053339481354,3,1.2458035945892334,None,,,,,,,,,,,,,,,,,,90,6,2025-02-24_11h00.21.329,comp,2024.2.4,57.859731359384426,2025-02-24 11h00.31.634141 -0500,
65,65,0,critical,wdh,35.0,2.1,lower,57.0,133.0,70.0,70.0,133.0,57.0,3,8.339123249053955,None,,,,,0,0,0,0,0,65,65,8,487.7215094566345,,,,,,,,,,,,,,,,,,,,,,,,,,,,,,,,,,,,,,,,,,,,,,,,,,,,,,,,,,,,,,,,,,,,,,,,,,,,,,,,,57.0,133.0,70.0,70.0,133.0,57.0,2.1,2.11,-198,289,0,252,160,-279,487.7068450450897,487.7069208621979,487.7103250026703,487.7215094566345,487.8739092350006,487.8739092350006,487.8739092350006,487.8739092350006,487.8739092350006,487.8739092350006,487.8739092350006,496.0755627155304,3,8.339123249053955,None,,,,,,,,,,,,,,,,,,90,6,2025-02-24_11h00.21.329,comp,2024.2.4,57.859731359384426,2025-02-24 11h00.31.634141 -0500,
66,66,0,filler_square,None,None,None,None,None,None,None,None,None,None,1,1.3465032577514648,None,,,,,0,0,0,0,0,66,66,193,496.0905075073242,,,,,,,,,,,,,,,,,,,,,,,,,,,,,,,,,,,,,,,,,,,,,,,,,,,,,,,,,,,,,,,,,,,,,,,,,,,,,,,,,170.92753996175674,170.92753996175674,92.22638536262838,68.02642606591124,89.46122494754357,70.58049769338601,3.0,3.1,-215,254,0,-15,165,-287,496.07759833335876,496.0776906013489,496.08110761642456,496.0905075073242,496.24359488487244,496.24359488487244,496.24359488487244,496.24359488487244,496.24359488487244,496.24359488487244,496.24359488487244,497.4451286792755,1,1.3465032577514648,None,,,,,,,,,,,,,,,,,,90,6,2025-02-24_11h00.21.329,comp,2024.2.4,57.859731359384426,2025-02-24 11h00.31.634141 -0500,
67,67,0,filler_square,None,None,None,None,None,None,None,None,None,None,1,1.4312713146209717,None,,,,,0,0,0,0,0,67,67,194,497.4615828990936,,,,,,,,,,,,,,,,,,,,,,,,,,,,,,,,,,,,,,,,,,,,,,,,,,,,,,,,,,,,,,,,,,,,,,,,,,,,,,,,,117.84458835532956,117.84458835532956,89.78895708454527,68.34097956236407,77.27574143390366,78.57748832883117,3.0,3.1,-189,262,0,-12,169,-279,497.44718527793884,497.4472644329071,497.4508397579193,497.4615828990936,497.61421942710876,497.61421942710876,497.61421942710876,497.61421942710876,497.61421942710876,497.61421942710876,497.61421942710876,498.8959457874298,1,1.4312713146209717,None,,,,,,,,,,,,,,,,,,90,6,2025-02-24_11h00.21.329,comp,2024.2.4,57.859731359384426,2025-02-24 11h00.31.634141 -0500,
68,68,0,filler_random,None,None,None,None,None,None,None,None,None,None,3,2.9629623889923096,None,,,,,0,0,0,0,0,68,68,148,498.9142246246338,,,,,,,,,,,,,,,,,,,,,,,,,,,,,,,,,,,,,,,,,,,,,,,,,,,,,,,,,,,,,,,,,,,,,,,,,,,,,,,,,118.44395847821036,106.71157668307251,81.88095650799889,115.39871629001038,147.55658528151696,121.75108184378689,1.0,1.2,-207,-12,0,6,215,12,498.89771604537964,498.8977973461151,498.9008004665375,498.9142246246338,499.06057262420654,499.06057262420654,499.06057262420654,499.06057262420654,499.06057262420654,499.06057262420654,499.06057262420654,501.8867197036743,3,2.9629623889923096,None,,,,,,,,,,,,,,,,,,90,6,2025-02-24_11h00.21.329,comp,2024.2.4,57.859731359384426,2025-02-24 11h00.31.634141 -0500,
69,69,0,critical,hwd,35.0,2.1,upper,200.0,125.0,125.0,200.0,127.0,127.0,2,12.267275094985962,None,,,,,0,0,0,0,0,69,69,41,501.9057147502899,,,,,,,,,,,,,,,,,,,,,,,,,,,,,,,,,,,,,,,,,,,,,,,,,,,,,,,,,,,,,,,,,,,,,,,,,,,,,,,,,200.0,125.0,125.0,200.0,127.0,127.0,2.1,2.11,-258,273,0,268,260,-290,501.8883147239685,501.88839292526245,501.89134430885315,501.9057147502899,502.0440790653229,502.0440790653229,502.0440790653229,502.0440790653229,502.0440790653229,502.0440790653229,502.0440790653229,514.1852550506592,2,12.267275094985962,None,,,,,,,,,,,,,,,,,,90,6,2025-02-24_11h00.21.329,comp,2024.2.4,57.859731359384426,2025-02-24 11h00.31.634141 -0500,
70,70,0,catch,None,None,None,None,None,None,None,None,None,None,3,1.3636913299560547,None,,,,,0,0,0,0,0,70,70,125,514.2010128498077,,,,,,,,,,,,,,,,,,,,,,,,,,,,,,,,,,,,,,,,,,,,,,,,,,,,,,,,,,,,,,,,,,,,,,,,,,,,,,,,,122,68,108,82,196,129,2.2,2.22,-171,252,0,-288,202,-258,514.1872124671936,514.1872971057892,514.1902976036072,514.2010128498077,514.3493280410767,514.3493280410767,514.3493280410767,514.3493280410767,514.3493280410767,514.3493280410767,514.3493280410767,515.5813221931458,3,1.3636913299560547,None,,,,,,,,,,,,,,,,,,90,6,2025-02-24_11h00.21.329,comp,2024.2.4,57.859731359384426,2025-02-24 11h00.31.634141 -0500,
71,71,0,catch,None,None,None,None,None,None,None,None,None,None,1,1.1593272686004639,None,,,,,0,0,0,0,0,71,71,124,515.5980892181396,,,,,,,,,,,,,,,,,,,,,,,,,,,,,,,,,,,,,,,,,,,,,,,,,,,,,,,,,,,,,,,,,,,,,,,,,,,,,,,,,184,141,116,74,121,69,2.2,2.21,-204,-258,0,253,168,288,515.5832710266113,515.5833930969238,515.5867922306061,515.5980892181396,515.7472670078278,515.7472670078278,515.7472670078278,515.7472670078278,515.7472670078278,515.7472670078278,515.7472670078278,516.7616348266602,1,1.1593272686004639,None,,,,,,,,,,,,,,,,,,90,6,2025-02-24_11h00.21.329,comp,2024.2.4,57.859731359384426,2025-02-24 11h00.31.634141 -0500,
72,72,0,catch,None,None,None,None,None,None,None,None,None,None,1,1.049128770828247,None,,,,,0,0,0,0,0,72,72,129,516.7800667285919,,,,,,,,,,,,,,,,,,,,,,,,,,,,,,,,,,,,,,,,,,,,,,,,,,,,,,,,,,,,,,,,,,,,,,,,,,,,,,,,,180,145,65,125,68,122,1.0,1.2,-231,5,0,-5,220,13,516.7636320590973,516.7637076377869,516.7670214176178,516.7800667285919,516.9152076244354,516.9152076244354,516.9152076244354,516.9152076244354,516.9152076244354,516.9152076244354,516.9152076244354,517.8353683948517,1,1.049128770828247,None,,,,,,,,,,,,,,,,,,90,6,2025-02-24_11h00.21.329,comp,2024.2.4,57.859731359384426,2025-02-24 11h00.31.634141 -0500,
73,73,0,critical,hdw,35.0,1.0,upper,200.0,125.0,127.0,127.0,125.0,200.0,3,1.9409902095794678,None,,,,,0,0,0,0,0,73,73,109,517.8562066555023,,,,,,,,,,,,,,,,,,,,,,,,,,,,,,,,,,,,,,,,,,,,,,,,,,,,,,,,,,,,,,,,,,,,,,,,,,,,,,,,,200.0,125.0,127.0,127.0,125.0,200.0,1.0,1.2,-222,-15,0,-1,260,-8,517.8370616436005,517.8371877670288,517.8405246734619,517.8562066555023,517.9985828399658,517.9985828399658,517.9985828399658,517.9985828399658,517.9985828399658,517.9985828399658,517.9985828399658,519.799206495285,3,1.9409902095794678,None,,,,,,,,,,,,,,,,,,90,6,2025-02-24_11h00.21.329,comp,2024.2.4,57.859731359384426,2025-02-24 11h00.31.634141 -0500,
74,74,0,filler_random,None,None,None,None,None,None,None,None,None,None,2,4.533232927322388,None,,,,,0,0,0,0,0,74,74,144,519.8161187171936,,,,,,,,,,,,,,,,,,,,,,,,,,,,,,,,,,,,,,,,,,,,,,,,,,,,,,,,,,,,,,,,,,,,,,,,,,,,,,,,,135.554460720122,100.21781544665039,87.31218113470622,197.36738578634836,116.06092158015954,75.8799849261331,4.0,4.1,-245,-256,0,-19,233,-253,519.8009324073792,519.8010451793671,519.8044693470001,519.8161187171936,519.9667527675629,519.9667527675629,519.9667527675629,519.9667527675629,519.9667527675629,519.9667527675629,519.9667527675629,524.3564841747284,2,4.533232927322388,None,,,,,,,,,,,,,,,,,,90,6,2025-02-24_11h00.21.329,comp,2024.2.4,57.859731359384426,2025-02-24 11h00.31.634141 -0500,
75,75,0,catch,None,None,None,None,None,None,None,None,None,None,3,1.3121771812438965,None,,,,,0,0,0,0,0,75,75,126,524.3725509643555,,,,,,,,,,,,,,,,,,,,,,,,,,,,,,,,,,,,,,,,,,,,,,,,,,,,,,,,,,,,,,,,,,,,,,,,,,,,,,,,,99,91,113,77,177,148,3.0,3.1,-180,256,0,5,208,-250,524.3585114479065,524.3585917949677,524.3617913722992,524.3725509643555,524.5165481567383,524.5165481567383,524.5165481567383,524.5165481567383,524.5165481567383,524.5165481567383,524.5165481567383,525.7006506919861,3,1.3121771812438965,None,,,,,,,,,,,,,,,,,,90,6,2025-02-24_11h00.21.329,comp,2024.2.4,57.859731359384426,2025-02-24 11h00.31.634141 -0500,
76,76,0,critical,whd,35.0,4.0,upper,125.0,200.0,200.0,125.0,127.0,127.0,2,2.1037886142730713,None,,,,,0,0,0,0,0,76,76,89,525.7169642448425,,,,,,,,,,,,,,,,,,,,,,,,,,,,,,,,,,,,,,,,,,,,,,,,,,,,,,,,,,,,,,,,,,,,,,,,,,,,,,,,,125.0,200.0,200.0,125.0,127.0,127.0,4.0,4.2,-258,12,0,-289,222,2,525.7021915912628,525.702267408371,525.7057447433472,525.7169642448425,525.8654270172119,525.8654270172119,525.8654270172119,525.8654270172119,525.8654270172119,525.8654270172119,525.8654270172119,527.8382532596588,2,2.1037886142730713,None,,,,,,,,,,,,,,,,,,90,6,2025-02-24_11h00.21.329,comp,2024.2.4,57.859731359384426,2025-02-24 11h00.31.634141 -0500,
77,77,0,filler_random,None,None,None,None,None,None,None,None,None,None,3,1.4311707019805908,None,,,,,0,0,0,0,0,77,77,159,527.8542139530182,,,,,,,,,,,,,,,,,,,,,,,,,,,,,,,,,,,,,,,,,,,,,,,,,,,,,,,,,,,,,,,,,,,,,,,,,,,,,,,,,99.3009709337201,93.57632214554117,191.74519732674173,57.756112410761354,176.94372407901892,89.38636326778699,2.1,2.11,-172,254,0,280,170,-262,527.8399677276611,527.8400800228119,527.8435838222504,527.8542139530182,527.9953052997589,527.9953052997589,527.9953052997589,527.9953052997589,527.9953052997589,527.9953052997589,527.9953052997589,529.2933292388916,3,1.4311707019805908,None,,,,,,,,,,,,,,,,,,90,6,2025-02-24_11h00.21.329,comp,2024.2.4,57.859731359384426,2025-02-24 11h00.31.634141 -0500,
78,78,0,filler_random,None,None,None,None,None,None,None,None,None,None,3,1.4079840183258057,None,,,,,0,0,0,0,0,78,78,134,529.3087737560272,,,,,,,,,,,,,,,,,,,,,,,,,,,,,,,,,,,,,,,,,,,,,,,,,,,,,,,,,,,,,,,,,,,,,,,,,,,,,,,,,88.21687098896379,174.01322906169992,172.22787882654148,81.15433681637637,162.52089050502707,194.2833858788361,1.0,1.3,256,-258,480,-281,714,-288,529.2949736118317,529.2950527667999,529.2980051040649,529.3087737560272,529.4570269584656,529.4570269584656,529.4570269584656,529.4570269584656,529.4570269584656,529.4570269584656,529.4570269584656,530.7210266590118,3,1.4079840183258057,None,,,,,,,,,,,,,,,,,,90,6,2025-02-24_11h00.21.329,comp,2024.2.4,57.859731359384426,2025-02-24 11h00.31.634141 -0500,
79,79,0,filler_random,None,None,None,None,None,None,None,None,None,None,2,2.667426824569702,None,,,,,0,0,0,0,0,79,79,130,530.7372450828552,,,,,,,,,,,,,,,,,,,,,,,,,,,,,,,,,,,,,,,,,,,,,,,,,,,,,,,,,,,,,,,,,,,,,,,,,,,,,,,,,163.41259022028248,149.8479228598144,134.53800854147295,187.57661354592722,93.88958289515742,137.36487190788588,2.1,2.11,-265,264,0,279,258,-282,530.7229037284851,530.7230434417725,530.7265198230743,530.7372450828552,530.8846082687378,530.8846082687378,530.8846082687378,530.8846082687378,530.8846082687378,530.8846082687378,530.8846082687378,533.4218397140503,2,2.667426824569702,None,,,,,,,,,,,,,,,,,,90,6,2025-02-24_11h00.21.329,comp,2024.2.4,57.859731359384426,2025-02-24 11h00.31.634141 -0500,
80,80,0,critical,dhw,35.0,4.0,lower,70.0,70.0,133.0,57.0,57.0,133.0,3,7.471280097961426,None,,,,,0,0,0,0,0,80,80,52,533.4374601840973,,,,,,,,,,,,,,,,,,,,,,,,,,,,,,,,,,,,,,,,,,,,,,,,,,,,,,,,,,,,,,,,,,,,,,,,,,,,,,,,,70.0,70.0,133.0,57.0,57.0,133.0,4.0,4.1,-160,-278,0,7,191,-264,533.4234659671783,533.4235472679138,533.4270756244659,533.4374601840973,533.5798013210297,533.5798013210297,533.5798013210297,533.5798013210297,533.5798013210297,533.5798013210297,533.5798013210297,540.9187579154968,3,7.471280097961426,None,,,,,,,,,,,,,,,,,,90,6,2025-02-24_11h00.21.329,comp,2024.2.4,57.859731359384426,2025-02-24 11h00.31.634141 -0500,
81,81,0,filler_random,None,None,None,None,None,None,None,None,None,None,2,1.053239107131958,None,,,,,0,0,0,0,0,81,81,143,540.9355645179749,,,,,,,,,,,,,,,,,,,,,,,,,,,,,,,,,,,,,,,,,,,,,,,,,,,,,,,,,,,,,,,,,,,,,,,,,,,,,,,,,68.83864500391579,105.75976370104866,199.1832265007748,104.6428256664343,113.56224644525305,82.19416019461354,3.0,3.2,-201,-269,0,-2,189,257,540.9205305576324,540.9206426143646,540.9240050315857,540.9355645179749,541.0739777088165,541.0739777088165,541.0739777088165,541.0739777088165,541.0739777088165,541.0739777088165,541.0739777088165,541.9924056529999,2,1.053239107131958,None,,,,,,,,,,,,,,,,,,90,6,2025-02-24_11h00.21.329,comp,2024.2.4,57.859731359384426,2025-02-24 11h00.31.634141 -0500,
82,82,0,critical,whd,20.0,1.0,lower,57.0,133.0,133.0,57.0,78.0,78.0,2,11.427048206329346,None,,,,,0,0,0,0,0,82,82,90,542.0098187923431,,,,,,,,,,,,,,,,,,,,,,,,,,,,,,,,,,,,,,,,,,,,,,,,,,,,,,,,,,,,,,,,,,,,,,,,,,,,,,,,,57.0,133.0,133.0,57.0,78.0,78.0,1.0,1.3,289,-258,480,-251,644,-283,541.9939320087433,541.9940078258514,541.9969985485077,542.0098187923431,542.1569821834564,542.1569821834564,542.1569821834564,542.1569821834564,542.1569821834564,542.1569821834564,542.1569821834564,553.4483709335327,2,11.427048206329346,None,,,,,,,,,,,,,,,,,,90,6,2025-02-24_11h00.21.329,comp,2024.2.4,57.859731359384426,2025-02-24 11h00.31.634141 -0500,
83,83,0,critical,hdw,20.0,3.0,upper,200.0,125.0,141.0,141.0,125.0,200.0,3,3.527951717376709,None,,,,,0,0,0,0,0,83,83,117,553.4689064025879,,,,,,,,,,,,,,,,,,,,,,,,,,,,,,,,,,,,,,,,,,,,,,,,,,,,,,,,,,,,,,,,,,,,,,,,,,,,,,,,,200.0,125.0,141.0,141.0,125.0,200.0,3.0,3.1,-229,272,0,19,266,-280,553.4499938488007,553.4500753879547,553.4531695842743,553.4689064025879,553.6449599266052,553.6449599266052,553.6449599266052,553.6449599266052,553.6449599266052,553.6449599266052,553.6449599266052,557.0172228813171,3,3.527951717376709,None,,,,,,,,,,,,,,,,,,90,6,2025-02-24_11h00.21.329,comp,2024.2.4,57.859731359384426,2025-02-24 11h00.31.634141 -0500,
84,84,0,critical,hwd,35.0,4.0,upper,200.0,125.0,125.0,200.0,127.0,127.0,2,1.543346643447876,None,,,,,0,0,0,0,0,84,84,101,557.0376892089844,,,,,,,,,,,,,,,,,,,,,,,,,,,,,,,,,,,,,,,,,,,,,,,,,,,,,,,,,,,,,,,,,,,,,,,,,,,,,,,,,200.0,125.0,125.0,200.0,127.0,127.0,4.0,4.1,-258,-279,0,-13,260,-281,557.0188188552856,557.0188927650452,557.0223088264465,557.0376892089844,557.1786613464355,557.1786613464355,557.1786613464355,557.1786613464355,557.1786613464355,557.1786613464355,557.1786613464355,558.5847845077515,2,1.543346643447876,None,,,,,,,,,,,,,,,,,,90,6,2025-02-24_11h00.21.329,comp,2024.2.4,57.859731359384426,2025-02-24 11h00.31.634141 -0500,
85,85,0,critical,dhw,35.0,1.0,upper,127.0,127.0,200.0,125.0,125.0,200.0,2,2.556851863861084,None,,,,,0,0,0,0,0,85,85,49,558.6007001399994,,,,,,,,,,,,,,,,,,,,,,,,,,,,,,,,,,,,,,,,,,,,,,,,,,,,,,,,,,,,,,,,,,,,,,,,,,,,,,,,,127.0,127.0,200.0,125.0,125.0,200.0,1.0,1.1,-702,269,-480,275,-222,259,558.5864295959473,558.5865054130554,558.5899150371552,558.6007001399994,558.7457859516144,558.7457859516144,558.7457859516144,558.7457859516144,558.7457859516144,558.7457859516144,558.7457859516144,561.1637260913849,2,2.556851863861084,None,,,,,,,,,,,,,,,,,,90,6,2025-02-24_11h00.21.329,comp,2024.2.4,57.859731359384426,2025-02-24 11h00.31.634141 -0500,
86,86,0,critical,wdh,35.0,4.0,upper,125.0,200.0,127.0,127.0,200.0,125.0,3,2.7449567317962646,None,,,,,0,0,0,0,0,86,86,77,561.1800606250763,,,,,,,,,,,,,,,,,,,,,,,,,,,,,,,,,,,,,,,,,,,,,,,,,,,,,,,,,,,,,,,,,,,,,,,,,,,,,,,,,125.0,200.0,127.0,127.0,200.0,125.0,4.0,4.1,-260,-268,0,-2,222,-274,561.165168762207,561.1652462482452,561.1693663597107,561.1800606250763,561.3288376331329,561.3288376331329,561.3288376331329,561.3288376331329,561.3288376331329,561.3288376331329,561.3288376331329,563.9276549816132,3,2.7449567317962646,None,,,,,,,,,,,,,,,,,,90,6,2025-02-24_11h00.21.329,comp,2024.2.4,57.859731359384426,2025-02-24 11h00.31.634141 -0500,
87,87,0,filler_random,None,None,None,None,None,None,None,None,None,None,1,4.84444260597229,None,,,,,0,0,0,0,0,87,87,166,563.9450891017914,,,,,,,,,,,,,,,,,,,,,,,,,,,,,,,,,,,,,,,,,,,,,,,,,,,,,,,,,,,,,,,,,,,,,,,,,,,,,,,,,135.51325915559417,175.09800885026044,96.57535116876367,189.4122271662592,169.54155009740208,59.14647309447789,3.0,3.2,-278,-282,0,-8,220,263,563.9294114112854,563.9294896125793,563.9328739643097,563.9450891017914,564.0805056095123,564.0805056095123,564.0805056095123,564.0805056095123,564.0805056095123,564.0805056095123,564.0805056095123,568.7960321903229,1,4.84444260597229,None,,,,,,,,,,,,,,,,,,90,6,2025-02-24_11h00.21.329,comp,2024.2.4,57.859731359384426,2025-02-24 11h00.31.634141 -0500,
88,88,0,critical,hdw,20.0,4.0,lower,133.0,57.0,78.0,78.0,57.0,133.0,3,4.624049663543701,None,,,,,0,0,0,0,0,88,88,118,568.8129613399506,,,,,,,,,,,,,,,,,,,,,,,,,,,,,,,,,,,,,,,,,,,,,,,,,,,,,,,,,,,,,,,,,,,,,,,,,,,,,,,,,133.0,57.0,78.0,78.0,57.0,133.0,4.0,4.2,-164,12,0,-266,202,-3,568.797515630722,568.7975924015045,568.80060505867,568.8129613399506,568.9479358196259,568.9479358196259,568.9479358196259,568.9479358196259,568.9479358196259,568.9479358196259,568.9479358196259,573.4402389526367,3,4.624049663543701,None,,,,,,,,,,,,,,,,,,90,6,2025-02-24_11h00.21.329,comp,2024.2.4,57.859731359384426,2025-02-24 11h00.31.634141 -0500,
89,89,0,filler_random,None,None,None,None,None,None,None,None,None,None,1,4.594853162765503,None,,,,,0,0,0,0,0,89,89,140,573.4580364227295,,,,,,,,,,,,,,,,,,,,,,,,,,,,,,,,,,,,,,,,,,,,,,,,,,,,,,,,,,,,,,,,,,,,,,,,,,,,,,,,,199.12510039452266,62.52336498026515,59.96634324368844,103.4496378977818,71.33150726965776,87.10799568430853,4.0,4.2,-179,19,0,-274,191,-19,573.4418933391571,573.4419734477997,573.4449515342712,573.4580364227295,573.6049706935883,573.6049706935883,573.6049706935883,573.6049706935883,573.6049706935883,573.6049706935883,573.6049706935883,578.0679948329926,1,4.594853162765503,None,,,,,,,,,,,,,,,,,,90,6,2025-02-24_11h00.21.329,comp,2024.2.4,57.859731359384426,2025-02-24 11h00.31.634141 -0500,
90,90,0,critical,hwd,35.0,1.0,upper,200.0,125.0,125.0,200.0,127.0,127.0,2,1.0891220569610596,None,,,,,0,0,0,0,0,90,90,97,578.0836203098297,,,,,,,,,,,,,,,,,,,,,,,,,,,,,,,,,,,,,,,,,,,,,,,,,,,,,,,,,,,,,,,,,,,,,,,,,,,,,,,,,200.0,125.0,125.0,200.0,127.0,127.0,1.0,1.1,-738,281,-480,286,-220,267,578.0695776939392,578.0696566104889,578.0732848644257,578.0836203098297,578.2338674068451,578.2338674068451,578.2338674068451,578.2338674068451,578.2338674068451,578.2338674068451,578.2338674068451,579.1890823841095,2,1.0891220569610596,None,,,,,,,,,,,,,,,,,,90,6,2025-02-24_11h00.21.329,comp,2024.2.4,57.859731359384426,2025-02-24 11h00.31.634141 -0500,
91,91,0,critical,dwh,20.0,3.0,upper,141.0,141.0,125.0,200.0,200.0,125.0,3,26.392282485961914,None,,,,,0,0,0,0,0,91,91,69,579.2046043872833,,,,,,,,,,,,,,,,,,,,,,,,,,,,,,,,,,,,,,,,,,,,,,,,,,,,,,,,,,,,,,,,,,,,,,,,,,,,,,,,,141.0,141.0,125.0,200.0,200.0,125.0,3.0,3.1,-266,278,0,-14,258,-259,579.1906065940857,579.1906826496124,579.1939523220062,579.2046043872833,579.3514013290405,579.3514013290405,579.3514013290405,579.3514013290405,579.3514013290405,579.3514013290405,579.3514013290405,605.6102168560028,3,26.392282485961914,None,,,,,,,,,,,,,,,,,,90,6,2025-02-24_11h00.21.329,comp,2024.2.4,57.859731359384426,2025-02-24 11h00.31.634141 -0500,
92,92,0,filler_random,None,None,None,None,None,None,None,None,None,None,2,1.227534532546997,None,,,,,0,0,0,0,0,92,92,167,605.6258387565613,,,,,,,,,,,,,,,,,,,,,,,,,,,,,,,,,,,,,,,,,,,,,,,,,,,,,,,,,,,,,,,,,,,,,,,,,,,,,,,,,68.23058930017704,59.785211903731316,147.47456411156497,165.0381824755723,133.9566065948115,118.11574047017777,3.0,3.2,-208,-267,0,2,238,273,605.6120357513428,605.6121215820312,605.6155958175659,605.6258387565613,605.7742202281952,605.7742202281952,605.7742202281952,605.7742202281952,605.7742202281952,605.7742202281952,605.7742202281952,606.860692024231,2,1.227534532546997,None,,,,,,,,,,,,,,,,,,90,6,2025-02-24_11h00.21.329,comp,2024.2.4,57.859731359384426,2025-02-24 11h00.31.634141 -0500,
93,93,0,critical,dhw,35.0,2.1,lower,70.0,70.0,133.0,57.0,57.0,133.0,3,2.87339448928833,None,,,,,0,0,0,0,0,93,93,24,606.8765017986298,,,,,,,,,,,,,,,,,,,,,,,,,,,,,,,,,,,,,,,,,,,,,,,,,,,,,,,,,,,,,,,,,,,,,,,,,,,,,,,,,70.0,70.0,133.0,57.0,57.0,133.0,2.1,2.12,-160,-283,0,-272,191,266,606.8621990680695,606.8622756004333,606.8658339977264,606.8765017986298,607.025224685669,607.025224685669,607.025224685669,607.025224685669,607.025224685669,607.025224685669,607.025224685669,609.7621281147003,3,2.87339448928833,None,,,,,,,,,,,,,,,,,,90,6,2025-02-24_11h00.21.329,comp,2024.2.4,57.859731359384426,2025-02-24 11h00.31.634141 -0500,
94,94,0,filler_square,None,None,None,None,None,None,None,None,None,None,2,1.0030405521392822,None,,,,,0,0,0,0,0,94,94,176,609.77769780159,,,,,,,,,,,,,,,,,,,,,,,,,,,,,,,,,,,,,,,,,,,,,,,,,,,,,,,,,,,,,,,,,,,,,,,,,,,,,,,,,147.97435941696682,59.32056552242064,187.36829731642385,187.36829731642385,108.09963794553474,107.1633851522011,4.0,4.1,-219,-265,0,-10,243,-255,609.7639312744141,609.7640066146851,609.7675271034241,609.77769780159,609.9276659488678,609.9276659488678,609.9276659488678,609.9276659488678,609.9276659488678,609.9276659488678,609.9276659488678,610.7974698543549,2,1.0030405521392822,None,,,,,,,,,,,,,,,,,,90,6,2025-02-24_11h00.21.329,comp,2024.2.4,57.859731359384426,2025-02-24 11h00.31.634141 -0500,
95,95,0,critical,hdw,35.0,1.0,lower,133.0,57.0,70.0,70.0,57.0,133.0,1,2.6003682613372803,None,,,,,0,0,0,0,0,95,95,108,610.8130810260773,,,,,,,,,,,,,,,,,,,,,,,,,,,,,,,,,,,,,,,,,,,,,,,,,,,,,,,,,,,,,,,,,,,,,,,,,,,,,,,,,133.0,57.0,70.0,70.0,57.0,133.0,1.0,1.1,-640,286,-480,273,-282,264,610.7991309165955,610.7992451190948,610.8027768135071,610.8130810260773,610.9683985710144,610.9683985710144,610.9683985710144,610.9683985710144,610.9683985710144,610.9683985710144,610.9683985710144,613.4209477901459,1,2.6003682613372803,None,,,,,,,,,,,,,,,,,,90,6,2025-02-24_11h00.21.329,comp,2024.2.4,57.859731359384426,2025-02-24 11h00.31.634141 -0500,
96,96,0,critical,hdw,20.0,2.1,upper,200.0,125.0,141.0,141.0,125.0,200.0,3,1.8833961486816406,None,,,,,0,0,0,0,0,96,96,47,613.4418227672577,,,,,,,,,,,,,,,,,,,,,,,,,,,,,,,,,,,,,,,,,,,,,,,,,,,,,,,,,,,,,,,,,,,,,,,,,,,,,,,,,200.0,125.0,141.0,141.0,125.0,200.0,2.1,2.12,-229,-263,0,-272,266,283,613.4225678443909,613.422648191452,613.4260334968567,613.4418227672577,613.5752608776093,613.5752608776093,613.5752608776093,613.5752608776093,613.5752608776093,613.5752608776093,613.5752608776093,615.3299918174744,3,1.8833961486816406,None,,,,,,,,,,,,,,,,,,90,6,2025-02-24_11h00.21.329,comp,2024.2.4,57.859731359384426,2025-02-24 11h00.31.634141 -0500,
97,97,0,filler_random,None,None,None,None,None,None,None,None,None,None,2,1.866713047027588,None,,,,,0,0,0,0,0,97,97,133,615.3460991382599,,,,,,,,,,,,,,,,,,,,,,,,,,,,,,,,,,,,,,,,,,,,,,,,,,,,,,,,,,,,,,,,,,,,,,,,,,,,,,,,,147.54149868339067,59.43472405064818,154.82908543131748,149.66295872321993,103.94019574683345,116.2661002975523,2.2,2.21,-201,-278,0,277,229,274,615.331689119339,615.3317666053772,615.3351936340332,615.3460991382599,615.4949879646301,615.4949879646301,615.4949879646301,615.4949879646301,615.4949879646301,615.4949879646301,615.4949879646301,617.2307105064392,2,1.866713047027588,None,,,,,,,,,,,,,,,,,,90,6,2025-02-24_11h00.21.329,comp,2024.2.4,57.859731359384426,2025-02-24 11h00.31.634141 -0500,
98,98,0,critical,hwd,20.0,1.0,upper,200.0,125.0,125.0,200.0,141.0,141.0,2,4.3070104122161865,None,,,,,0,0,0,0,0,98,98,103,617.2503504753113,,,,,,,,,,,,,,,,,,,,,,,,,,,,,,,,,,,,,,,,,,,,,,,,,,,,,,,,,,,,,,,,,,,,,,,,,,,,,,,,,200.0,125.0,125.0,200.0,141.0,141.0,1.0,1.3,222,-285,480,-265,746,-276,617.2323141098022,617.2323889732361,617.2354550361633,617.2503504753113,617.3968665599823,617.3968665599823,617.3968665599823,617.3968665599823,617.3968665599823,617.3968665599823,617.3968665599823,621.5652604103088,2,4.3070104122161865,None,,,,,,,,,,,,,,,,,,90,6,2025-02-24_11h00.21.329,comp,2024.2.4,57.859731359384426,2025-02-24 11h00.31.634141 -0500,
99,99,0,critical,hdw,35.0,3.0,upper,200.0,125.0,127.0,127.0,125.0,200.0,3,2.7031636238098145,None,,,,,0,0,0,0,0,99,99,111,621.5817041397095,,,,,,,,,,,,,,,,,,,,,,,,,,,,,,,,,,,,,,,,,,,,,,,,,,,,,,,,,,,,,,,,,,,,,,,,,,,,,,,,,200.0,125.0,127.0,127.0,125.0,200.0,3.0,3.1,-222,266,0,17,260,-271,621.5667541027069,621.5668330192566,621.5703885555267,621.5817041397095,621.729700088501,621.729700088501,621.729700088501,621.729700088501,621.729700088501,621.729700088501,621.729700088501,624.29873919487,3,2.7031636238098145,None,,,,,,,,,,,,,,,,,,90,6,2025-02-24_11h00.21.329,comp,2024.2.4,57.859731359384426,2025-02-24 11h00.31.634141 -0500,
100,100,0,critical,dwh,20.0,2.1,lower,78.0,78.0,57.0,133.0,133.0,57.0,2,2.734607219696045,None,,,,,0,0,0,0,0,100,100,30,624.3182866573334,,,,,,,,,,,,,,,,,,,,,,,,,,,,,,,,,,,,,,,,,,,,,,,,,,,,,,,,,,,,,,,,,,,,,,,,,,,,,,,,,78.0,78.0,57.0,133.0,133.0,57.0,2.1,2.12,-202,-267,0,-262,191,267,624.3002510070801,624.3003237247467,624.3035359382629,624.3182866573334,624.4659924507141,624.4659924507141,624.4659924507141,624.4659924507141,624.4659924507141,624.4659924507141,624.4659924507141,627.0656476020813,2,2.734607219696045,None,,,,,,,,,,,,,,,,,,90,6,2025-02-24_11h00.21.329,comp,2024.2.4,57.859731359384426,2025-02-24 11h00.31.634141 -0500,
101,101,0,filler_square,None,None,None,None,None,None,None,None,None,None,1,4.322915554046631,None,,,,,0,0,0,0,0,101,101,198,627.0819852352142,,,,,,,,,,,,,,,,,,,,,,,,,,,,,,,,,,,,,,,,,,,,,,,,,,,,,,,,,,,,,,,,,,,,,,,,,,,,,,,,,69.95441586402188,69.95441586402188,59.13891371871018,67.38675271128562,62.661527199781744,62.53113394644943,3.0,3.1,-165,273,0,-2,161,-280,627.0674154758453,627.0674929618835,627.0707716941833,627.0819852352142,627.2342877388,627.2342877388,627.2342877388,627.2342877388,627.2342877388,627.2342877388,627.2342877388,631.4202477931976,1,4.322915554046631,None,,,,,,,,,,,,,,,,,,90,6,2025-02-24_11h00.21.329,comp,2024.2.4,57.859731359384426,2025-02-24 11h00.31.634141 -0500,
102,102,0,critical,dhw,35.0,3.0,upper,127.0,127.0,200.0,125.0,125.0,200.0,3,5.680842876434326,None,,,,,0,0,0,0,0,102,102,51,631.4362101554871,,,,,,,,,,,,,,,,,,,,,,,,,,,,,,,,,,,,,,,,,,,,,,,,,,,,,,,,,,,,,,,,,,,,,,,,,,,,,,,,,127.0,127.0,200.0,125.0,125.0,200.0,3.0,3.1,-222,285,0,-12,258,-281,631.4219136238098,631.4220461845398,631.4256451129913,631.4362101554871,631.5833806991577,631.5833806991577,631.5833806991577,631.5833806991577,631.5833806991577,631.5833806991577,631.5833806991577,637.1192128658295,3,5.680842876434326,None,,,,,,,,,,,,,,,,,,90,6,2025-02-24_11h00.21.329,comp,2024.2.4,57.859731359384426,2025-02-24 11h00.31.634141 -0500,
103,103,0,filler_random,None,None,None,None,None,None,None,None,None,None,3,5.7418811321258545,None,,,,,0,0,0,0,0,103,103,151,637.137642621994,,,,,,,,,,,,,,,,,,,,,,,,,,,,,,,,,,,,,,,,,,,,,,,,,,,,,,,,,,,,,,,,,,,,,,,,,,,,,,,,,141.67655146684146,199.53107277330204,151.4657107819976,187.3124104245518,164.15578042209032,191.25573374805492,1.0,1.1,-769,260,-480,286,-195,281,637.120932340622,637.1210658550262,637.1244823932648,637.137642621994,637.288688659668,637.288688659668,637.288688659668,637.288688659668,637.288688659668,637.288688659668,637.288688659668,642.8855986595154,3,5.7418811321258545,None,,,,,,,,,,,,,,,,,,90,6,2025-02-24_11h00.21.329,comp,2024.2.4,57.859731359384426,2025-02-24 11h00.31.634141 -0500,
104,104,0,critical,dhw,35.0,2.1,lower,70.0,70.0,133.0,57.0,57.0,133.0,3,3.5992331504821777,None,,,,,0,0,0,0,0,104,104,0,642.902503490448,,,,,,,,,,,,,,,,,,,,,,,,,,,,,,,,,,,,,,,,,,,,,,,,,,,,,,,,,,,,,,,,,,,,,,,,,,,,,,,,,70.0,70.0,133.0,57.0,57.0,133.0,2.1,2.12,-160,-281,0,-268,191,277,642.887069940567,642.8871772289276,642.8901636600494,642.902503490448,643.0479102134705,643.0479102134705,643.0479102134705,643.0479102134705,643.0479102134705,643.0479102134705,643.0479102134705,646.5096735954285,3,3.5992331504821777,None,,,,,,,,,,,,,,,,,,90,6,2025-02-24_11h00.21.329,comp,2024.2.4,57.859731359384426,2025-02-24 11h00.31.634141 -0500,
105,105,0,critical,whd,35.0,2.1,upper,125.0,200.0,200.0,125.0,127.0,127.0,2,4.8464250564575195,None,,,,,0,0,0,0,0,105,105,37,646.5268359184265,,,,,,,,,,,,,,,,,,,,,,,,,,,,,,,,,,,,,,,,,,,,,,,,,,,,,,,,,,,,,,,,,,,,,,,,,,,,,,,,,125.0,200.0,200.0,125.0,127.0,127.0,2.1,2.11,-258,281,0,279,222,-278,646.5113949775696,646.5115311145782,646.5149455070496,646.5268359184265,646.6722950935364,646.6722950935364,646.6722950935364,646.6722950935364,646.6722950935364,646.6722950935364,646.6722950935364,651.3885695934296,2,4.8464250564575195,None,,,,,,,,,,,,,,,,,,90,6,2025-02-24_11h00.21.329,comp,2024.2.4,57.859731359384426,2025-02-24 11h00.31.634141 -0500,
106,106,0,critical,dwh,20.0,2.1,upper,141.0,141.0,125.0,200.0,200.0,125.0,2,1.6723146438598633,None,,,,,0,0,0,0,0,106,106,7,651.4045703411102,,,,,,,,,,,,,,,,,,,,,,,,,,,,,,,,,,,,,,,,,,,,,,,,,,,,,,,,,,,,,,,,,,,,,,,,,,,,,,,,,141.0,141.0,125.0,200.0,200.0,125.0,2.1,2.11,-266,268,0,279,258,-282,651.390022277832,651.3900980949402,651.3930609226227,651.4045703411102,651.5538885593414,651.5538885593414,651.5538885593414,651.5538885593414,651.5538885593414,651.5538885593414,651.5538885593414,653.092472076416,2,1.6723146438598633,None,,,,,,,,,,,,,,,,,,90,6,2025-02-24_11h00.21.329,comp,2024.2.4,57.859731359384426,2025-02-24 11h00.31.634141 -0500,
107,107,0,filler_square,None,None,None,None,None,None,None,None,None,None,2,1.000640869140625,None,,,,,0,0,0,0,0,107,107,184,653.108118057251,,,,,,,,,,,,,,,,,,,,,,,,,,,,,,,,,,,,,,,,,,,,,,,,,,,,,,,,,,,,,,,,,,,,,,,,,,,,,,,,,101.82091352545177,63.24249364001506,194.5151180989921,194.5151180989921,167.90942493456788,89.88128044360147,4.0,4.1,-225,-251,0,-8,238,-286,653.094319820404,653.0943987369537,653.0978939533234,653.108118057251,653.2614340782166,653.2614340782166,653.2614340782166,653.2614340782166,653.2614340782166,653.2614340782166,653.2614340782166,654.1253039836884,2,1.000640869140625,None,,,,,,,,,,,,,,,,,,90,6,2025-02-24_11h00.21.329,comp,2024.2.4,57.859731359384426,2025-02-24 11h00.31.634141 -0500,
108,108,0,critical,hdw,35.0,2.1,upper,200.0,125.0,127.0,127.0,125.0,200.0,3,1.9522438049316406,None,,,,,0,0,0,0,0,108,108,45,654.1405427455902,,,,,,,,,,,,,,,,,,,,,,,,,,,,,,,,,,,,,,,,,,,,,,,,,,,,,,,,,,,,,,,,,,,,,,,,,,,,,,,,,200.0,125.0,127.0,127.0,125.0,200.0,2.1,2.12,-222,-290,0,-287,260,264,654.1267771720886,654.1268527507782,654.1303322315216,654.1405427455902,654.2968947887421,654.2968947887421,654.2968947887421,654.2968947887421,654.2968947887421,654.2968947887421,654.2968947887421,656.1084723472595,3,1.9522438049316406,None,,,,,,,,,,,,,,,,,,90,6,2025-02-24_11h00.21.329,comp,2024.2.4,57.859731359384426,2025-02-24 11h00.31.634141 -0500,
109,109,0,filler_square,None,None,None,None,None,None,None,None,None,None,1,1.8396787643432617,None,,,,,0,0,0,0,0,109,109,202,656.1251983642578,,,,,,,,,,,,,,,,,,,,,,,,,,,,,,,,,,,,,,,,,,,,,,,,,,,,,,,,,,,,,,,,,,,,,,,,,,,,,,,,,64.11159090896048,64.11159090896048,58.82652140724056,59.6144949605703,59.569957403742755,63.05367388980821,2.1,2.11,-158,276,0,266,157,-255,656.1103982925415,656.1104764938354,656.1138577461243,656.1251983642578,656.2764568328857,656.2764568328857,656.2764568328857,656.2764568328857,656.2764568328857,656.2764568328857,656.2764568328857,657.9818279743195,1,1.8396787643432617,None,,,,,,,,,,,,,,,,,,90,6,2025-02-24_11h00.21.329,comp,2024.2.4,57.859731359384426,2025-02-24 11h00.31.634141 -0500,
110,110,0,critical,whd,20.0,2.1,lower,57.0,133.0,133.0,57.0,78.0,78.0,1,1.5252625942230225,None,,,,,0,0,0,0,0,110,110,38,657.9996886253357,,,,,,,,,,,,,,,,,,,,,,,,,,,,,,,,,,,,,,,,,,,,,,,,,,,,,,,,,,,,,,,,,,,,,,,,,,,,,,,,,57.0,133.0,133.0,57.0,78.0,78.0,2.1,2.11,-191,258,0,279,164,-262,657.9834008216858,657.9834797382355,657.9865598678589,657.9996886253357,658.1436150074005,658.1436150074005,658.1436150074005,658.1436150074005,658.1436150074005,658.1436150074005,658.1436150074005,659.5425808429718,1,1.5252625942230225,None,,,,,,,,,,,,,,,,,,90,6,2025-02-24_11h00.21.329,comp,2024.2.4,57.859731359384426,2025-02-24 11h00.31.634141 -0500,
111,111,0,filler_random,None,None,None,None,None,None,None,None,None,None,2,3.1029391288757324,None,,,,,0,0,0,0,0,111,111,156,659.5589411258698,,,,,,,,,,,,,,,,,,,,,,,,,,,,,,,,,,,,,,,,,,,,,,,,,,,,,,,,,,,,,,,,,,,,,,,,,,,,,,,,,138.77638771214464,63.8993800615756,189.31667526603997,138.14844618358518,154.22011141193622,150.55418241392002,4.0,4.2,-197,-18,0,-273,240,-19,659.5443251132965,659.5444023609161,659.5477786064148,659.5589411258698,659.6970148086548,659.6970148086548,659.6970148086548,659.6970148086548,659.6970148086548,659.6970148086548,659.6970148086548,662.6671988964081,2,3.1029391288757324,None,,,,,,,,,,,,,,,,,,90,6,2025-02-24_11h00.21.329,comp,2024.2.4,57.859731359384426,2025-02-24 11h00.31.634141 -0500,
112,112,0,filler_random,None,None,None,None,None,None,None,None,None,None,1,10.161539554595947,None,,,,,0,0,0,0,0,112,112,136,662.683381319046,,,,,,,,,,,,,,,,,,,,,,,,,,,,,,,,,,,,,,,,,,,,,,,,,,,,,,,,,,,,,,,,,,,,,,,,,,,,,,,,,142.84766494348185,98.1279435501044,125.05733607580345,115.72363495976046,108.83510180760803,131.8466667894684,1.0,1.3,277,-290,480,-275,700,-277,662.6688117980957,662.668888092041,662.6726589202881,662.683381319046,662.826821565628,662.826821565628,662.826821565628,662.826821565628,662.826821565628,662.826821565628,662.826821565628,672.8479254245758,1,10.161539554595947,None,,,,,,,,,,,,,,,,,,90,6,2025-02-24_11h00.21.329,comp,2024.2.4,57.859731359384426,2025-02-24 11h00.31.634141 -0500,
113,113,0,filler_square,None,None,None,None,None,None,None,None,None,None,3,1.8289861679077148,None,,,,,0,0,0,0,0,113,113,208,672.8639540672302,,,,,,,,,,,,,,,,,,,,,,,,,,,,,,,,,,,,,,,,,,,,,,,,,,,,,,,,,,,,,,,,,,,,,,,,,,,,,,,,,73.1015860468359,57.3936697331569,108.09419993796016,175.93504123204872,186.77779558728741,186.77779558728741,2.2,2.22,-213,275,0,-289,277,-253,672.8497490882874,672.8498296737671,672.8532967567444,672.8639540672302,673.0184400081635,673.0184400081635,673.0184400081635,673.0184400081635,673.0184400081635,673.0184400081635,673.0184400081635,674.7063963413239,3,1.8289861679077148,None,,,,,,,,,,,,,,,,,,90,6,2025-02-24_11h00.21.329,comp,2024.2.4,57.859731359384426,2025-02-24 11h00.31.634141 -0500,
114,114,0,critical,dwh,35.0,1.0,lower,70.0,70.0,57.0,133.0,133.0,57.0,2,6.626728296279907,None,,,,,0,0,0,0,0,114,114,60,674.7221636772156,,,,,,,,,,,,,,,,,,,,,,,,,,,,,,,,,,,,,,,,,,,,,,,,,,,,,,,,,,,,,,,,,,,,,,,,,,,,,,,,,70.0,70.0,57.0,133.0,133.0,57.0,1.0,1.3,282,-262,480,-280,671,-274,674.7078897953033,674.7079653739929,674.7109355926514,674.7221636772156,674.865612745285,674.865612745285,674.865612745285,674.865612745285,674.865612745285,674.865612745285,674.865612745285,681.3665738105774,2,6.626728296279907,None,,,,,,,,,,,,,,,,,,90,6,2025-02-24_11h00.21.329,comp,2024.2.4,57.859731359384426,2025-02-24 11h00.31.634141 -0500,
115,115,0,filler_random,None,None,None,None,None,None,None,None,None,None,3,6.382699251174927,None,,,,,0,0,0,0,0,115,115,145,681.3822424411774,,,,,,,,,,,,,,,,,,,,,,,,,,,,,,,,,,,,,,,,,,,,,,,,,,,,,,,,,,,,,,,,,,,,,,,,,,,,,,,,,182.230135547712,69.33744269299856,67.4215358522648,86.46063271374815,119.33550309718206,151.05267189107462,2.1,2.11,-174,263,0,283,215,-285,681.3684372901917,681.3685176372528,681.3717339038849,681.3822424411774,681.5343492031097,681.5343492031097,681.5343492031097,681.5343492031097,681.5343492031097,681.5343492031097,681.5343492031097,687.7693078517914,3,6.382699251174927,None,,,,,,,,,,,,,,,,,,90,6,2025-02-24_11h00.21.329,comp,2024.2.4,57.859731359384426,2025-02-24 11h00.31.634141 -0500,
116,116,0,critical,hdw,20.0,3.0,lower,133.0,57.0,78.0,78.0,57.0,133.0,3,9.539831161499023,None,,,,,0,0,0,0,0,116,116,116,687.7851271629333,,,,,,,,,,,,,,,,,,,,,,,,,,,,,,,,,,,,,,,,,,,,,,,,,,,,,,,,,,,,,,,,,,,,,,,,,,,,,,,,,133.0,57.0,78.0,78.0,57.0,133.0,3.0,3.1,-164,282,0,-3,202,-255,687.7707853317261,687.7708613872528,687.7744116783142,687.7851271629333,687.9346401691437,687.9346401691437,687.9346401691437,687.9346401691437,687.9346401691437,687.9346401691437,687.9346401691437,697.3390023708344,3,9.539831161499023,None,,,,,,,,,,,,,,,,,,90,6,2025-02-24_11h00.21.329,comp,2024.2.4,57.859731359384426,2025-02-24 11h00.31.634141 -0500,
117,117,0,critical,wdh,20.0,2.1,upper,125.0,200.0,141.0,141.0,200.0,125.0,1,3.705848455429077,None,,,,,0,0,0,0,0,117,117,11,697.3550047874451,,,,,,,,,,,,,,,,,,,,,,,,,,,,,,,,,,,,,,,,,,,,,,,,,,,,,,,,,,,,,,,,,,,,,,,,,,,,,,,,,125.0,200.0,141.0,141.0,200.0,125.0,2.1,2.11,-266,280,0,290,229,-290,697.3405413627625,697.3406188488007,697.3447258472443,697.3550047874451,697.5033190250397,697.5033190250397,697.5033190250397,697.5033190250397,697.5033190250397,697.5033190250397,697.5033190250397,701.0726609230042,1,3.705848455429077,None,,,,,,,,,,,,,,,,,,90,6,2025-02-24_11h00.21.329,comp,2024.2.4,57.859731359384426,2025-02-24 11h00.31.634141 -0500,
118,118,0,filler_square,None,None,None,None,None,None,None,None,None,None,3,1.6600029468536377,None,,,,,0,0,0,0,0,118,118,181,701.0889415740967,,,,,,,,,,,,,,,,,,,,,,,,,,,,,,,,,,,,,,,,,,,,,,,,,,,,,,,,,,,,,,,,,,,,,,,,,,,,,,,,,83.92291146098854,80.74068214541236,67.3119649406353,77.81131217703022,98.21708029324128,98.21708029324128,2.1,2.12,-175,-285,0,-257,184,266,701.0744264125824,701.074501991272,701.0778691768646,701.0889415740967,701.2446980476379,701.2446980476379,701.2446980476379,701.2446980476379,701.2446980476379,701.2446980476379,701.2446980476379,702.7627246379852,3,1.6600029468536377,None,,,,,,,,,,,,,,,,,,90,6,2025-02-24_11h00.21.329,comp,2024.2.4,57.859731359384426,2025-02-24 11h00.31.634141 -0500,
119,119,0,critical,wdh,20.0,1.0,upper,125.0,200.0,141.0,141.0,200.0,125.0,3,2.01043438911438,None,,,,,0,0,0,0,0,119,119,79,702.7790167331696,,,,,,,,,,,,,,,,,,,,,,,,,,,,,,,,,,,,,,,,,,,,,,,,,,,,,,,,,,,,,,,,,,,,,,,,,,,,,,,,,125.0,200.0,141.0,141.0,200.0,125.0,1.0,1.2,-266,-18,0,-19,229,-4,702.7642970085144,702.7643699645996,702.7677888870239,702.7790167331696,702.9244928359985,702.9244928359985,702.9244928359985,702.9244928359985,702.9244928359985,702.9244928359985,702.9244928359985,704.7977592945099,3,2.01043438911438,None,,,,,,,,,,,,,,,,,,90,6,2025-02-24_11h00.21.329,comp,2024.2.4,57.859731359384426,2025-02-24 11h00.31.634141 -0500,
120,120,0,critical,hwd,35.0,2.1,upper,200.0,125.0,125.0,200.0,127.0,127.0,2,1.5494871139526367,None,,,,,0,0,0,0,0,120,120,17,704.8155047893524,,,,,,,,,,,,,,,,,,,,,,,,,,,,,,,,,,,,,,,,,,,,,,,,,,,,,,,,,,,,,,,,,,,,,,,,,,,,,,,,,200.0,125.0,125.0,200.0,127.0,127.0,2.1,2.11,-258,276,0,273,260,-285,704.7992799282074,704.7993566989899,704.8024275302887,704.8155047893524,704.9570271968842,704.9570271968842,704.9570271968842,704.9570271968842,704.9570271968842,704.9570271968842,704.9570271968842,706.3767123222351,2,1.5494871139526367,None,,,,,,,,,,,,,,,,,,90,6,2025-02-24_11h00.21.329,comp,2024.2.4,57.859731359384426,2025-02-24 11h00.31.634141 -0500,
121,121,0,critical,wdh,20.0,3.0,upper,125.0,200.0,141.0,141.0,200.0,125.0,3,1.6756987571716309,None,,,,,0,0,0,0,0,121,121,81,706.3948340415955,,,,,,,,,,,,,,,,,,,,,,,,,,,,,,,,,,,,,,,,,,,,,,,,,,,,,,,,,,,,,,,,,,,,,,,,,,,,,,,,,125.0,200.0,141.0,141.0,200.0,125.0,3.0,3.2,-266,-274,0,15,229,252,706.3782474994659,706.3783242702484,706.3817582130432,706.3948340415955,706.5417659282684,706.5417659282684,706.5417659282684,706.5417659282684,706.5417659282684,706.5417659282684,706.5417659282684,708.0766859054565,3,1.6756987571716309,None,,,,,,,,,,,,,,,,,,90,6,2025-02-24_11h00.21.329,comp,2024.2.4,57.859731359384426,2025-02-24 11h00.31.634141 -0500,
122,122,0,filler_square,None,None,None,None,None,None,None,None,None,None,1,1.4484045505523682,None,,,,,0,0,0,0,0,122,122,178,708.0933418273926,,,,,,,,,,,,,,,,,,,,,,,,,,,,,,,,,,,,,,,,,,,,,,,,,,,,,,,,,,,,,,,,,,,,,,,,,,,,,,,,,142.15423032316022,142.15423032316022,64.28765244056244,88.56761975951197,99.22255065605418,110.97636881392322,2.1,2.11,-211,254,0,266,196,-277,708.0787620544434,708.0788421630859,708.0825445652008,708.0933418273926,708.2456488609314,708.2456488609314,708.2456488609314,708.2456488609314,708.2456488609314,708.2456488609314,708.2456488609314,709.5514845848083,1,1.4484045505523682,None,,,,,,,,,,,,,,,,,,90,6,2025-02-24_11h00.21.329,comp,2024.2.4,57.859731359384426,2025-02-24 11h00.31.634141 -0500,
123,123,0,critical,dhw,35.0,4.0,upper,127.0,127.0,200.0,125.0,125.0,200.0,2,1.1480939388275146,None,,,,,0,0,0,0,0,123,123,53,709.5698075294495,,,,,,,,,,,,,,,,,,,,,,,,,,,,,,,,,,,,,,,,,,,,,,,,,,,,,,,,,,,,,,,,,,,,,,,,,,,,,,,,,127.0,127.0,200.0,125.0,125.0,200.0,4.0,4.2,-222,-2,0,-272,258,5,709.5531256198883,709.5532808303833,709.5566835403442,709.5698075294495,709.7078511714935,709.7078511714935,709.7078511714935,709.7078511714935,709.7078511714935,709.7078511714935,709.7078511714935,710.7257452011108,2,1.1480939388275146,None,,,,,,,,,,,,,,,,,,90,6,2025-02-24_11h00.21.329,comp,2024.2.4,57.859731359384426,2025-02-24 11h00.31.634141 -0500,
124,124,0,critical,hwd,35.0,3.0,lower,133.0,57.0,57.0,133.0,70.0,70.0,2,4.678443670272827,None,,,,,0,0,0,0,0,124,124,98,710.742428779602,,,,,,,,,,,,,,,,,,,,,,,,,,,,,,,,,,,,,,,,,,,,,,,,,,,,,,,,,,,,,,,,,,,,,,,,,,,,,,,,,133.0,57.0,57.0,133.0,70.0,70.0,3.0,3.2,-191,-277,0,16,198,282,710.7273545265198,710.7274441719055,710.7308440208435,710.742428779602,710.8923757076263,710.8923757076263,710.8923757076263,710.8923757076263,710.8923757076263,710.8923757076263,710.8923757076263,715.4335865974426,2,4.678443670272827,None,,,,,,,,,,,,,,,,,,90,6,2025-02-24_11h00.21.329,comp,2024.2.4,57.859731359384426,2025-02-24 11h00.31.634141 -0500,
125,125,0,filler_random,None,None,None,None,None,None,None,None,None,None,1,1.4025390148162842,None,,,,,0,0,0,0,0,125,125,139,715.4514107704163,,,,,,,,,,,,,,,,,,,,,,,,,,,,,,,,,,,,,,,,,,,,,,,,,,,,,,,,,,,,,,,,,,,,,,,,,,,,,,,,,138.8664476218285,125.61252517022373,157.8439030797581,75.57587438201165,80.72243189436983,103.62746354265525,4.0,4.1,-197,-259,0,20,186,-286,715.4352486133575,715.4353260993958,715.4383137226105,715.4514107704163,715.5955722332001,715.5955722332001,715.5955722332001,715.5955722332001,715.5955722332001,715.5955722332001,715.5955722332001,716.8632509708405,1,1.4025390148162842,None,,,,,,,,,,,,,,,,,,90,6,2025-02-24_11h00.21.329,comp,2024.2.4,57.859731359384426,2025-02-24 11h00.31.634141 -0500,
126,126,0,filler_square,None,None,None,None,None,None,None,None,None,None,2,1.3649587631225586,None,,,,,0,0,0,0,0,126,126,196,716.8805418014526,,,,,,,,,,,,,,,,,,,,,,,,,,,,,,,,,,,,,,,,,,,,,,,,,,,,,,,,,,,,,,,,,,,,,,,,,,,,,,,,,62.761368027369876,71.84525125091032,109.13923803722842,109.13923803722842,75.36345281269615,90.64138095382852,3.0,3.2,-186,-275,0,12,196,266,716.8651940822601,716.8652732372284,716.8690507411957,716.8805418014526,717.0290265083313,717.0290265083313,717.0290265083313,717.0290265083313,717.0290265083313,717.0290265083313,717.0290265083313,718.2538080215454,2,1.3649587631225586,None,,,,,,,,,,,,,,,,,,90,6,2025-02-24_11h00.21.329,comp,2024.2.4,57.859731359384426,2025-02-24 11h00.31.634141 -0500,
127,127,0,filler_random,None,None,None,None,None,None,None,None,None,None,3,1.593822956085205,None,,,,,0,0,0,0,0,127,127,137,718.2750418186188,,,,,,,,,,,,,,,,,,,,,,,,,,,,,,,,,,,,,,,,,,,,,,,,,,,,,,,,,,,,,,,,,,,,,,,,,,,,,,,,,87.73488204561968,142.14917354189384,83.51362995168462,75.64128797388608,104.69537567696243,150.57530918244407,2.2,2.21,-205,-264,0,261,209,286,718.2556791305542,718.2557578086853,718.2591717243195,718.2750418186188,718.408303976059,718.408303976059,718.408303976059,718.408303976059,718.408303976059,718.408303976059,718.408303976059,719.8827295303345,3,1.593822956085205,None,,,,,,,,,,,,,,,,,,90,6,2025-02-24_11h00.21.329,comp,2024.2.4,57.859731359384426,2025-02-24 11h00.31.634141 -0500,
128,128,0,critical,dwh,20.0,3.0,lower,78.0,78.0,57.0,133.0,133.0,57.0,3,2.5982189178466797,None,,,,,0,0,0,0,0,128,128,68,719.9026036262512,,,,,,,,,,,,,,,,,,,,,,,,,,,,,,,,,,,,,,,,,,,,,,,,,,,,,,,,,,,,,,,,,,,,,,,,,,,,,,,,,78.0,78.0,57.0,133.0,133.0,57.0,3.0,3.2,-202,-282,0,8,191,256,719.8842821121216,719.8843610286713,719.8875613212585,719.9026036262512,720.045241355896,720.045241355896,720.045241355896,720.045241355896,720.045241355896,720.045241355896,720.045241355896,722.5127372741699,3,2.5982189178466797,None,,,,,,,,,,,,,,,,,,90,6,2025-02-24_11h00.21.329,comp,2024.2.4,57.859731359384426,2025-02-24 11h00.31.634141 -0500,
129,129,0,critical,hwd,20.0,4.0,upper,200.0,125.0,125.0,200.0,141.0,141.0,2,3.184767484664917,None,,,,,0,0,0,0,0,129,129,107,722.5322556495667,,,,,,,,,,,,,,,,,,,,,,,,,,,,,,,,,,,,,,,,,,,,,,,,,,,,,,,,,,,,,,,,,,,,,,,,,,,,,,,,,200.0,125.0,125.0,200.0,141.0,141.0,4.0,4.2,-258,-6,0,-271,266,18,722.514214515686,722.5142903327942,722.5174305438995,722.5322556495667,722.6802806854248,722.6802806854248,722.6802806854248,722.6802806854248,722.6802806854248,722.6802806854248,722.6802806854248,725.7312309741974,2,3.184767484664917,None,,,,,,,,,,,,,,,,,,90,6,2025-02-24_11h00.21.329,comp,2024.2.4,57.859731359384426,2025-02-24 11h00.31.634141 -0500,
130,130,0,critical,dwh,35.0,3.0,lower,70.0,70.0,57.0,133.0,133.0,57.0,2,2.3465046882629395,None,,,,,0,0,0,0,0,130,130,62,725.7464699745178,,,,,,,,,,,,,,,,,,,,,,,,,,,,,,,,,,,,,,,,,,,,,,,,,,,,,,,,,,,,,,,,,,,,,,,,,,,,,,,,,70.0,70.0,57.0,133.0,133.0,57.0,3.0,3.1,-198,264,0,16,191,-260,725.7327198982239,725.7327961921692,725.7362561225891,725.7464699745178,725.8977379798889,725.8977379798889,725.8977379798889,725.8977379798889,725.8977379798889,725.8977379798889,725.8977379798889,728.1137421131134,2,2.3465046882629395,None,,,,,,,,,,,,,,,,,,90,6,2025-02-24_11h00.21.329,comp,2024.2.4,57.859731359384426,2025-02-24 11h00.31.634141 -0500,
131,131,0,critical,wdh,20.0,2.1,upper,125.0,200.0,141.0,141.0,200.0,125.0,3,6.7509236335754395,None,,,,,0,0,0,0,0,131,131,35,728.1342360973358,,,,,,,,,,,,,,,,,,,,,,,,,,,,,,,,,,,,,,,,,,,,,,,,,,,,,,,,,,,,,,,,,,,,,,,,,,,,,,,,,125.0,200.0,141.0,141.0,200.0,125.0,2.1,2.12,-266,-286,0,-282,229,251,728.1153476238251,728.1154201030731,728.118869304657,728.1342360973358,728.2659356594086,728.2659356594086,728.2659356594086,728.2659356594086,728.2659356594086,728.2659356594086,728.2659356594086,734.8885431289673,3,6.7509236335754395,None,,,,,,,,,,,,,,,,,,90,6,2025-02-24_11h00.21.329,comp,2024.2.4,57.859731359384426,2025-02-24 11h00.31.634141 -0500,
132,132,0,critical,wdh,35.0,2.1,upper,125.0,200.0,127.0,127.0,200.0,125.0,3,4.091138124465942,None,,,,,0,0,0,0,0,132,132,33,734.9062759876251,,,,,,,,,,,,,,,,,,,,,,,,,,,,,,,,,,,,,,,,,,,,,,,,,,,,,,,,,,,,,,,,,,,,,,,,,,,,,,,,,125.0,200.0,127.0,127.0,200.0,125.0,2.1,2.11,-260,289,0,250,222,-272,734.8900008201599,734.8900780677795,734.8930907249451,734.9062759876251,735.0513887405396,735.0513887405396,735.0513887405396,735.0513887405396,735.0513887405396,735.0513887405396,735.0513887405396,739.008109331131,3,4.091138124465942,None,,,,,,,,,,,,,,,,,,90,6,2025-02-24_11h00.21.329,comp,2024.2.4,57.859731359384426,2025-02-24 11h00.31.634141 -0500,
133,133,0,critical,hwd,20.0,2.1,lower,133.0,57.0,57.0,133.0,78.0,78.0,2,5.07302713394165,None,,,,,0,0,0,0,0,133,133,42,739.0282490253448,,,,,,,,,,,,,,,,,,,,,,,,,,,,,,,,,,,,,,,,,,,,,,,,,,,,,,,,,,,,,,,,,,,,,,,,,,,,,,,,,133.0,57.0,57.0,133.0,78.0,78.0,2.1,2.11,-191,272,0,262,202,-255,739.0096328258514,739.009724855423,739.0126876831055,739.0282490253448,739.1689541339874,739.1689541339874,739.1689541339874,739.1689541339874,739.1689541339874,739.1689541339874,739.1689541339874,744.1034414768219,2,5.07302713394165,None,,,,,,,,,,,,,,,,,,90,6,2025-02-24_11h00.21.329,comp,2024.2.4,57.859731359384426,2025-02-24 11h00.31.634141 -0500,
134,134,0,critical,dwh,35.0,4.0,lower,70.0,70.0,57.0,133.0,133.0,57.0,2,3.3376331329345703,None,,,,,0,0,0,0,0,134,134,64,744.1235156059265,,,,,,,,,,,,,,,,,,,,,,,,,,,,,,,,,,,,,,,,,,,,,,,,,,,,,,,,,,,,,,,,,,,,,,,,,,,,,,,,,70.0,70.0,57.0,133.0,133.0,57.0,4.0,4.2,-198,-5,0,-275,191,-11,744.1050012111664,744.1050810813904,744.1083810329437,744.1235156059265,744.270124912262,744.270124912262,744.270124912262,744.270124912262,744.270124912262,744.270124912262,744.270124912262,747.4703285694122,2,3.3376331329345703,None,,,,,,,,,,,,,,,,,,90,6,2025-02-24_11h00.21.329,comp,2024.2.4,57.859731359384426,2025-02-24 11h00.31.634141 -0500,
135,135,0,critical,whd,20.0,3.0,upper,125.0,200.0,200.0,125.0,141.0,141.0,1,11.198796272277832,None,,,,,0,0,0,0,0,135,135,93,747.4869694709778,,,,,,,,,,,,,,,,,,,,,,,,,,,,,,,,,,,,,,,,,,,,,,,,,,,,,,,,,,,,,,,,,,,,,,,,,,,,,,,,,125.0,200.0,200.0,125.0,141.0,141.0,3.0,3.1,-258,268,0,15,229,-277,747.4717824459076,747.4718618392944,747.4751267433167,747.4869694709778,747.6446843147278,747.6446843147278,747.6446843147278,747.6446843147278,747.6446843147278,747.6446843147278,747.6446843147278,758.6922707557678,1,11.198796272277832,None,,,,,,,,,,,,,,,,,,90,6,2025-02-24_11h00.21.329,comp,2024.2.4,57.859731359384426,2025-02-24 11h00.31.634141 -0500,
136,136,0,filler_random,None,None,None,None,None,None,None,None,None,None,1,1.4240479469299316,None,,,,,0,0,0,0,0,136,136,147,758.7088716030121,,,,,,,,,,,,,,,,,,,,,,,,,,,,,,,,,,,,,,,,,,,,,,,,,,,,,,,,,,,,,,,,,,,,,,,,,,,,,,,,,116.56214795296172,123.37723118253743,76.61032540758487,97.28040655727723,112.76655458263758,92.8834422080368,1.0,1.3,274,-254,480,-284,671,-276,758.6939845085144,758.6940660476685,758.6981728076935,758.7088716030121,758.8680391311646,758.8680391311646,758.8680391311646,758.8680391311646,758.8680391311646,758.8680391311646,758.8680391311646,760.1496782302856,1,1.4240479469299316,None,,,,,,,,,,,,,,,,,,90,6,2025-02-24_11h00.21.329,comp,2024.2.4,57.859731359384426,2025-02-24 11h00.31.634141 -0500,
137,137,0,critical,wdh,20.0,4.0,lower,57.0,133.0,78.0,78.0,133.0,57.0,1,2.3660850524902344,None,,,,,0,0,0,0,0,137,137,82,760.1676905155182,,,,,,,,,,,,,,,,,,,,,,,,,,,,,,,,,,,,,,,,,,,,,,,,,,,,,,,,,,,,,,,,,,,,,,,,,,,,,,,,,57.0,133.0,78.0,78.0,133.0,57.0,4.0,4.2,-202,18,0,-286,164,-18,760.1512031555176,760.1512773036957,760.1546897888184,760.1676905155182,760.3062391281128,760.3062391281128,760.3062391281128,760.3062391281128,760.3062391281128,760.3062391281128,760.3062391281128,762.5442519187927,1,2.3660850524902344,None,,,,,,,,,,,,,,,,,,90,6,2025-02-24_11h00.21.329,comp,2024.2.4,57.859731359384426,2025-02-24 11h00.31.634141 -0500,
138,138,0,filler_square,None,None,None,None,None,None,None,None,None,None,3,1.6048834323883057,None,,,,,0,0,0,0,0,138,138,188,762.56090259552,,,,,,,,,,,,,,,,,,,,,,,,,,,,,,,,,,,,,,,,,,,,,,,,,,,,,,,,,,,,,,,,,,,,,,,,,,,,,,,,,131.78791136769436,82.03146321317054,134.77622985093336,89.89053124341436,161.9525290208275,161.9525290208275,2.2,2.22,-182,279,0,-266,222,-272,762.5463013648987,762.5463817119598,762.5500400066376,762.56090259552,762.7096548080444,762.7096548080444,762.7096548080444,762.7096548080444,762.7096548080444,762.7096548080444,762.7096548080444,764.1755812168121,3,1.6048834323883057,None,,,,,,,,,,,,,,,,,,90,6,2025-02-24_11h00.21.329,comp,2024.2.4,57.859731359384426,2025-02-24 11h00.31.634141 -0500,
139,139,0,filler_square,None,None,None,None,None,None,None,None,None,None,2,1.386918067932129,None,,,,,0,0,0,0,0,139,139,174,764.1964638233185,,,,,,,,,,,,,,,,,,,,,,,,,,,,,,,,,,,,,,,,,,,,,,,,,,,,,,,,,,,,,,,,,,,,,,,,,,,,,,,,,77.2309223866946,140.20098822432522,178.23364551145738,178.23364551145738,139.55407607405252,110.02573892159958,3.0,3.1,-255,282,0,-4,240,-266,764.1773183345795,764.1773974895477,764.1807088851929,764.1964638233185,764.3428680896759,764.3428680896759,764.3428680896759,764.3428680896759,764.3428680896759,764.3428680896759,764.3428680896759,765.5941994190216,2,1.386918067932129,None,,,,,,,,,,,,,,,,,,90,6,2025-02-24_11h00.21.329,comp,2024.2.4,57.859731359384426,2025-02-24 11h00.31.634141 -0500,
140,140,0,critical,hwd,20.0,2.1,upper,200.0,125.0,125.0,200.0,141.0,141.0,2,2.9229421615600586,None,,,,,0,0,0,0,0,140,140,19,765.6105391979218,,,,,,,,,,,,,,,,,,,,,,,,,,,,,,,,,,,,,,,,,,,,,,,,,,,,,,,,,,,,,,,,,,,,,,,,,,,,,,,,,200.0,125.0,125.0,200.0,141.0,141.0,2.1,2.12,-258,-264,0,-277,266,267,765.5957477092743,765.5958240032196,765.5999565124512,765.6105391979218,765.769091129303,765.769091129303,765.769091129303,765.769091129303,765.769091129303,765.769091129303,765.769091129303,768.5378820896149,2,2.9229421615600586,None,,,,,,,,,,,,,,,,,,90,6,2025-02-24_11h00.21.329,comp,2024.2.4,57.859731359384426,2025-02-24 11h00.31.634141 -0500,
141,141,0,catch,None,None,None,None,None,None,None,None,None,None,1,1.0182971954345703,None,,,,,0,0,0,0,0,141,141,122,768.5551295280457,,,,,,,,,,,,,,,,,,,,,,,,,,,,,,,,,,,,,,,,,,,,,,,,,,,,,,,,,,,,,,,,,,,,,,,,,,,,,,,,,141,184,131,59,88,102,3.0,3.1,-218,271,0,13,176,-279,768.5399925708771,768.5400712490082,768.5435664653778,768.5551295280457,768.6955828666687,768.6955828666687,768.6955828666687,768.6955828666687,768.6955828666687,768.6955828666687,768.6955828666687,769.5787951946259,1,1.0182971954345703,None,,,,,,,,,,,,,,,,,,90,6,2025-02-24_11h00.21.329,comp,2024.2.4,57.859731359384426,2025-02-24 11h00.31.634141 -0500,
