thisN,thisTrialN,thisRepN,effect,order,distance,config,diag,h_1,w_1,h_2,w_2,h_3,w_3,rect_choice.keys,rect_choice.rt,rect_choice.duration,instructions_loop.thisRepN,instructions_loop.thisTrialN,instructions_loop.thisN,instructions_loop.thisIndex,blocks.thisRepN,blocks.thisTrialN,blocks.thisN,blocks.thisIndex,trials.thisRepN,trials.thisTrialN,trials.thisN,trials.thisIndex,thisRow.t,notes,consent.started,agree_button.started,decline_button.started,consent_img.started,mouse.started,consent.stopped,agree_button.numClicks,agree_button.timesOn,agree_button.timesOff,decline_button.numClicks,decline_button.timesOn,decline_button.timesOff,mouse.x,mouse.y,mouse.leftButton,mouse.midButton,mouse.rightButton,mouse.time,mouse.clicked_name,exp_params.started,exp_params.stopped,welcome.started,welcome_text.started,welcome.stopped,instructions_1.started,instructions_1_text_1.started,instructions_1_text_2.started,key_resp.started,instructions_1.stopped,instructions_loop.key_resp.keys,instructions_loop.key_resp.rt,instructions_loop.key_resp.duration,instructions_2.started,instructions_2_text_1.started,instructions_2_text_2.started,key_resp_2.started,instructions_2.stopped,instructions_loop.key_resp_2.keys,instructions_loop.key_resp_2.rt,instructions_loop.key_resp_2.duration,instructions_3.started,instructions_3_text_1.started,r1_instr3.started,r2_instr3.started,r3_instr3.started,r1_instr3_label.started,r2_instr3_label.started,r3_instr3_label.started,instructions_3_text_3.started,instructions_3_text_4.started,key_resp_3.started,instructions_3.stopped,instructions_loop.key_resp_3.keys,instructions_loop.key_resp_3.rt,instructions_loop.key_resp_3.duration,instructions_4.started,instructions_4_text_1.started,instructions_4_text_3.started,instructions_4_text_2.started,key_resp_4.started,instructions_4.stopped,instructions_loop.key_resp_4.keys,instructions_loop.key_resp_4.rt,instructions_loop.key_resp_4.duration,instructions_5.started,instructions_5_text_1.started,instructions_5_text_2.started,key_resp_5.started,instructions_5.stopped,instructions_loop.key_resp_5.keys,instructions_loop.key_resp_5.rt,instructions_loop.key_resp_5.duration,start_exp.started,start_exp_text.started,key_resp_6.started,start_exp.stopped,key_resp_6.keys,key_resp_6.rt,key_resp_6.duration,h_1_tmp,w_1_tmp,h_2_tmp,w_2_tmp,h_3_tmp,w_3_tmp,config_tmp,config_tmp_1,r_1_x,r_1_y,r_2_x,r_2_y,r_3_x,r_3_y,pre_trial.started,pre_trial.stopped,choice_trial.started,rect_choice.started,r_1.started,r_2.started,r_3.started,r_1_label.started,r_2_label.started,r_3_label.started,prompt.started,choice_trial.stopped,trials.rect_choice.keys,trials.rect_choice.rt,trials.rect_choice.duration,end_block.started,end_block_text.started,end_block.stopped,end.started,end_text.started,key_resp_7.started,end.stopped,key_resp_7.keys,key_resp_7.rt,key_resp_7.duration,debriefing.started,debrief_form.started,end_debrief.started,debriefing.stopped,end_debrief.keys,end_debrief.rt,end_debrief.duration,participant,computer,date,expName,psychopyVersion,frameRate,expStart,
,,,,,,,,,,,,,,,,,,,,,,,,,,,,,,,0.014756202697753906,0.037386178970336914,0.037386178970336914,0.037386178970336914,0.014556407928466797,13.793629884719849,1,[13.753933906555176],[13.753955602645874],0,,,[-104.0],[-519.0],[1],[0],[0],[13.77834939956665],['agree_button'],,,,,,,,,,,,,,,,,,,,,,,,,,,,,,,,,,,,,,,,,,,,,,,,,,,,,,,,,,,,,,,,,,,,,,,,,,,,,,,,,,,,,,,,,,,,,,,,,,,,,,,,,,,91,2,2025-02-24_11h01.26.355,comp,2024.2.4,56.445306927708415,2025-02-24 11h01.34.630589 -0500,
,,,,,,,,,,,,,,,,,,,,,,,,,,,,,,,,,,,,,,,,,,,,,,,,,,13.794172763824463,13.794239044189453,,,,,,,,,,,,,,,,,,,,,,,,,,,,,,,,,,,,,,,,,,,,,,,,,,,,,,,,,,,,,,,,,,,,,,,,,,,,,,,,,,,,,,,,,,,,,,,,,,,,,,,,,91,2,2025-02-24_11h01.26.355,comp,2024.2.4,56.445306927708415,2025-02-24 11h01.34.630589 -0500,
,,,,,,,,,,,,,,,,,,,,,,,,,,,,,,,,,,,,,,,,,,,,,,,,,,,,13.794281005859375,13.811688899993896,15.79828667640686,,,,,,,,,,,,,,,,,,,,,,,,,,,,,,,,,,,,,,,,,,,,,,,,,,,,,,,,,,,,,,,,,,,,,,,,,,,,,,,,,,,,,,,,,,,,,,,,,,,,,,91,2,2025-02-24_11h01.26.355,comp,2024.2.4,56.445306927708415,2025-02-24 11h01.34.630589 -0500,
0,0,0,,,,,,,,,,,,,,,0,0,0,0,,,,,,,,,15.816168308258057,,,,,,,,,,,,,,,,,,,,,,,,,,15.799279689788818,15.816168308258057,15.816168308258057,17.30792236328125,18.894397974014282,space,1.5817780494689941,None,18.894548416137695,18.911530256271362,18.911530256271362,20.408725023269653,25.463302850723267,space,5.049466371536255,None,25.46345543861389,25.491508960723877,25.491508960723877,25.491508960723877,25.491508960723877,25.491508960723877,25.491508960723877,25.491508960723877,25.491508960723877,25.491508960723877,26.963230848312378,29.470422744750977,space,2.486272096633911,None,29.470580339431763,29.492001056671143,29.492001056671143,29.492001056671143,30.977837085723877,33.96563506126404,space,2.9769484996795654,None,33.965789794921875,33.98174238204956,33.98174238204956,35.46499443054199,36.967368841171265,space,1.4886736869812012,None,36.96756553649902,36.9819118976593,36.9819118976593,38.03361248970032,space,1.0441055297851562,None,,,,,,,,,,,,,,,,,,,,,,,,,,,,,,,,,,,,,,,,,,,,,,,91,2,2025-02-24_11h01.26.355,comp,2024.2.4,56.445306927708415,2025-02-24 11h01.34.630589 -0500,
0,0,0,critical,whd,35.0,2.1,upper,125.0,200.0,200.0,125.0,127.0,127.0,1,5.7010297775268555,None,,,,,0,0,0,0,0,0,0,37,38.109503746032715,,,,,,,,,,,,,,,,,,,,,,,,,,,,,,,,,,,,,,,,,,,,,,,,,,,,,,,,,,,,,,,,,,,,,,,,,,,,,,,,,125.0,200.0,200.0,125.0,127.0,127.0,2.1,2.12,-258,-258,0,-280,222,275,38.09308862686157,38.09311580657959,38.094061613082886,38.109503746032715,38.25883674621582,38.25883674621582,38.25883674621582,38.25883674621582,38.25883674621582,38.25883674621582,38.25883674621582,43.8196063041687,1,5.7010297775268555,None,,,,,,,,,,,,,,,,,,91,2,2025-02-24_11h01.26.355,comp,2024.2.4,56.445306927708415,2025-02-24 11h01.34.630589 -0500,
1,1,0,filler_square,None,None,None,None,None,None,None,None,None,None,3,4.526042938232422,None,,,,,0,0,0,0,0,1,1,178,43.835476875305176,,,,,,,,,,,,,,,,,,,,,,,,,,,,,,,,,,,,,,,,,,,,,,,,,,,,,,,,,,,,,,,,,,,,,,,,,,,,,,,,,106.51286470773154,97.36843544240095,82.86874861609553,89.01150171631082,134.74294818799163,134.74294818799163,2.2,2.21,-189,-259,0,268,208,287,43.82124042510986,43.82129168510437,43.824479818344116,43.835476875305176,43.98986577987671,43.98986577987671,43.98986577987671,43.98986577987671,43.98986577987671,43.98986577987671,43.98986577987671,48.36464190483093,3,4.526042938232422,None,,,,,,,,,,,,,,,,,,91,2,2025-02-24_11h01.26.355,comp,2024.2.4,56.445306927708415,2025-02-24 11h01.34.630589 -0500,
2,2,0,critical,dhw,20.0,3.0,lower,78.0,78.0,133.0,57.0,57.0,133.0,3,9.971713066101074,None,,,,,0,0,0,0,0,2,2,56,48.382102966308594,,,,,,,,,,,,,,,,,,,,,,,,,,,,,,,,,,,,,,,,,,,,,,,,,,,,,,,,,,,,,,,,,,,,,,,,,,,,,,,,,78.0,78.0,133.0,57.0,57.0,133.0,3.0,3.1,-164,256,0,-12,191,-263,48.36611533164978,48.366190910339355,48.36895728111267,48.382102966308594,48.52612495422363,48.52612495422363,48.52612495422363,48.52612495422363,48.52612495422363,48.52612495422363,48.52612495422363,58.3727765083313,3,9.971713066101074,None,,,,,,,,,,,,,,,,,,91,2,2025-02-24_11h01.26.355,comp,2024.2.4,56.445306927708415,2025-02-24 11h01.34.630589 -0500,
3,3,0,critical,wdh,35.0,3.0,upper,125.0,200.0,127.0,127.0,200.0,125.0,1,4.571752309799194,None,,,,,0,0,0,0,0,3,3,75,58.398473262786865,,,,,,,,,,,,,,,,,,,,,,,,,,,,,,,,,,,,,,,,,,,,,,,,,,,,,,,,,,,,,,,,,,,,,,,,,,,,,,,,,125.0,200.0,127.0,127.0,200.0,125.0,3.0,3.1,-260,286,0,0,222,-289,58.374372482299805,58.3744478225708,58.377894163131714,58.398473262786865,58.52833008766174,58.52833008766174,58.52833008766174,58.52833008766174,58.52833008766174,58.52833008766174,58.52833008766174,62.97484350204468,1,4.571752309799194,None,,,,,,,,,,,,,,,,,,91,2,2025-02-24_11h01.26.355,comp,2024.2.4,56.445306927708415,2025-02-24 11h01.34.630589 -0500,
4,4,0,critical,hdw,20.0,3.0,upper,200.0,125.0,141.0,141.0,125.0,200.0,3,3.482917308807373,None,,,,,0,0,0,0,0,4,4,117,62.99053072929382,,,,,,,,,,,,,,,,,,,,,,,,,,,,,,,,,,,,,,,,,,,,,,,,,,,,,,,,,,,,,,,,,,,,,,,,,,,,,,,,,200.0,125.0,141.0,141.0,125.0,200.0,3.0,3.1,-229,267,0,5,266,-289,62.976317167282104,62.976391077041626,62.979705572128296,62.99053072929382,63.14107966423035,63.14107966423035,63.14107966423035,63.14107966423035,63.14107966423035,63.14107966423035,63.14107966423035,66.47581696510315,3,3.482917308807373,None,,,,,,,,,,,,,,,,,,91,2,2025-02-24_11h01.26.355,comp,2024.2.4,56.445306927708415,2025-02-24 11h01.34.630589 -0500,
5,5,0,filler_random,None,None,None,None,None,None,None,None,None,None,3,3.206934690475464,None,,,,,0,0,0,0,0,5,5,169,66.49174952507019,,,,,,,,,,,,,,,,,,,,,,,,,,,,,,,,,,,,,,,,,,,,,,,,,,,,,,,,,,,,,,,,,,,,,,,,,,,,,,,,,160.65895188456963,121.15353789497449,187.60557179245257,158.9599473824107,179.2721827972079,166.7898495019221,3.0,3.1,-236,260,0,15,259,-255,66.4774911403656,66.47756576538086,66.4809422492981,66.49174952507019,66.64667510986328,66.64667510986328,66.64667510986328,66.64667510986328,66.64667510986328,66.64667510986328,66.64667510986328,69.71565246582031,3,3.206934690475464,None,,,,,,,,,,,,,,,,,,91,2,2025-02-24_11h01.26.355,comp,2024.2.4,56.445306927708415,2025-02-24 11h01.34.630589 -0500,
6,6,0,filler_square,None,None,None,None,None,None,None,None,None,None,2,3.0858380794525146,None,,,,,0,0,0,0,0,6,6,207,69.73162388801575,,,,,,,,,,,,,,,,,,,,,,,,,,,,,,,,,,,,,,,,,,,,,,,,,,,,,,,,,,,,,,,,,,,,,,,,,,,,,,,,,101.47165662466833,72.5661736830823,123.59401146072855,123.59401146072855,104.0489782912164,89.38627433417285,3.0,3.2,-194,-266,0,17,202,268,69.71742463111877,69.7174985408783,69.72036528587341,69.73162388801575,69.87723469734192,69.87723469734192,69.87723469734192,69.87723469734192,69.87723469734192,69.87723469734192,69.87723469734192,72.82760620117188,2,3.0858380794525146,None,,,,,,,,,,,,,,,,,,91,2,2025-02-24_11h01.26.355,comp,2024.2.4,56.445306927708415,2025-02-24 11h01.34.630589 -0500,
7,7,0,critical,wdh,20.0,2.1,upper,125.0,200.0,141.0,141.0,200.0,125.0,1,5.414101839065552,None,,,,,0,0,0,0,0,7,7,35,72.84420108795166,,,,,,,,,,,,,,,,,,,,,,,,,,,,,,,,,,,,,,,,,,,,,,,,,,,,,,,,,,,,,,,,,,,,,,,,,,,,,,,,,125.0,200.0,141.0,141.0,200.0,125.0,2.1,2.12,-266,-256,0,-257,229,264,72.82933020591736,72.82942128181458,72.83264994621277,72.84420108795166,72.99252247810364,72.99252247810364,72.99252247810364,72.99252247810364,72.99252247810364,72.99252247810364,72.99252247810364,78.26634955406189,1,5.414101839065552,None,,,,,,,,,,,,,,,,,,91,2,2025-02-24_11h01.26.355,comp,2024.2.4,56.445306927708415,2025-02-24 11h01.34.630589 -0500,
8,8,0,catch,None,None,None,None,None,None,None,None,None,None,3,2.7486865520477295,None,,,,,0,0,0,0,0,8,8,122,78.28500366210938,,,,,,,,,,,,,,,,,,,,,,,,,,,,,,,,,,,,,,,,,,,,,,,,,,,,,,,,,,,,,,,,,,,,,,,,,,,,,,,,,97,93,81,109,152,173,2.2,2.22,-197,288,0,-269,237,-275,78.26840925216675,78.26850962638855,78.27181267738342,78.28500366210938,78.42991900444031,78.42991900444031,78.42991900444031,78.42991900444031,78.42991900444031,78.42991900444031,78.42991900444031,81.0464837551117,3,2.7486865520477295,None,,,,,,,,,,,,,,,,,,91,2,2025-02-24_11h01.26.355,comp,2024.2.4,56.445306927708415,2025-02-24 11h01.34.630589 -0500,
9,9,0,catch,None,None,None,None,None,None,None,None,None,None,2,1.6488375663757324,None,,,,,0,0,0,0,0,9,9,123,81.06492590904236,,,,,,,,,,,,,,,,,,,,,,,,,,,,,,,,,,,,,,,,,,,,,,,,,,,,,,,,,,,,,,,,,,,,,,,,,,,,,,,,,108,82,195,130,117,73,3.0,3.1,-202,266,0,-16,198,-253,81.0485188961029,81.04859066009521,81.05172181129456,81.06492590904236,81.20208477973938,81.20208477973938,81.20208477973938,81.20208477973938,81.20208477973938,81.20208477973938,81.20208477973938,82.73111748695374,2,1.6488375663757324,None,,,,,,,,,,,,,,,,,,91,2,2025-02-24_11h01.26.355,comp,2024.2.4,56.445306927708415,2025-02-24 11h01.34.630589 -0500,
10,10,0,critical,hdw,20.0,2.1,lower,133.0,57.0,78.0,78.0,57.0,133.0,3,4.871545076370239,None,,,,,0,0,0,0,0,10,10,46,82.74617743492126,,,,,,,,,,,,,,,,,,,,,,,,,,,,,,,,,,,,,,,,,,,,,,,,,,,,,,,,,,,,,,,,,,,,,,,,,,,,,,,,,133.0,57.0,78.0,78.0,57.0,133.0,2.1,2.11,-164,280,0,288,202,-254,82.7325484752655,82.73262119293213,82.73591685295105,82.74617743492126,82.9026997089386,82.9026997089386,82.9026997089386,82.9026997089386,82.9026997089386,82.9026997089386,82.9026997089386,87.62180542945862,3,4.871545076370239,None,,,,,,,,,,,,,,,,,,91,2,2025-02-24_11h01.26.355,comp,2024.2.4,56.445306927708415,2025-02-24 11h01.34.630589 -0500,
11,11,0,filler_random,None,None,None,None,None,None,None,None,None,None,2,1.6581661701202393,None,,,,,0,0,0,0,0,11,11,160,87.63995790481567,,,,,,,,,,,,,,,,,,,,,,,,,,,,,,,,,,,,,,,,,,,,,,,,,,,,,,,,,,,,,,,,,,,,,,,,,,,,,,,,,98.17022437721712,135.439183155251,146.39170927770914,194.0617377292791,88.84382321316274,158.4122613999245,3.0,3.1,-261,254,0,-19,272,-269,87.62345242500305,87.62352776527405,87.62633800506592,87.63995790481567,87.78190636634827,87.78190636634827,87.78190636634827,87.78190636634827,87.78190636634827,87.78190636634827,87.78190636634827,89.30010199546814,2,1.6581661701202393,None,,,,,,,,,,,,,,,,,,91,2,2025-02-24_11h01.26.355,comp,2024.2.4,56.445306927708415,2025-02-24 11h01.34.630589 -0500,
12,12,0,filler_random,None,None,None,None,None,None,None,None,None,None,3,2.557835340499878,None,,,,,0,0,0,0,0,12,12,144,89.3162157535553,,,,,,,,,,,,,,,,,,,,,,,,,,,,,,,,,,,,,,,,,,,,,,,,,,,,,,,,,,,,,,,,,,,,,,,,,,,,,,,,,95.85856623159769,93.54293906404133,150.89964327211723,128.85131023986511,178.54726856900425,119.59529335408192,2.2,2.22,-207,266,0,-266,220,-271,89.30183792114258,89.30191397666931,89.3053081035614,89.3162157535553,89.46781396865845,89.46781396865845,89.46781396865845,89.46781396865845,89.46781396865845,89.46781396865845,89.46781396865845,91.88319873809814,3,2.557835340499878,None,,,,,,,,,,,,,,,,,,91,2,2025-02-24_11h01.26.355,comp,2024.2.4,56.445306927708415,2025-02-24 11h01.34.630589 -0500,
13,13,0,critical,hwd,20.0,3.0,upper,200.0,125.0,125.0,200.0,141.0,141.0,2,2.6438026428222656,None,,,,,0,0,0,0,0,13,13,105,91.90970635414124,,,,,,,,,,,,,,,,,,,,,,,,,,,,,,,,,,,,,,,,,,,,,,,,,,,,,,,,,,,,,,,,,,,,,,,,,,,,,,,,,200.0,125.0,125.0,200.0,141.0,141.0,3.0,3.1,-258,250,0,-8,266,-273,91.88466095924377,91.88473534584045,91.88784289360046,91.90970635414124,92.0513641834259,92.0513641834259,92.0513641834259,92.0513641834259,92.0513641834259,92.0513641834259,92.0513641834259,94.56907916069031,2,2.6438026428222656,None,,,,,,,,,,,,,,,,,,91,2,2025-02-24_11h01.26.355,comp,2024.2.4,56.445306927708415,2025-02-24 11h01.34.630589 -0500,
14,14,0,critical,wdh,35.0,3.0,lower,57.0,133.0,70.0,70.0,133.0,57.0,1,3.6560938358306885,None,,,,,0,0,0,0,0,14,14,74,94.58546948432922,,,,,,,,,,,,,,,,,,,,,,,,,,,,,,,,,,,,,,,,,,,,,,,,,,,,,,,,,,,,,,,,,,,,,,,,,,,,,,,,,57.0,133.0,70.0,70.0,133.0,57.0,3.0,3.1,-198,264,0,18,160,-274,94.57055830955505,94.57063555717468,94.57467746734619,94.58546948432922,94.73621654510498,94.73621654510498,94.73621654510498,94.73621654510498,94.73621654510498,94.73621654510498,94.73621654510498,98.2526741027832,1,3.6560938358306885,None,,,,,,,,,,,,,,,,,,91,2,2025-02-24_11h01.26.355,comp,2024.2.4,56.445306927708415,2025-02-24 11h01.34.630589 -0500,
15,15,0,filler_square,None,None,None,None,None,None,None,None,None,None,3,2.9258480072021484,None,,,,,0,0,0,0,0,15,15,186,98.27037215232849,,,,,,,,,,,,,,,,,,,,,,,,,,,,,,,,,,,,,,,,,,,,,,,,,,,,,,,,,,,,,,,,,,,,,,,,,,,,,,,,,68.8140565082777,60.679657677584125,92.96054776399916,61.01592390834825,97.78704168863581,97.78704168863581,1.0,1.1,-637,259,-480,278,-305,279,98.25471758842468,98.25479745864868,98.25809526443481,98.27037215232849,98.42853903770447,98.42853903770447,98.42853903770447,98.42853903770447,98.42853903770447,98.42853903770447,98.42853903770447,101.20442581176758,3,2.9258480072021484,None,,,,,,,,,,,,,,,,,,91,2,2025-02-24_11h01.26.355,comp,2024.2.4,56.445306927708415,2025-02-24 11h01.34.630589 -0500,
16,16,0,critical,wdh,35.0,4.0,upper,125.0,200.0,127.0,127.0,200.0,125.0,1,3.2160134315490723,None,,,,,0,0,0,0,0,16,16,77,101.22583079338074,,,,,,,,,,,,,,,,,,,,,,,,,,,,,,,,,,,,,,,,,,,,,,,,,,,,,,,,,,,,,,,,,,,,,,,,,,,,,,,,,125.0,200.0,127.0,127.0,200.0,125.0,4.0,4.1,-260,-278,0,3,222,-269,101.20586276054382,101.20593619346619,101.2089102268219,101.22583079338074,101.36929821968079,101.36929821968079,101.36929821968079,101.36929821968079,101.36929821968079,101.36929821968079,101.36929821968079,104.45054531097412,1,3.2160134315490723,None,,,,,,,,,,,,,,,,,,91,2,2025-02-24_11h01.26.355,comp,2024.2.4,56.445306927708415,2025-02-24 11h01.34.630589 -0500,
17,17,0,filler_random,None,None,None,None,None,None,None,None,None,None,3,2.9975717067718506,None,,,,,0,0,0,0,0,17,17,140,104.46866703033447,,,,,,,,,,,,,,,,,,,,,,,,,,,,,,,,,,,,,,,,,,,,,,,,,,,,,,,,,,,,,,,,,,,,,,,,,,,,,,,,,174.4580786681992,110.23207014342225,85.656917351163,180.61859350404944,186.11394040177734,146.37668576096615,1.0,1.2,-241,-17,0,18,259,-10,104.45234513282776,104.45247006416321,104.45571899414062,104.46866703033447,104.60975813865662,104.60975813865662,104.60975813865662,104.60975813865662,104.60975813865662,104.60975813865662,104.60975813865662,107.47403240203857,3,2.9975717067718506,None,,,,,,,,,,,,,,,,,,91,2,2025-02-24_11h01.26.355,comp,2024.2.4,56.445306927708415,2025-02-24 11h01.34.630589 -0500,
18,18,0,filler_random,None,None,None,None,None,None,None,None,None,None,2,2.0243048667907715,None,,,,,0,0,0,0,0,18,18,161,107.48982977867126,,,,,,,,,,,,,,,,,,,,,,,,,,,,,,,,,,,,,,,,,,,,,,,,,,,,,,,,,,,,,,,,,,,,,,,,,,,,,,,,,76.57776017252692,106.8254806581723,108.28887508934554,168.363691716846,119.57639497709152,86.95988399280944,3.0,3.1,-234,255,0,-4,224,-256,107.4761483669281,107.47622752189636,107.47917127609253,107.48982977867126,107.63850522041321,107.63850522041321,107.63850522041321,107.63850522041321,107.63850522041321,107.63850522041321,107.63850522041321,109.52343225479126,2,2.0243048667907715,None,,,,,,,,,,,,,,,,,,91,2,2025-02-24_11h01.26.355,comp,2024.2.4,56.445306927708415,2025-02-24 11h01.34.630589 -0500,
19,19,0,critical,hdw,35.0,3.0,upper,200.0,125.0,127.0,127.0,125.0,200.0,3,3.0947701930999756,None,,,,,0,0,0,0,0,19,19,111,109.53902912139893,,,,,,,,,,,,,,,,,,,,,,,,,,,,,,,,,,,,,,,,,,,,,,,,,,,,,,,,,,,,,,,,,,,,,,,,,,,,,,,,,200.0,125.0,127.0,127.0,125.0,200.0,3.0,3.2,-222,-275,0,-18,260,285,109.52496099472046,109.52503681182861,109.5283854007721,109.53902912139893,109.68838167190552,109.68838167190552,109.68838167190552,109.68838167190552,109.68838167190552,109.68838167190552,109.68838167190552,112.64134383201599,3,3.0947701930999756,None,,,,,,,,,,,,,,,,,,91,2,2025-02-24_11h01.26.355,comp,2024.2.4,56.445306927708415,2025-02-24 11h01.34.630589 -0500,
20,20,0,critical,wdh,20.0,1.0,upper,125.0,200.0,141.0,141.0,200.0,125.0,1,2.2254550457000732,None,,,,,0,0,0,0,0,20,20,79,112.65698552131653,,,,,,,,,,,,,,,,,,,,,,,,,,,,,,,,,,,,,,,,,,,,,,,,,,,,,,,,,,,,,,,,,,,,,,,,,,,,,,,,,125.0,200.0,141.0,141.0,200.0,125.0,1.0,1.2,-266,-17,0,17,229,-8,112.64282965660095,112.64290523529053,112.64619159698486,112.65698552131653,112.80503916740417,112.80503916740417,112.80503916740417,112.80503916740417,112.80503916740417,112.80503916740417,112.80503916740417,114.88914084434509,1,2.2254550457000732,None,,,,,,,,,,,,,,,,,,91,2,2025-02-24_11h01.26.355,comp,2024.2.4,56.445306927708415,2025-02-24 11h01.34.630589 -0500,
21,21,0,critical,dwh,35.0,2.1,lower,70.0,70.0,57.0,133.0,133.0,57.0,2,4.3202807903289795,None,,,,,0,0,0,0,0,21,21,4,114.90523076057434,,,,,,,,,,,,,,,,,,,,,,,,,,,,,,,,,,,,,,,,,,,,,,,,,,,,,,,,,,,,,,,,,,,,,,,,,,,,,,,,,70.0,70.0,57.0,133.0,133.0,57.0,2.1,2.12,-198,-254,0,-255,191,257,114.89072585105896,114.89079999923706,114.89398527145386,114.90523076057434,115.05135488510132,115.05135488510132,115.05135488510132,115.05135488510132,115.05135488510132,115.05135488510132,115.05135488510132,119.23764061927795,2,4.3202807903289795,None,,,,,,,,,,,,,,,,,,91,2,2025-02-24_11h01.26.355,comp,2024.2.4,56.445306927708415,2025-02-24 11h01.34.630589 -0500,
22,22,0,filler_square,None,None,None,None,None,None,None,None,None,None,2,5.072418689727783,None,,,,,0,0,0,0,0,22,22,198,119.25707983970642,,,,,,,,,,,,,,,,,,,,,,,,,,,,,,,,,,,,,,,,,,,,,,,,,,,,,,,,,,,,,,,,,,,,,,,,,,,,,,,,,57.467995153039084,72.81309837130549,74.98578888634076,74.98578888634076,67.87172479285621,57.92795649501765,4.0,4.2,-170,-8,0,-252,162,-5,119.23933100700378,119.23940658569336,119.24220418930054,119.25707983970642,119.39541459083557,119.39541459083557,119.39541459083557,119.39541459083557,119.39541459083557,119.39541459083557,119.39541459083557,124.34809470176697,2,5.072418689727783,None,,,,,,,,,,,,,,,,,,91,2,2025-02-24_11h01.26.355,comp,2024.2.4,56.445306927708415,2025-02-24 11h01.34.630589 -0500,
23,23,0,filler_random,None,None,None,None,None,None,None,None,None,None,1,4.394214630126953,None,,,,,0,0,0,0,0,23,23,151,124.36774325370789,,,,,,,,,,,,,,,,,,,,,,,,,,,,,,,,,,,,,,,,,,,,,,,,,,,,,,,,,,,,,,,,,,,,,,,,,,,,,,,,,163.59183157373684,145.89452266949118,107.56546494984494,71.79882798593415,102.46988615126526,174.00724358565753,1.0,1.1,-685,255,-480,260,-261,287,124.35021758079529,124.35029411315918,124.35311222076416,124.36774325370789,124.50948143005371,124.50948143005371,124.50948143005371,124.50948143005371,124.50948143005371,124.50948143005371,124.50948143005371,128.7656888961792,1,4.394214630126953,None,,,,,,,,,,,,,,,,,,91,2,2025-02-24_11h01.26.355,comp,2024.2.4,56.445306927708415,2025-02-24 11h01.34.630589 -0500,
24,24,0,critical,wdh,20.0,2.1,lower,57.0,133.0,78.0,78.0,133.0,57.0,1,4.683643341064453,None,,,,,0,0,0,0,0,24,24,10,128.7818489074707,,,,,,,,,,,,,,,,,,,,,,,,,,,,,,,,,,,,,,,,,,,,,,,,,,,,,,,,,,,,,,,,,,,,,,,,,,,,,,,,,57.0,133.0,78.0,78.0,133.0,57.0,2.1,2.12,-202,-269,0,-257,164,284,128.7672758102417,128.7673523426056,128.77109122276306,128.7818489074707,128.92816925048828,128.92816925048828,128.92816925048828,128.92816925048828,128.92816925048828,128.92816925048828,128.92816925048828,133.4828987121582,1,4.683643341064453,None,,,,,,,,,,,,,,,,,,91,2,2025-02-24_11h01.26.355,comp,2024.2.4,56.445306927708415,2025-02-24 11h01.34.630589 -0500,
25,25,0,critical,whd,35.0,4.0,lower,57.0,133.0,133.0,57.0,70.0,70.0,1,4.254722356796265,None,,,,,0,0,0,0,0,25,25,88,133.49887490272522,,,,,,,,,,,,,,,,,,,,,,,,,,,,,,,,,,,,,,,,,,,,,,,,,,,,,,,,,,,,,,,,,,,,,,,,,,,,,,,,,57.0,133.0,133.0,57.0,70.0,70.0,4.0,4.1,-191,-275,0,-9,160,-251,133.48469352722168,133.484769821167,133.48856735229492,133.49887490272522,133.6470241546631,133.6470241546631,133.6470241546631,133.6470241546631,133.6470241546631,133.6470241546631,133.6470241546631,137.76726841926575,1,4.254722356796265,None,,,,,,,,,,,,,,,,,,91,2,2025-02-24_11h01.26.355,comp,2024.2.4,56.445306927708415,2025-02-24 11h01.34.630589 -0500,
26,26,0,critical,whd,35.0,2.1,upper,125.0,200.0,200.0,125.0,127.0,127.0,1,2.6701297760009766,None,,,,,0,0,0,0,0,26,26,13,137.78749442100525,,,,,,,,,,,,,,,,,,,,,,,,,,,,,,,,,,,,,,,,,,,,,,,,,,,,,,,,,,,,,,,,,,,,,,,,,,,,,,,,,125.0,200.0,200.0,125.0,127.0,127.0,2.1,2.12,-258,-267,0,-275,222,260,137.76890468597412,137.76897859573364,137.772691488266,137.78749442100525,137.9343659877777,137.9343659877777,137.9343659877777,137.9343659877777,137.9343659877777,137.9343659877777,137.9343659877777,140.47611212730408,1,2.6701297760009766,None,,,,,,,,,,,,,,,,,,91,2,2025-02-24_11h01.26.355,comp,2024.2.4,56.445306927708415,2025-02-24 11h01.34.630589 -0500,
27,27,0,filler_square,None,None,None,None,None,None,None,None,None,None,2,2.018054723739624,None,,,,,0,0,0,0,0,27,27,187,140.49615001678467,,,,,,,,,,,,,,,,,,,,,,,,,,,,,,,,,,,,,,,,,,,,,,,,,,,,,,,,,,,,,,,,,,,,,,,,,,,,,,,,,101.56297302491527,58.645336797273025,134.8332463021502,134.8332463021502,74.20106865911984,132.94443733693046,2.2,2.22,-193,250,0,-265,230,-287,140.47785305976868,140.47792792320251,140.48091793060303,140.49615001678467,140.63358759880066,140.63358759880066,140.63358759880066,140.63358759880066,140.63358759880066,140.63358759880066,140.63358759880066,142.52322721481323,2,2.018054723739624,None,,,,,,,,,,,,,,,,,,91,2,2025-02-24_11h01.26.355,comp,2024.2.4,56.445306927708415,2025-02-24 11h01.34.630589 -0500,
28,28,0,critical,hdw,20.0,4.0,upper,200.0,125.0,141.0,141.0,125.0,200.0,3,3.227046489715576,None,,,,,0,0,0,0,0,28,28,119,142.5426709651947,,,,,,,,,,,,,,,,,,,,,,,,,,,,,,,,,,,,,,,,,,,,,,,,,,,,,,,,,,,,,,,,,,,,,,,,,,,,,,,,,200.0,125.0,141.0,141.0,125.0,200.0,4.0,4.2,-229,19,0,-252,266,-13,142.52474880218506,142.5248236656189,142.5280303955078,142.5426709651947,142.68360018730164,142.68360018730164,142.68360018730164,142.68360018730164,142.68360018730164,142.68360018730164,142.68360018730164,145.78186011314392,3,3.227046489715576,None,,,,,,,,,,,,,,,,,,91,2,2025-02-24_11h01.26.355,comp,2024.2.4,56.445306927708415,2025-02-24 11h01.34.630589 -0500,
29,29,0,critical,wdh,20.0,1.0,lower,57.0,133.0,78.0,78.0,133.0,57.0,1,7.227383136749268,None,,,,,0,0,0,0,0,29,29,78,145.79841661453247,,,,,,,,,,,,,,,,,,,,,,,,,,,,,,,,,,,,,,,,,,,,,,,,,,,,,,,,,,,,,,,,,,,,,,,,,,,,,,,,,57.0,133.0,78.0,78.0,133.0,57.0,1.0,1.1,-682,259,-480,277,-316,265,145.78334856033325,145.7834198474884,145.78623914718628,145.79841661453247,145.95331025123596,145.95331025123596,145.95331025123596,145.95331025123596,145.95331025123596,145.95331025123596,145.95331025123596,153.03555488586426,1,7.227383136749268,None,,,,,,,,,,,,,,,,,,91,2,2025-02-24_11h01.26.355,comp,2024.2.4,56.445306927708415,2025-02-24 11h01.34.630589 -0500,
30,30,0,critical,hwd,35.0,3.0,upper,200.0,125.0,125.0,200.0,127.0,127.0,2,2.309913396835327,None,,,,,0,0,0,0,0,30,30,99,153.05197048187256,,,,,,,,,,,,,,,,,,,,,,,,,,,,,,,,,,,,,,,,,,,,,,,,,,,,,,,,,,,,,,,,,,,,,,,,,,,,,,,,,200.0,125.0,125.0,200.0,127.0,127.0,3.0,3.2,-258,-252,0,-10,260,266,153.03702759742737,153.0371286869049,153.04027104377747,153.05197048187256,153.20179057121277,153.20179057121277,153.20179057121277,153.20179057121277,153.20179057121277,153.20179057121277,153.20179057121277,155.37053799629211,2,2.309913396835327,None,,,,,,,,,,,,,,,,,,91,2,2025-02-24_11h01.26.355,comp,2024.2.4,56.445306927708415,2025-02-24 11h01.34.630589 -0500,
31,31,0,critical,whd,35.0,1.0,upper,125.0,200.0,200.0,125.0,127.0,127.0,1,3.0965070724487305,None,,,,,0,0,0,0,0,31,31,85,155.38559556007385,,,,,,,,,,,,,,,,,,,,,,,,,,,,,,,,,,,,,,,,,,,,,,,,,,,,,,,,,,,,,,,,,,,,,,,,,,,,,,,,,125.0,200.0,200.0,125.0,127.0,127.0,1.0,1.1,-738,277,-480,287,-258,267,155.37209153175354,155.3721685409546,155.37554907798767,155.38559556007385,155.53716158866882,155.53716158866882,155.53716158866882,155.53716158866882,155.53716158866882,155.53716158866882,155.53716158866882,158.4873194694519,1,3.0965070724487305,None,,,,,,,,,,,,,,,,,,91,2,2025-02-24_11h01.26.355,comp,2024.2.4,56.445306927708415,2025-02-24 11h01.34.630589 -0500,
32,32,0,critical,dwh,35.0,2.1,lower,70.0,70.0,57.0,133.0,133.0,57.0,2,4.430970668792725,None,,,,,0,0,0,0,0,32,32,28,158.50673699378967,,,,,,,,,,,,,,,,,,,,,,,,,,,,,,,,,,,,,,,,,,,,,,,,,,,,,,,,,,,,,,,,,,,,,,,,,,,,,,,,,70.0,70.0,57.0,133.0,133.0,57.0,2.1,2.11,-198,258,0,254,191,-289,158.48875498771667,158.48882818222046,158.49167799949646,158.50673699378967,158.65403866767883,158.65403866767883,158.65403866767883,158.65403866767883,158.65403866767883,158.65403866767883,158.65403866767883,162.9419777393341,2,4.430970668792725,None,,,,,,,,,,,,,,,,,,91,2,2025-02-24_11h01.26.355,comp,2024.2.4,56.445306927708415,2025-02-24 11h01.34.630589 -0500,
33,33,0,filler_square,None,None,None,None,None,None,None,None,None,None,3,2.041351556777954,None,,,,,0,0,0,0,0,33,33,171,162.96103644371033,,,,,,,,,,,,,,,,,,,,,,,,,,,,,,,,,,,,,,,,,,,,,,,,,,,,,,,,,,,,,,,,,,,,,,,,,,,,,,,,,62.38331468775169,140.84703153952324,86.97813465469831,134.8020600728634,156.11772621367174,156.11772621367174,1.0,1.3,246,-283,480,-278,721,-285,162.94403553009033,162.94414353370667,162.94729709625244,162.96103644371033,163.10637021064758,163.10637021064758,163.10637021064758,163.10637021064758,163.10637021064758,163.10637021064758,163.10637021064758,165.0102710723877,3,2.041351556777954,None,,,,,,,,,,,,,,,,,,91,2,2025-02-24_11h01.26.355,comp,2024.2.4,56.445306927708415,2025-02-24 11h01.34.630589 -0500,
34,34,0,critical,whd,20.0,4.0,upper,125.0,200.0,200.0,125.0,141.0,141.0,1,5.04339075088501,None,,,,,0,0,0,0,0,34,34,95,165.03037810325623,,,,,,,,,,,,,,,,,,,,,,,,,,,,,,,,,,,,,,,,,,,,,,,,,,,,,,,,,,,,,,,,,,,,,,,,,,,,,,,,,125.0,200.0,200.0,125.0,141.0,141.0,4.0,4.2,-258,-4,0,-271,229,1,165.0117847919464,165.0118589401245,165.01463747024536,165.03037810325623,165.1740756034851,165.1740756034851,165.1740756034851,165.1740756034851,165.1740756034851,165.1740756034851,165.1740756034851,170.07753944396973,1,5.04339075088501,None,,,,,,,,,,,,,,,,,,91,2,2025-02-24_11h01.26.355,comp,2024.2.4,56.445306927708415,2025-02-24 11h01.34.630589 -0500,
35,35,0,critical,hdw,20.0,2.1,lower,133.0,57.0,78.0,78.0,57.0,133.0,3,7.969154119491577,None,,,,,0,0,0,0,0,35,35,22,170.09708309173584,,,,,,,,,,,,,,,,,,,,,,,,,,,,,,,,,,,,,,,,,,,,,,,,,,,,,,,,,,,,,,,,,,,,,,,,,,,,,,,,,133.0,57.0,78.0,78.0,57.0,133.0,2.1,2.12,-164,-271,0,-274,202,283,170.07938694953918,170.07952070236206,170.08257675170898,170.09708309173584,170.2415955066681,170.2415955066681,170.2415955066681,170.2415955066681,170.2415955066681,170.2415955066681,170.2415955066681,178.07769083976746,3,7.969154119491577,None,,,,,,,,,,,,,,,,,,91,2,2025-02-24_11h01.26.355,comp,2024.2.4,56.445306927708415,2025-02-24 11h01.34.630589 -0500,
36,36,0,filler_square,None,None,None,None,None,None,None,None,None,None,2,2.1573073863983154,None,,,,,0,0,0,0,0,36,36,175,178.09242820739746,,,,,,,,,,,,,,,,,,,,,,,,,,,,,,,,,,,,,,,,,,,,,,,,,,,,,,,,,,,,,,,,,,,,,,,,,,,,,,,,,128.04724055356922,77.4587564304796,141.11191038558593,141.11191038558593,103.03573840110946,72.12997812927354,1.0,1.2,-205,-1,0,-2,203,-12,178.07939767837524,178.07947301864624,178.0824887752533,178.09242820739746,178.24352097511292,178.24352097511292,178.24352097511292,178.24352097511292,178.24352097511292,178.24352097511292,178.24352097511292,180.26328992843628,2,2.1573073863983154,None,,,,,,,,,,,,,,,,,,91,2,2025-02-24_11h01.26.355,comp,2024.2.4,56.445306927708415,2025-02-24 11h01.34.630589 -0500,
37,37,0,filler_random,None,None,None,None,None,None,None,None,None,None,2,1.761232614517212,None,,,,,0,0,0,0,0,37,37,159,180.28102946281433,,,,,,,,,,,,,,,,,,,,,,,,,,,,,,,,,,,,,,,,,,,,,,,,,,,,,,,,,,,,,,,,,,,,,,,,,,,,,,,,,70.40713155925371,88.92783122168885,148.42200843779034,152.94248329359533,109.74677457915683,96.97480025863331,4.0,4.2,-217,2,0,-268,221,-2,180.26540780067444,180.26548433303833,180.268785238266,180.28102946281433,180.43219566345215,180.43219566345215,180.43219566345215,180.43219566345215,180.43219566345215,180.43219566345215,180.43219566345215,182.05050778388977,2,1.761232614517212,None,,,,,,,,,,,,,,,,,,91,2,2025-02-24_11h01.26.355,comp,2024.2.4,56.445306927708415,2025-02-24 11h01.34.630589 -0500,
38,38,0,critical,whd,20.0,1.0,upper,125.0,200.0,200.0,125.0,141.0,141.0,1,4.879956007003784,None,,,,,0,0,0,0,0,38,38,91,182.06629943847656,,,,,,,,,,,,,,,,,,,,,,,,,,,,,,,,,,,,,,,,,,,,,,,,,,,,,,,,,,,,,,,,,,,,,,,,,,,,,,,,,125.0,200.0,200.0,125.0,141.0,141.0,1.0,1.3,222,-266,480,-263,709,-265,182.05213332176208,182.0522084236145,182.05543041229248,182.06629943847656,182.21118354797363,182.21118354797363,182.21118354797363,182.21118354797363,182.21118354797363,182.21118354797363,182.21118354797363,186.94894242286682,1,4.879956007003784,None,,,,,,,,,,,,,,,,,,91,2,2025-02-24_11h01.26.355,comp,2024.2.4,56.445306927708415,2025-02-24 11h01.34.630589 -0500,
39,39,0,filler_random,None,None,None,None,None,None,None,None,None,None,2,2.0924596786499023,None,,,,,0,0,0,0,0,39,39,148,186.9658122062683,,,,,,,,,,,,,,,,,,,,,,,,,,,,,,,,,,,,,,,,,,,,,,,,,,,,,,,,,,,,,,,,,,,,,,,,,,,,,,,,,63.556709992862594,63.38219357507358,158.54549790846858,119.78686489446592,103.9332310690981,120.35302371910797,2.1,2.12,-188,-283,0,-281,216,278,186.95110201835632,186.95123434066772,186.9542784690857,186.9658122062683,187.1131250858307,187.1131250858307,187.1131250858307,187.1131250858307,187.1131250858307,187.1131250858307,187.1131250858307,189.06486105918884,2,2.0924596786499023,None,,,,,,,,,,,,,,,,,,91,2,2025-02-24_11h01.26.355,comp,2024.2.4,56.445306927708415,2025-02-24 11h01.34.630589 -0500,
40,40,0,filler_random,None,None,None,None,None,None,None,None,None,None,1,3.4717984199523926,None,,,,,0,0,0,0,0,40,40,146,189.09081888198853,,,,,,,,,,,,,,,,,,,,,,,,,,,,,,,,,,,,,,,,,,,,,,,,,,,,,,,,,,,,,,,,,,,,,,,,,,,,,,,,,199.98785679249045,157.33509426467842,95.49461148501064,112.00279614225741,115.80206607799425,188.20030937363364,2.2,2.22,-231,260,0,-267,246,-271,189.06656432151794,189.06663751602173,189.0695481300354,189.09081888198853,189.2302827835083,189.2302827835083,189.2302827835083,189.2302827835083,189.2302827835083,189.2302827835083,189.2302827835083,192.56738090515137,1,3.4717984199523926,None,,,,,,,,,,,,,,,,,,91,2,2025-02-24_11h01.26.355,comp,2024.2.4,56.445306927708415,2025-02-24 11h01.34.630589 -0500,
41,41,0,filler_square,None,None,None,None,None,None,None,None,None,None,2,4.545085191726685,None,,,,,0,0,0,0,0,41,41,180,192.58458375930786,,,,,,,,,,,,,,,,,,,,,,,,,,,,,,,,,,,,,,,,,,,,,,,,,,,,,,,,,,,,,,,,,,,,,,,,,,,,,,,,,64.41708893717484,59.311784600669434,61.69150857360729,59.18081001209002,67.95147136014045,67.95147136014045,1.0,1.1,-635,265,-480,282,-320,289,192.569415807724,192.56953167915344,192.57282328605652,192.58458375930786,192.7194128036499,192.7194128036499,192.7194128036499,192.7194128036499,192.7194128036499,192.7194128036499,192.7194128036499,197.1334810256958,2,4.545085191726685,None,,,,,,,,,,,,,,,,,,91,2,2025-02-24_11h01.26.355,comp,2024.2.4,56.445306927708415,2025-02-24 11h01.34.630589 -0500,
42,42,0,filler_random,None,None,None,None,None,None,None,None,None,None,2,2.0518429279327393,None,,,,,0,0,0,0,0,42,42,145,197.15021347999573,,,,,,,,,,,,,,,,,,,,,,,,,,,,,,,,,,,,,,,,,,,,,,,,,,,,,,,,,,,,,,,,,,,,,,,,,,,,,,,,,155.68176976894762,151.50372340695432,159.7336253566918,181.76493112754662,63.98187171457704,104.23313261432469,2.1,2.12,-263,-270,0,-271,239,269,197.13531637191772,197.13539052009583,197.13939952850342,197.15021347999573,197.30243515968323,197.30243515968323,197.30243515968323,197.30243515968323,197.30243515968323,197.30243515968323,197.30243515968323,199.21863412857056,2,2.0518429279327393,None,,,,,,,,,,,,,,,,,,91,2,2025-02-24_11h01.26.355,comp,2024.2.4,56.445306927708415,2025-02-24 11h01.34.630589 -0500,
43,43,0,critical,dhw,35.0,1.0,upper,127.0,127.0,200.0,125.0,125.0,200.0,3,3.519529342651367,None,,,,,0,0,0,0,0,43,43,49,199.23418354988098,,,,,,,,,,,,,,,,,,,,,,,,,,,,,,,,,,,,,,,,,,,,,,,,,,,,,,,,,,,,,,,,,,,,,,,,,,,,,,,,,127.0,127.0,200.0,125.0,125.0,200.0,1.0,1.3,258,-263,480,-288,738,-279,199.22013330459595,199.22020483016968,199.22365283966064,199.23418354988098,199.3837194442749,199.3837194442749,199.3837194442749,199.3837194442749,199.3837194442749,199.3837194442749,199.3837194442749,202.76849055290222,3,3.519529342651367,None,,,,,,,,,,,,,,,,,,91,2,2025-02-24_11h01.26.355,comp,2024.2.4,56.445306927708415,2025-02-24 11h01.34.630589 -0500,
44,44,0,critical,dwh,35.0,2.1,upper,127.0,127.0,125.0,200.0,200.0,125.0,2,2.8821966648101807,None,,,,,0,0,0,0,0,44,44,5,202.78417563438416,,,,,,,,,,,,,,,,,,,,,,,,,,,,,,,,,,,,,,,,,,,,,,,,,,,,,,,,,,,,,,,,,,,,,,,,,,,,,,,,,127.0,127.0,125.0,200.0,200.0,125.0,2.1,2.11,-260,260,0,274,258,-258,202.77015471458435,202.77028226852417,202.77378630638123,202.78417563438416,202.93421053886414,202.93421053886414,202.93421053886414,202.93421053886414,202.93421053886414,202.93421053886414,202.93421053886414,205.6706759929657,2,2.8821966648101807,None,,,,,,,,,,,,,,,,,,91,2,2025-02-24_11h01.26.355,comp,2024.2.4,56.445306927708415,2025-02-24 11h01.34.630589 -0500,
45,45,0,critical,dhw,35.0,3.0,lower,70.0,70.0,133.0,57.0,57.0,133.0,3,4.195068120956421,None,,,,,0,0,0,0,0,45,45,50,205.68713402748108,,,,,,,,,,,,,,,,,,,,,,,,,,,,,,,,,,,,,,,,,,,,,,,,,,,,,,,,,,,,,,,,,,,,,,,,,,,,,,,,,70.0,70.0,133.0,57.0,57.0,133.0,3.0,3.2,-160,-287,0,-12,191,254,205.67217326164246,205.67226719856262,205.67549347877502,205.68713402748108,205.8360767364502,205.8360767364502,205.8360767364502,205.8360767364502,205.8360767364502,205.8360767364502,205.8360767364502,209.8880832195282,3,4.195068120956421,None,,,,,,,,,,,,,,,,,,91,2,2025-02-24_11h01.26.355,comp,2024.2.4,56.445306927708415,2025-02-24 11h01.34.630589 -0500,
46,46,0,filler_square,None,None,None,None,None,None,None,None,None,None,3,2.2900867462158203,None,,,,,0,0,0,0,0,46,46,189,209.90364241600037,,,,,,,,,,,,,,,,,,,,,,,,,,,,,,,,,,,,,,,,,,,,,,,,,,,,,,,,,,,,,,,,,,,,,,,,,,,,,,,,,72.94093813012161,110.17916056800848,97.11602214301489,118.71941772429967,127.00707405129847,127.00707405129847,1.0,1.3,270,-283,480,-265,699,-261,209.8898148536682,209.88989114761353,209.89285588264465,209.90364241600037,210.04192447662354,210.04192447662354,210.04192447662354,210.04192447662354,210.04192447662354,210.04192447662354,210.04192447662354,212.2039976119995,3,2.2900867462158203,None,,,,,,,,,,,,,,,,,,91,2,2025-02-24_11h01.26.355,comp,2024.2.4,56.445306927708415,2025-02-24 11h01.34.630589 -0500,
47,47,0,critical,hwd,35.0,2.1,upper,200.0,125.0,125.0,200.0,127.0,127.0,2,4.9437949657440186,None,,,,,0,0,0,0,0,47,47,17,212.22036027908325,,,,,,,,,,,,,,,,,,,,,,,,,,,,,,,,,,,,,,,,,,,,,,,,,,,,,,,,,,,,,,,,,,,,,,,,,,,,,,,,,200.0,125.0,125.0,200.0,127.0,127.0,2.1,2.11,-258,258,0,263,260,-257,212.2054946422577,212.20556926727295,212.20868921279907,212.22036027908325,212.37168264389038,212.37168264389038,212.37168264389038,212.37168264389038,212.37168264389038,212.37168264389038,212.37168264389038,217.17427968978882,2,4.9437949657440186,None,,,,,,,,,,,,,,,,,,91,2,2025-02-24_11h01.26.355,comp,2024.2.4,56.445306927708415,2025-02-24 11h01.34.630589 -0500,
48,48,0,critical,hdw,20.0,2.1,upper,200.0,125.0,141.0,141.0,125.0,200.0,3,2.6278514862060547,None,,,,,0,0,0,0,0,48,48,23,217.1898980140686,,,,,,,,,,,,,,,,,,,,,,,,,,,,,,,,,,,,,,,,,,,,,,,,,,,,,,,,,,,,,,,,,,,,,,,,,,,,,,,,,200.0,125.0,141.0,141.0,125.0,200.0,2.1,2.12,-229,-256,0,-285,266,276,217.1758131980896,217.17588925361633,217.17914175987244,217.1898980140686,217.33950638771057,217.33950638771057,217.33950638771057,217.33950638771057,217.33950638771057,217.33950638771057,217.33950638771057,219.82853627204895,3,2.6278514862060547,None,,,,,,,,,,,,,,,,,,91,2,2025-02-24_11h01.26.355,comp,2024.2.4,56.445306927708415,2025-02-24 11h01.34.630589 -0500,
49,49,0,critical,wdh,20.0,2.1,upper,125.0,200.0,141.0,141.0,200.0,125.0,1,2.717381000518799,None,,,,,0,0,0,0,0,49,49,11,219.844491481781,,,,,,,,,,,,,,,,,,,,,,,,,,,,,,,,,,,,,,,,,,,,,,,,,,,,,,,,,,,,,,,,,,,,,,,,,,,,,,,,,125.0,200.0,141.0,141.0,200.0,125.0,2.1,2.12,-266,-266,0,-282,229,270,219.83012056350708,219.83019351959229,219.8334014415741,219.844491481781,219.991229057312,219.991229057312,219.991229057312,219.991229057312,219.991229057312,219.991229057312,219.991229057312,222.57419323921204,1,2.717381000518799,None,,,,,,,,,,,,,,,,,,91,2,2025-02-24_11h01.26.355,comp,2024.2.4,56.445306927708415,2025-02-24 11h01.34.630589 -0500,
50,50,0,filler_random,None,None,None,None,None,None,None,None,None,None,2,2.66764760017395,None,,,,,0,0,0,0,0,50,50,150,222.5902063846588,,,,,,,,,,,,,,,,,,,,,,,,,,,,,,,,,,,,,,,,,,,,,,,,,,,,,,,,,,,,,,,,,,,,,,,,,,,,,,,,,198.1028195576877,107.49218095766932,120.26361687100933,165.3160700674792,150.23607490436095,97.17537763180921,4.0,4.2,-232,10,0,-271,227,10,222.57575225830078,222.5758240222931,222.5788288116455,222.5902063846588,222.74480605125427,222.74480605125427,222.74480605125427,222.74480605125427,222.74480605125427,222.74480605125427,222.74480605125427,225.2727451324463,2,2.66764760017395,None,,,,,,,,,,,,,,,,,,91,2,2025-02-24_11h01.26.355,comp,2024.2.4,56.445306927708415,2025-02-24 11h01.34.630589 -0500,
51,51,0,filler_square,None,None,None,None,None,None,None,None,None,None,2,4.864895343780518,None,,,,,0,0,0,0,0,51,51,192,225.28915190696716,,,,,,,,,,,,,,,,,,,,,,,,,,,,,,,,,,,,,,,,,,,,,,,,,,,,,,,,,,,,,,,,,,,,,,,,,,,,,,,,,61.36672915342438,71.20256400127744,74.12490032313075,74.12490032313075,57.46031542984876,71.49898887469587,3.0,3.2,-169,-287,0,13,169,278,225.27461791038513,225.2747287750244,225.27792358398438,225.28915190696716,225.4308898448944,225.4308898448944,225.4308898448944,225.4308898448944,225.4308898448944,225.4308898448944,225.4308898448944,230.16126585006714,2,4.864895343780518,None,,,,,,,,,,,,,,,,,,91,2,2025-02-24_11h01.26.355,comp,2024.2.4,56.445306927708415,2025-02-24 11h01.34.630589 -0500,
52,52,0,critical,hwd,20.0,2.1,upper,200.0,125.0,125.0,200.0,141.0,141.0,2,10.065054178237915,None,,,,,0,0,0,0,0,52,52,19,230.17697095870972,,,,,,,,,,,,,,,,,,,,,,,,,,,,,,,,,,,,,,,,,,,,,,,,,,,,,,,,,,,,,,,,,,,,,,,,,,,,,,,,,200.0,125.0,125.0,200.0,141.0,141.0,2.1,2.11,-258,253,0,252,266,-274,230.1627824306488,230.16285705566406,230.1662197113037,230.17697095870972,230.32611870765686,230.32611870765686,230.32611870765686,230.32611870765686,230.32611870765686,230.32611870765686,230.32611870765686,240.24833869934082,2,10.065054178237915,None,,,,,,,,,,,,,,,,,,91,2,2025-02-24_11h01.26.355,comp,2024.2.4,56.445306927708415,2025-02-24 11h01.34.630589 -0500,
53,53,0,catch,None,None,None,None,None,None,None,None,None,None,3,3.67349910736084,None,,,,,0,0,0,0,0,53,53,129,240.2649188041687,,,,,,,,,,,,,,,,,,,,,,,,,,,,,,,,,,,,,,,,,,,,,,,,,,,,,,,,,,,,,,,,,,,,,,,,,,,,,,,,,104,86,90,100,196,129,2.1,2.11,-189,284,0,252,210,-280,240.25047945976257,240.25061130523682,240.25409412384033,240.2649188041687,240.41144037246704,240.41144037246704,240.41144037246704,240.41144037246704,240.41144037246704,240.41144037246704,240.41144037246704,243.94850850105286,3,3.67349910736084,None,,,,,,,,,,,,,,,,,,91,2,2025-02-24_11h01.26.355,comp,2024.2.4,56.445306927708415,2025-02-24 11h01.34.630589 -0500,
54,54,0,critical,whd,35.0,1.0,lower,57.0,133.0,133.0,57.0,70.0,70.0,2,3.789843797683716,None,,,,,0,0,0,0,0,54,54,84,243.9647991657257,,,,,,,,,,,,,,,,,,,,,,,,,,,,,,,,,,,,,,,,,,,,,,,,,,,,,,,,,,,,,,,,,,,,,,,,,,,,,,,,,57.0,133.0,133.0,57.0,70.0,70.0,1.0,1.3,289,-253,480,-251,640,-253,243.94994592666626,243.95002102851868,243.953186750412,243.9647991657257,244.1139314174652,244.1139314174652,244.1139314174652,244.1139314174652,244.1139314174652,244.1139314174652,244.1139314174652,247.7661271095276,2,3.789843797683716,None,,,,,,,,,,,,,,,,,,91,2,2025-02-24_11h01.26.355,comp,2024.2.4,56.445306927708415,2025-02-24 11h01.34.630589 -0500,
55,55,0,critical,hdw,20.0,1.0,upper,200.0,125.0,141.0,141.0,125.0,200.0,3,2.5074563026428223,None,,,,,0,0,0,0,0,55,55,115,247.7825117111206,,,,,,,,,,,,,,,,,,,,,,,,,,,,,,,,,,,,,,,,,,,,,,,,,,,,,,,,,,,,,,,,,,,,,,,,,,,,,,,,,200.0,125.0,141.0,141.0,125.0,200.0,1.0,1.3,251,-288,480,-261,746,-283,247.76765942573547,247.76773262023926,247.77169013023376,247.7825117111206,247.93103051185608,247.93103051185608,247.93103051185608,247.93103051185608,247.93103051185608,247.93103051185608,247.93103051185608,250.29950594902039,3,2.5074563026428223,None,,,,,,,,,,,,,,,,,,91,2,2025-02-24_11h01.26.355,comp,2024.2.4,56.445306927708415,2025-02-24 11h01.34.630589 -0500,
56,56,0,critical,dhw,20.0,4.0,lower,78.0,78.0,133.0,57.0,57.0,133.0,3,3.7092525959014893,None,,,,,0,0,0,0,0,56,56,58,250.316419839859,,,,,,,,,,,,,,,,,,,,,,,,,,,,,,,,,,,,,,,,,,,,,,,,,,,,,,,,,,,,,,,,,,,,,,,,,,,,,,,,,78.0,78.0,133.0,57.0,57.0,133.0,4.0,4.1,-164,-267,0,-10,191,-282,250.3010778427124,250.30115723609924,250.30471181869507,250.316419839859,250.46643590927124,250.46643590927124,250.46643590927124,250.46643590927124,250.46643590927124,250.46643590927124,250.46643590927124,254.0404074192047,3,3.7092525959014893,None,,,,,,,,,,,,,,,,,,91,2,2025-02-24_11h01.26.355,comp,2024.2.4,56.445306927708415,2025-02-24 11h01.34.630589 -0500,
57,57,0,critical,hwd,20.0,2.1,upper,200.0,125.0,125.0,200.0,141.0,141.0,1,3.2020187377929688,None,,,,,0,0,0,0,0,57,57,43,254.0565161705017,,,,,,,,,,,,,,,,,,,,,,,,,,,,,,,,,,,,,,,,,,,,,,,,,,,,,,,,,,,,,,,,,,,,,,,,,,,,,,,,,200.0,125.0,125.0,200.0,141.0,141.0,2.1,2.11,-258,262,0,256,266,-275,254.04192280769348,254.04199528694153,254.04522252082825,254.0565161705017,254.20194482803345,254.20194482803345,254.20194482803345,254.20194482803345,254.20194482803345,254.20194482803345,254.20194482803345,257.26207208633423,1,3.2020187377929688,None,,,,,,,,,,,,,,,,,,91,2,2025-02-24_11h01.26.355,comp,2024.2.4,56.445306927708415,2025-02-24 11h01.34.630589 -0500,
58,58,0,critical,hwd,35.0,2.1,lower,133.0,57.0,57.0,133.0,70.0,70.0,2,9.172125577926636,None,,,,,0,0,0,0,0,58,58,40,257.2779960632324,,,,,,,,,,,,,,,,,,,,,,,,,,,,,,,,,,,,,,,,,,,,,,,,,,,,,,,,,,,,,,,,,,,,,,,,,,,,,,,,,133.0,57.0,57.0,133.0,70.0,70.0,2.1,2.11,-191,266,0,280,198,-270,257.26350378990173,257.2635748386383,257.2663266658783,257.2779960632324,257.4187500476837,257.4187500476837,257.4187500476837,257.4187500476837,257.4187500476837,257.4187500476837,257.4187500476837,266.45790576934814,2,9.172125577926636,None,,,,,,,,,,,,,,,,,,91,2,2025-02-24_11h01.26.355,comp,2024.2.4,56.445306927708415,2025-02-24 11h01.34.630589 -0500,
59,59,0,filler_square,None,None,None,None,None,None,None,None,None,None,3,2.358086585998535,None,,,,,0,0,0,0,0,59,59,194,266.47612142562866,,,,,,,,,,,,,,,,,,,,,,,,,,,,,,,,,,,,,,,,,,,,,,,,,,,,,,,,,,,,,,,,,,,,,,,,,,,,,,,,,72.66418347961839,85.5386274200934,69.08165422687613,101.46310071300806,111.6383496475693,111.6383496475693,4.0,4.2,-190,-11,0,-278,203,-17,266.45983028411865,266.4599108695984,266.4628760814667,266.47612142562866,266.6216244697571,266.6216244697571,266.6216244697571,266.6216244697571,266.6216244697571,266.6216244697571,266.6216244697571,268.8447251319885,3,2.358086585998535,None,,,,,,,,,,,,,,,,,,91,2,2025-02-24_11h01.26.355,comp,2024.2.4,56.445306927708415,2025-02-24 11h01.34.630589 -0500,
60,60,0,filler_square,None,None,None,None,None,None,None,None,None,None,2,1.5823829174041748,None,,,,,0,0,0,0,0,60,60,177,268.85946583747864,,,,,,,,,,,,,,,,,,,,,,,,,,,,,,,,,,,,,,,,,,,,,,,,,,,,,,,,,,,,,,,,,,,,,,,,,,,,,,,,,60.862722433163846,128.92572177777856,170.0586882838229,170.0586882838229,72.51359969761648,95.92386222428621,2.2,2.22,-245,265,0,-273,229,-266,268.84653544425964,268.8466112613678,268.8494915962219,268.85946583747864,269.004629611969,269.004629611969,269.004629611969,269.004629611969,269.004629611969,269.004629611969,269.004629611969,270.4566819667816,2,1.5823829174041748,None,,,,,,,,,,,,,,,,,,91,2,2025-02-24_11h01.26.355,comp,2024.2.4,56.445306927708415,2025-02-24 11h01.34.630589 -0500,
61,61,0,catch,None,None,None,None,None,None,None,None,None,None,2,1.3294780254364014,None,,,,,0,0,0,0,0,61,61,125,270.472989320755,,,,,,,,,,,,,,,,,,,,,,,,,,,,,,,,,,,,,,,,,,,,,,,,,,,,,,,,,,,,,,,,,,,,,,,,,,,,,,,,,101,89,153,172,78,112,3.0,3.2,-226,-269,0,17,238,257,270.45856976509094,270.458646774292,270.4626269340515,270.472989320755,270.6231601238251,270.6231601238251,270.6231601238251,270.6231601238251,270.6231601238251,270.6231601238251,270.6231601238251,271.8097593784332,2,1.3294780254364014,None,,,,,,,,,,,,,,,,,,91,2,2025-02-24_11h01.26.355,comp,2024.2.4,56.445306927708415,2025-02-24 11h01.34.630589 -0500,
62,62,0,critical,whd,35.0,2.1,lower,57.0,133.0,133.0,57.0,70.0,70.0,2,4.319356679916382,None,,,,,0,0,0,0,0,62,62,12,271.8266978263855,,,,,,,,,,,,,,,,,,,,,,,,,,,,,,,,,,,,,,,,,,,,,,,,,,,,,,,,,,,,,,,,,,,,,,,,,,,,,,,,,57.0,133.0,133.0,57.0,70.0,70.0,2.1,2.12,-191,-251,0,-270,160,270,271.811564207077,271.8116900920868,271.81505966186523,271.8266978263855,271.9737012386322,271.9737012386322,271.9737012386322,271.9737012386322,271.9737012386322,271.9737012386322,271.9737012386322,276.1588339805603,2,4.319356679916382,None,,,,,,,,,,,,,,,,,,91,2,2025-02-24_11h01.26.355,comp,2024.2.4,56.445306927708415,2025-02-24 11h01.34.630589 -0500,
63,63,0,filler_random,None,None,None,None,None,None,None,None,None,None,1,1.7151820659637451,None,,,,,0,0,0,0,0,63,63,156,276.17522716522217,,,,,,,,,,,,,,,,,,,,,,,,,,,,,,,,,,,,,,,,,,,,,,,,,,,,,,,,,,,,,,,,,,,,,,,,,,,,,,,,,162.15042658480746,190.67790036290475,84.35732836047205,128.14627555534202,81.59559352943356,62.41106986125639,2.2,2.22,-255,255,0,-272,191,-253,276.1607942581177,276.1608717441559,276.164794921875,276.17522716522217,276.32485723495483,276.32485723495483,276.32485723495483,276.32485723495483,276.32485723495483,276.32485723495483,276.32485723495483,277.89828300476074,1,1.7151820659637451,None,,,,,,,,,,,,,,,,,,91,2,2025-02-24_11h01.26.355,comp,2024.2.4,56.445306927708415,2025-02-24 11h01.34.630589 -0500,
64,64,0,filler_square,None,None,None,None,None,None,None,None,None,None,1,4.135865688323975,None,,,,,0,0,0,0,0,64,64,196,277.914612531662,,,,,,,,,,,,,,,,,,,,,,,,,,,,,,,,,,,,,,,,,,,,,,,,,,,,,,,,,,,,,,,,,,,,,,,,,,,,,,,,,75.67901245109154,75.67901245109154,63.8766382552383,73.207838731122,62.21987825657587,64.31038706118301,4.0,4.2,-170,-12,0,-285,165,-3,277.9002015590668,277.90031361579895,277.90352153778076,277.914612531662,278.06307888031006,278.06307888031006,278.06307888031006,278.06307888031006,278.06307888031006,278.06307888031006,278.06307888031006,282.0613877773285,1,4.135865688323975,None,,,,,,,,,,,,,,,,,,91,2,2025-02-24_11h01.26.355,comp,2024.2.4,56.445306927708415,2025-02-24 11h01.34.630589 -0500,
65,65,0,critical,hwd,20.0,2.1,lower,133.0,57.0,57.0,133.0,78.0,78.0,2,10.732312202453613,None,,,,,0,0,0,0,0,65,65,18,282.0775957107544,,,,,,,,,,,,,,,,,,,,,,,,,,,,,,,,,,,,,,,,,,,,,,,,,,,,,,,,,,,,,,,,,,,,,,,,,,,,,,,,,133.0,57.0,57.0,133.0,78.0,78.0,2.1,2.12,-191,-263,0,-278,202,288,282.0628821849823,282.0629596710205,282.0668194293976,282.0775957107544,282.22429180145264,282.22429180145264,282.22429180145264,282.22429180145264,282.22429180145264,282.22429180145264,282.22429180145264,292.81355476379395,2,10.732312202453613,None,,,,,,,,,,,,,,,,,,91,2,2025-02-24_11h01.26.355,comp,2024.2.4,56.445306927708415,2025-02-24 11h01.34.630589 -0500,
66,66,0,critical,wdh,35.0,2.1,upper,125.0,200.0,127.0,127.0,200.0,125.0,1,2.076772451400757,None,,,,,0,0,0,0,0,66,66,9,292.8290340900421,,,,,,,,,,,,,,,,,,,,,,,,,,,,,,,,,,,,,,,,,,,,,,,,,,,,,,,,,,,,,,,,,,,,,,,,,,,,,,,,,125.0,200.0,127.0,127.0,200.0,125.0,2.1,2.12,-260,-279,0,-286,222,276,292.8149836063385,292.8150939941406,292.8182957172394,292.8290340900421,292.978547334671,292.978547334671,292.978547334671,292.978547334671,292.978547334671,292.978547334671,292.978547334671,294.92043256759644,1,2.076772451400757,None,,,,,,,,,,,,,,,,,,91,2,2025-02-24_11h01.26.355,comp,2024.2.4,56.445306927708415,2025-02-24 11h01.34.630589 -0500,
67,67,0,catch,None,None,None,None,None,None,None,None,None,None,2,1.7461590766906738,None,,,,,0,0,0,0,0,67,67,124,294.9357075691223,,,,,,,,,,,,,,,,,,,,,,,,,,,,,,,,,,,,,,,,,,,,,,,,,,,,,,,,,,,,,,,,,,,,,,,,,,,,,,,,,66,124,145,180,65,125,1.0,1.1,-728,283,-480,281,-232,256,294.9222912788391,294.92236733436584,294.92517590522766,294.9357075691223,295.08109760284424,295.08109760284424,295.08109760284424,295.08109760284424,295.08109760284424,295.08109760284424,295.08109760284424,296.69234132766724,2,1.7461590766906738,None,,,,,,,,,,,,,,,,,,91,2,2025-02-24_11h01.26.355,comp,2024.2.4,56.445306927708415,2025-02-24 11h01.34.630589 -0500,
68,68,0,critical,dhw,20.0,1.0,lower,78.0,78.0,133.0,57.0,57.0,133.0,2,4.794979572296143,None,,,,,0,0,0,0,0,68,68,54,296.7115659713745,,,,,,,,,,,,,,,,,,,,,,,,,,,,,,,,,,,,,,,,,,,,,,,,,,,,,,,,,,,,,,,,,,,,,,,,,,,,,,,,,78.0,78.0,133.0,57.0,57.0,133.0,1.0,1.3,316,-287,480,-288,671,-265,296.6938090324402,296.6938855648041,296.69677090644836,296.7115659713745,296.844575881958,296.844575881958,296.844575881958,296.844575881958,296.844575881958,296.844575881958,296.844575881958,301.5165808200836,2,4.794979572296143,None,,,,,,,,,,,,,,,,,,91,2,2025-02-24_11h01.26.355,comp,2024.2.4,56.445306927708415,2025-02-24 11h01.34.630589 -0500,
69,69,0,filler_square,None,None,None,None,None,None,None,None,None,None,1,1.4690396785736084,None,,,,,0,0,0,0,0,69,69,204,301.5327339172363,,,,,,,,,,,,,,,,,,,,,,,,,,,,,,,,,,,,,,,,,,,,,,,,,,,,,,,,,,,,,,,,,,,,,,,,,,,,,,,,,183.95880036258933,183.95880036258933,127.63629948628564,124.16024043355178,103.92302092412777,135.55348825540977,4.0,4.2,-250,17,0,-269,226,-2,301.51831555366516,301.51839089393616,301.5217626094818,301.5327339172363,301.6799786090851,301.6799786090851,301.6799786090851,301.6799786090851,301.6799786090851,301.6799786090851,301.6799786090851,303.00379180908203,1,1.4690396785736084,None,,,,,,,,,,,,,,,,,,91,2,2025-02-24_11h01.26.355,comp,2024.2.4,56.445306927708415,2025-02-24 11h01.34.630589 -0500,
70,70,0,filler_square,None,None,None,None,None,None,None,None,None,None,3,1.6549828052520752,None,,,,,0,0,0,0,0,70,70,184,303.01945209503174,,,,,,,,,,,,,,,,,,,,,,,,,,,,,,,,,,,,,,,,,,,,,,,,,,,,,,,,,,,,,,,,,,,,,,,,,,,,,,,,,121.34130956647516,137.41267824128377,157.5938868781824,90.27060249353327,161.3299016312537,161.3299016312537,3.0,3.2,-210,-264,0,-15,222,266,303.0055732727051,303.00565099716187,303.00877499580383,303.01945209503174,303.1663110256195,303.1663110256195,303.1663110256195,303.1663110256195,303.1663110256195,303.1663110256195,303.1663110256195,304.69247484207153,3,1.6549828052520752,None,,,,,,,,,,,,,,,,,,91,2,2025-02-24_11h01.26.355,comp,2024.2.4,56.445306927708415,2025-02-24 11h01.34.630589 -0500,
71,71,0,critical,dwh,20.0,2.1,upper,141.0,141.0,125.0,200.0,200.0,125.0,2,2.8131978511810303,None,,,,,0,0,0,0,0,71,71,31,304.7086296081543,,,,,,,,,,,,,,,,,,,,,,,,,,,,,,,,,,,,,,,,,,,,,,,,,,,,,,,,,,,,,,,,,,,,,,,,,,,,,,,,,141.0,141.0,125.0,200.0,200.0,125.0,2.1,2.12,-266,-264,0,-267,258,275,304.69403648376465,304.69414019584656,304.69741344451904,304.7086296081543,304.85163378715515,304.85163378715515,304.85163378715515,304.85163378715515,304.85163378715515,304.85163378715515,304.85163378715515,307.53512835502625,2,2.8131978511810303,None,,,,,,,,,,,,,,,,,,91,2,2025-02-24_11h01.26.355,comp,2024.2.4,56.445306927708415,2025-02-24 11h01.34.630589 -0500,
72,72,0,critical,dwh,20.0,3.0,upper,141.0,141.0,125.0,200.0,200.0,125.0,2,4.348791837692261,None,,,,,0,0,0,0,0,72,72,69,307.5494170188904,,,,,,,,,,,,,,,,,,,,,,,,,,,,,,,,,,,,,,,,,,,,,,,,,,,,,,,,,,,,,,,,,,,,,,,,,,,,,,,,,141.0,141.0,125.0,200.0,200.0,125.0,3.0,3.1,-266,281,0,1,258,-282,307.5366609096527,307.53673481941223,307.5400788784027,307.5494170188904,307.6979875564575,307.6979875564575,307.6979875564575,307.6979875564575,307.6979875564575,307.6979875564575,307.6979875564575,311.903559923172,2,4.348791837692261,None,,,,,,,,,,,,,,,,,,91,2,2025-02-24_11h01.26.355,comp,2024.2.4,56.445306927708415,2025-02-24 11h01.34.630589 -0500,
73,73,0,filler_square,None,None,None,None,None,None,None,None,None,None,1,3.1226534843444824,None,,,,,0,0,0,0,0,73,73,200,311.919531583786,,,,,,,,,,,,,,,,,,,,,,,,,,,,,,,,,,,,,,,,,,,,,,,,,,,,,,,,,,,,,,,,,,,,,,,,,,,,,,,,,128.10705665802635,128.10705665802635,66.39624717331638,81.46047050350728,76.29945310873806,87.76074731892909,1.0,1.1,-681,285,-480,266,-299,252,311.90530705451965,311.9053852558136,311.90870475769043,311.919531583786,312.0673382282257,312.0673382282257,312.0673382282257,312.0673382282257,312.0673382282257,312.0673382282257,312.0673382282257,315.05764842033386,1,3.1226534843444824,None,,,,,,,,,,,,,,,,,,91,2,2025-02-24_11h01.26.355,comp,2024.2.4,56.445306927708415,2025-02-24 11h01.34.630589 -0500,
74,74,0,critical,hwd,35.0,4.0,upper,200.0,125.0,125.0,200.0,127.0,127.0,1,2.4886369705200195,None,,,,,0,0,0,0,0,74,74,101,315.07453894615173,,,,,,,,,,,,,,,,,,,,,,,,,,,,,,,,,,,,,,,,,,,,,,,,,,,,,,,,,,,,,,,,,,,,,,,,,,,,,,,,,200.0,125.0,125.0,200.0,127.0,127.0,4.0,4.1,-258,-273,0,-12,260,-289,315.059406042099,315.0594801902771,315.0622799396515,315.07453894615173,315.2210958003998,315.2210958003998,315.2210958003998,315.2210958003998,315.2210958003998,315.2210958003998,315.2210958003998,317.569899559021,1,2.4886369705200195,None,,,,,,,,,,,,,,,,,,91,2,2025-02-24_11h01.26.355,comp,2024.2.4,56.445306927708415,2025-02-24 11h01.34.630589 -0500,
75,75,0,filler_random,None,None,None,None,None,None,None,None,None,None,3,1.696106195449829,None,,,,,0,0,0,0,0,75,75,131,317.5862920284271,,,,,,,,,,,,,,,,,,,,,,,,,,,,,,,,,,,,,,,,,,,,,,,,,,,,,,,,,,,,,,,,,,,,,,,,,,,,,,,,,101.50557664258326,193.95618708377515,168.22135154561548,70.0816518020431,173.72260101004008,155.2364421613263,3.0,3.2,-228,-262,0,14,209,284,317.57154393196106,317.5716185569763,317.5744981765747,317.5862920284271,317.7379333972931,317.7379333972931,317.7379333972931,317.7379333972931,317.7379333972931,317.7379333972931,317.7379333972931,319.2872266769409,3,1.696106195449829,None,,,,,,,,,,,,,,,,,,91,2,2025-02-24_11h01.26.355,comp,2024.2.4,56.445306927708415,2025-02-24 11h01.34.630589 -0500,
76,76,0,filler_random,None,None,None,None,None,None,None,None,None,None,1,1.2986323833465576,None,,,,,0,0,0,0,0,76,76,142,319.30388379096985,,,,,,,,,,,,,,,,,,,,,,,,,,,,,,,,,,,,,,,,,,,,,,,,,,,,,,,,,,,,,,,,,,,,,,,,,,,,,,,,,139.9865903916202,168.32971227053082,89.07134103986539,94.92959193360221,101.79438026993859,64.0511035449188,3.0,3.1,-228,263,0,4,175,-287,319.2888481616974,319.28892278671265,319.29196786880493,319.30388379096985,319.4425721168518,319.4425721168518,319.4425721168518,319.4425721168518,319.4425721168518,319.4425721168518,319.4425721168518,320.6046061515808,1,1.2986323833465576,None,,,,,,,,,,,,,,,,,,91,2,2025-02-24_11h01.26.355,comp,2024.2.4,56.445306927708415,2025-02-24 11h01.34.630589 -0500,
77,77,0,critical,hdw,35.0,2.1,upper,200.0,125.0,127.0,127.0,125.0,200.0,3,2.028644561767578,None,,,,,0,0,0,0,0,77,77,45,320.6211910247803,,,,,,,,,,,,,,,,,,,,,,,,,,,,,,,,,,,,,,,,,,,,,,,,,,,,,,,,,,,,,,,,,,,,,,,,,,,,,,,,,200.0,125.0,127.0,127.0,125.0,200.0,2.1,2.12,-222,-270,0,-265,260,266,320.60611271858215,320.60618925094604,320.6092405319214,320.6211910247803,320.77457666397095,320.77457666397095,320.77457666397095,320.77457666397095,320.77457666397095,320.77457666397095,320.77457666397095,322.6639688014984,3,2.028644561767578,None,,,,,,,,,,,,,,,,,,91,2,2025-02-24_11h01.26.355,comp,2024.2.4,56.445306927708415,2025-02-24 11h01.34.630589 -0500,
78,78,0,catch,None,None,None,None,None,None,None,None,None,None,2,1.3310635089874268,None,,,,,0,0,0,0,0,78,78,120,322.6791105270386,,,,,,,,,,,,,,,,,,,,,,,,,,,,,,,,,,,,,,,,,,,,,,,,,,,,,,,,,,,,,,,,,,,,,,,,,,,,,,,,,131,59,145,180,96,94,4.0,4.2,-216,10,0,-255,233,9,322.66576623916626,322.66584038734436,322.66868138313293,322.6791105270386,322.8265104293823,322.8265104293823,322.8265104293823,322.8265104293823,322.8265104293823,322.8265104293823,322.8265104293823,324.0144419670105,2,1.3310635089874268,None,,,,,,,,,,,,,,,,,,91,2,2025-02-24_11h01.26.355,comp,2024.2.4,56.445306927708415,2025-02-24 11h01.34.630589 -0500,
79,79,0,catch,None,None,None,None,None,None,None,None,None,None,1,1.3699829578399658,None,,,,,0,0,0,0,0,79,79,127,324.03265833854675,,,,,,,,,,,,,,,,,,,,,,,,,,,,,,,,,,,,,,,,,,,,,,,,,,,,,,,,,,,,,,,,,,,,,,,,,,,,,,,,,197,128,80,110,61,129,3.0,3.1,-215,255,0,4,216,-256,324.01629519462585,324.0163724422455,324.0191910266876,324.03265833854675,324.17208099365234,324.17208099365234,324.17208099365234,324.17208099365234,324.17208099365234,324.17208099365234,324.17208099365234,325.40750336647034,1,1.3699829578399658,None,,,,,,,,,,,,,,,,,,91,2,2025-02-24_11h01.26.355,comp,2024.2.4,56.445306927708415,2025-02-24 11h01.34.630589 -0500,
80,80,0,critical,dwh,20.0,4.0,upper,141.0,141.0,125.0,200.0,200.0,125.0,3,4.10639500617981,None,,,,,0,0,0,0,0,80,80,71,325.42393469810486,,,,,,,,,,,,,,,,,,,,,,,,,,,,,,,,,,,,,,,,,,,,,,,,,,,,,,,,,,,,,,,,,,,,,,,,,,,,,,,,,141.0,141.0,125.0,200.0,200.0,125.0,4.0,4.1,-266,-258,0,15,258,-273,325.40893054008484,325.40900349617004,325.4123275279999,325.42393469810486,325.5733549594879,325.5733549594879,325.5733549594879,325.5733549594879,325.5733549594879,325.5733549594879,325.5733549594879,329.54659056663513,3,4.10639500617981,None,,,,,,,,,,,,,,,,,,91,2,2025-02-24_11h01.26.355,comp,2024.2.4,56.445306927708415,2025-02-24 11h01.34.630589 -0500,
81,81,0,filler_random,None,None,None,None,None,None,None,None,None,None,3,2.204988718032837,None,,,,,0,0,0,0,0,81,81,153,329.56503438949585,,,,,,,,,,,,,,,,,,,,,,,,,,,,,,,,,,,,,,,,,,,,,,,,,,,,,,,,,,,,,,,,,,,,,,,,,,,,,,,,,153.40645960746758,76.03495371602747,82.36058566892419,199.98789897481137,144.80425598511584,176.97834809227055,2.1,2.11,-234,283,0,289,284,-256,329.5483183860779,329.54839301109314,329.5512249469757,329.56503438949585,329.70664286613464,329.70664286613464,329.70664286613464,329.70664286613464,329.70664286613464,329.70664286613464,329.70664286613464,331.78723978996277,3,2.204988718032837,None,,,,,,,,,,,,,,,,,,91,2,2025-02-24_11h01.26.355,comp,2024.2.4,56.445306927708415,2025-02-24 11h01.34.630589 -0500,
82,82,0,filler_random,None,None,None,None,None,None,None,None,None,None,2,4.572399616241455,None,,,,,0,0,0,0,0,82,82,133,331.8054437637329,,,,,,,,,,,,,,,,,,,,,,,,,,,,,,,,,,,,,,,,,,,,,,,,,,,,,,,,,,,,,,,,,,,,,,,,,,,,,,,,,59.23384129387993,123.6766048469227,103.76225660979115,104.57056753919453,167.47505949943027,79.10566513762845,2.2,2.22,-210,274,0,-270,188,-271,331.78896260261536,331.7890908718109,331.79230403900146,331.8054437637329,331.9432382583618,331.9432382583618,331.9432382583618,331.9432382583618,331.9432382583618,331.9432382583618,331.9432382583618,336.3932521343231,2,4.572399616241455,None,,,,,,,,,,,,,,,,,,91,2,2025-02-24_11h01.26.355,comp,2024.2.4,56.445306927708415,2025-02-24 11h01.34.630589 -0500,
83,83,0,critical,hdw,20.0,3.0,lower,133.0,57.0,78.0,78.0,57.0,133.0,3,3.10880184173584,None,,,,,0,0,0,0,0,83,83,116,336.41352939605713,,,,,,,,,,,,,,,,,,,,,,,,,,,,,,,,,,,,,,,,,,,,,,,,,,,,,,,,,,,,,,,,,,,,,,,,,,,,,,,,,133.0,57.0,78.0,78.0,57.0,133.0,3.0,3.2,-164,-260,0,16,202,259,336.39483642578125,336.39490962028503,336.3981440067291,336.41352939605713,336.56208658218384,336.56208658218384,336.56208658218384,336.56208658218384,336.56208658218384,336.56208658218384,336.56208658218384,339.5284893512726,3,3.10880184173584,None,,,,,,,,,,,,,,,,,,91,2,2025-02-24_11h01.26.355,comp,2024.2.4,56.445306927708415,2025-02-24 11h01.34.630589 -0500,
84,84,0,critical,hwd,20.0,1.0,lower,133.0,57.0,57.0,133.0,78.0,78.0,2,2.185030698776245,None,,,,,0,0,0,0,0,84,84,102,339.5448999404907,,,,,,,,,,,,,,,,,,,,,,,,,,,,,,,,,,,,,,,,,,,,,,,,,,,,,,,,,,,,,,,,,,,,,,,,,,,,,,,,,133.0,57.0,57.0,133.0,78.0,78.0,1.0,1.1,-671,289,-480,253,-278,277,339.52995347976685,339.530029296875,339.53399205207825,339.5448999404907,339.6936001777649,339.6936001777649,339.6936001777649,339.6936001777649,339.6936001777649,339.6936001777649,339.6936001777649,341.74540972709656,2,2.185030698776245,None,,,,,,,,,,,,,,,,,,91,2,2025-02-24_11h01.26.355,comp,2024.2.4,56.445306927708415,2025-02-24 11h01.34.630589 -0500,
85,85,0,filler_square,None,None,None,None,None,None,None,None,None,None,2,1.3691461086273193,None,,,,,0,0,0,0,0,85,85,208,341.7608757019043,,,,,,,,,,,,,,,,,,,,,,,,,,,,,,,,,,,,,,,,,,,,,,,,,,,,,,,,,,,,,,,,,,,,,,,,,,,,,,,,,74.75542123943909,82.66800362598627,141.2624787546473,141.2624787546473,71.3238669327801,104.48592930209803,4.0,4.2,-208,-19,0,-278,219,-14,341.74717903137207,341.74725556373596,341.75053191185,341.7608757019043,341.9138786792755,341.9138786792755,341.9138786792755,341.9138786792755,341.9138786792755,341.9138786792755,341.9138786792755,343.14610743522644,2,1.3691461086273193,None,,,,,,,,,,,,,,,,,,91,2,2025-02-24_11h01.26.355,comp,2024.2.4,56.445306927708415,2025-02-24 11h01.34.630589 -0500,
86,86,0,filler_square,None,None,None,None,None,None,None,None,None,None,1,2.473517894744873,None,,,,,0,0,0,0,0,86,86,188,343.16158533096313,,,,,,,,,,,,,,,,,,,,,,,,,,,,,,,,,,,,,,,,,,,,,,,,,,,,,,,,,,,,,,,,,,,,,,,,,,,,,,,,,139.47755855063244,139.47755855063244,133.56031227572032,121.71499786228844,57.07934992786453,74.49865171924316,2.1,2.11,-227,253,0,254,194,-288,343.1478157043457,343.1478896141052,343.15129375457764,343.16158533096313,343.311243057251,343.311243057251,343.311243057251,343.311243057251,343.311243057251,343.311243057251,343.311243057251,345.65247440338135,1,2.473517894744873,None,,,,,,,,,,,,,,,,,,91,2,2025-02-24_11h01.26.355,comp,2024.2.4,56.445306927708415,2025-02-24 11h01.34.630589 -0500,
87,87,0,critical,dwh,35.0,4.0,lower,70.0,70.0,57.0,133.0,133.0,57.0,2,5.218091726303101,None,,,,,0,0,0,0,0,87,87,64,345.67208671569824,,,,,,,,,,,,,,,,,,,,,,,,,,,,,,,,,,,,,,,,,,,,,,,,,,,,,,,,,,,,,,,,,,,,,,,,,,,,,,,,,70.0,70.0,57.0,133.0,133.0,57.0,4.0,4.2,-198,-4,0,-264,191,19,345.6539044380188,345.653977394104,345.65677213668823,345.67208671569824,345.81313395500183,345.81313395500183,345.81313395500183,345.81313395500183,345.81313395500183,345.81313395500183,345.81313395500183,350.8988370895386,2,5.218091726303101,None,,,,,,,,,,,,,,,,,,91,2,2025-02-24_11h01.26.355,comp,2024.2.4,56.445306927708415,2025-02-24 11h01.34.630589 -0500,
88,88,0,filler_square,None,None,None,None,None,None,None,None,None,None,3,2.0382633209228516,None,,,,,0,0,0,0,0,88,88,191,350.91575026512146,,,,,,,,,,,,,,,,,,,,,,,,,,,,,,,,,,,,,,,,,,,,,,,,,,,,,,,,,,,,,,,,,,,,,,,,,,,,,,,,,126.27655187083623,79.67746615055182,107.40738508126907,135.62527332168546,154.6894130838612,154.6894130838612,2.1,2.12,-204,-253,0,-259,241,265,350.9006254673004,350.9007022380829,350.9047975540161,350.91575026512146,351.06563997268677,351.06563997268677,351.06563997268677,351.06563997268677,351.06563997268677,351.06563997268677,351.06563997268677,352.96959614753723,3,2.0382633209228516,None,,,,,,,,,,,,,,,,,,91,2,2025-02-24_11h01.26.355,comp,2024.2.4,56.445306927708415,2025-02-24 11h01.34.630589 -0500,
89,89,0,critical,dwh,20.0,2.1,upper,141.0,141.0,125.0,200.0,200.0,125.0,2,2.690034866333008,None,,,,,0,0,0,0,0,89,89,7,352.9846749305725,,,,,,,,,,,,,,,,,,,,,,,,,,,,,,,,,,,,,,,,,,,,,,,,,,,,,,,,,,,,,,,,,,,,,,,,,,,,,,,,,141.0,141.0,125.0,200.0,200.0,125.0,2.1,2.11,-266,270,0,263,258,-271,352.9711856842041,352.9712584018707,352.97434163093567,352.9846749305725,353.13218426704407,353.13218426704407,353.13218426704407,353.13218426704407,353.13218426704407,353.13218426704407,353.13218426704407,355.68346881866455,2,2.690034866333008,None,,,,,,,,,,,,,,,,,,91,2,2025-02-24_11h01.26.355,comp,2024.2.4,56.445306927708415,2025-02-24 11h01.34.630589 -0500,
90,90,0,filler_random,None,None,None,None,None,None,None,None,None,None,1,2.574223041534424,None,,,,,0,0,0,0,0,90,90,138,355.6996273994446,,,,,,,,,,,,,,,,,,,,,,,,,,,,,,,,,,,,,,,,,,,,,,,,,,,,,,,,,,,,,,,,,,,,,,,,,,,,,,,,,174.526744350841,117.25887449910198,137.27577436572415,91.864173924,138.8945804484233,87.65135374703202,4.0,4.1,-201,-281,0,7,186,-283,355.68529629707336,355.68540954589844,355.68870639801025,355.6996273994446,355.8498673439026,355.8498673439026,355.8498673439026,355.8498673439026,355.8498673439026,355.8498673439026,355.8498673439026,358.28634691238403,1,2.574223041534424,None,,,,,,,,,,,,,,,,,,91,2,2025-02-24_11h01.26.355,comp,2024.2.4,56.445306927708415,2025-02-24 11h01.34.630589 -0500,
91,91,0,critical,whd,20.0,4.0,lower,57.0,133.0,133.0,57.0,78.0,78.0,1,4.592451572418213,None,,,,,0,0,0,0,0,91,91,94,358.3058133125305,,,,,,,,,,,,,,,,,,,,,,,,,,,,,,,,,,,,,,,,,,,,,,,,,,,,,,,,,,,,,,,,,,,,,,,,,,,,,,,,,57.0,133.0,133.0,57.0,78.0,78.0,4.0,4.2,-191,20,0,-253,164,6,358.2878954410553,358.28797125816345,358.29081630706787,358.3058133125305,358.4503364562988,358.4503364562988,358.4503364562988,358.4503364562988,358.4503364562988,358.4503364562988,358.4503364562988,362.900714635849,1,4.592451572418213,None,,,,,,,,,,,,,,,,,,91,2,2025-02-24_11h01.26.355,comp,2024.2.4,56.445306927708415,2025-02-24 11h01.34.630589 -0500,
92,92,0,filler_square,None,None,None,None,None,None,None,None,None,None,1,2.900550365447998,None,,,,,0,0,0,0,0,92,92,205,362.9173274040222,,,,,,,,,,,,,,,,,,,,,,,,,,,,,,,,,,,,,,,,,,,,,,,,,,,,,,,,,,,,,,,,,,,,,,,,,,,,,,,,,70.68019585765771,70.68019585765771,64.1898247786823,63.28301962753299,61.422562694190574,67.33415657434769,2.1,2.12,-163,-266,0,-264,161,276,362.90244150161743,362.9025180339813,362.9054741859436,362.9173274040222,363.0710949897766,363.0710949897766,363.0710949897766,363.0710949897766,363.0710949897766,363.0710949897766,363.0710949897766,365.820209980011,1,2.900550365447998,None,,,,,,,,,,,,,,,,,,91,2,2025-02-24_11h01.26.355,comp,2024.2.4,56.445306927708415,2025-02-24 11h01.34.630589 -0500,
93,93,0,critical,hdw,20.0,1.0,lower,133.0,57.0,78.0,78.0,57.0,133.0,3,5.221569061279297,None,,,,,0,0,0,0,0,93,93,114,365.8363573551178,,,,,,,,,,,,,,,,,,,,,,,,,,,,,,,,,,,,,,,,,,,,,,,,,,,,,,,,,,,,,,,,,,,,,,,,,,,,,,,,,133.0,57.0,78.0,78.0,57.0,133.0,1.0,1.3,316,-274,480,-258,682,-278,365.8218631744385,365.82194542884827,365.8253962993622,365.8363573551178,365.98857498168945,365.98857498168945,365.98857498168945,365.98857498168945,365.98857498168945,365.98857498168945,365.98857498168945,371.07409739494324,3,5.221569061279297,None,,,,,,,,,,,,,,,,,,91,2,2025-02-24_11h01.26.355,comp,2024.2.4,56.445306927708415,2025-02-24 11h01.34.630589 -0500,
94,94,0,filler_random,None,None,None,None,None,None,None,None,None,None,1,3.7817881107330322,None,,,,,0,0,0,0,0,94,94,139,371.0928132534027,,,,,,,,,,,,,,,,,,,,,,,,,,,,,,,,,,,,,,,,,,,,,,,,,,,,,,,,,,,,,,,,,,,,,,,,,,,,,,,,,110.09103930422972,158.7879485383828,194.33270822476206,89.33612770516035,123.84562036138723,136.65322154881406,2.2,2.21,-220,-265,0,263,209,253,371.075870513916,371.07594633102417,371.07891821861267,371.0928132534027,371.23807978630066,371.23807978630066,371.23807978630066,371.23807978630066,371.23807978630066,371.23807978630066,371.23807978630066,374.87706661224365,1,3.7817881107330322,None,,,,,,,,,,,,,,,,,,91,2,2025-02-24_11h01.26.355,comp,2024.2.4,56.445306927708415,2025-02-24 11h01.34.630589 -0500,
95,95,0,filler_random,None,None,None,None,None,None,None,None,None,None,2,1.5645420551300049,None,,,,,0,0,0,0,0,95,95,158,374.8932526111603,,,,,,,,,,,,,,,,,,,,,,,,,,,,,,,,,,,,,,,,,,,,,,,,,,,,,,,,,,,,,,,,,,,,,,,,,,,,,,,,,93.24783816316497,185.11994564316896,142.08006332423153,159.30322097021622,116.56986445787717,58.044167049890866,1.0,1.3,212,-250,480,-282,685,-273,374.8786869049072,374.87876176834106,374.8816432952881,374.8932526111603,375.03892612457275,375.03892612457275,375.03892612457275,375.03892612457275,375.03892612457275,375.03892612457275,375.03892612457275,376.47954511642456,2,1.5645420551300049,None,,,,,,,,,,,,,,,,,,91,2,2025-02-24_11h01.26.355,comp,2024.2.4,56.445306927708415,2025-02-24 11h01.34.630589 -0500,
96,96,0,critical,wdh,35.0,1.0,lower,57.0,133.0,70.0,70.0,133.0,57.0,1,6.55821967124939,None,,,,,0,0,0,0,0,96,96,72,376.49978399276733,,,,,,,,,,,,,,,,,,,,,,,,,,,,,,,,,,,,,,,,,,,,,,,,,,,,,,,,,,,,,,,,,,,,,,,,,,,,,,,,,57.0,133.0,70.0,70.0,133.0,57.0,1.0,1.3,282,-260,480,-267,640,-277,376.4810929298401,376.4811682701111,376.48446559906006,376.49978399276733,376.64479660987854,376.64479660987854,376.64479660987854,376.64479660987854,376.64479660987854,376.64479660987854,376.64479660987854,383.06203508377075,1,6.55821967124939,None,,,,,,,,,,,,,,,,,,91,2,2025-02-24_11h01.26.355,comp,2024.2.4,56.445306927708415,2025-02-24 11h01.34.630589 -0500,
97,97,0,critical,hwd,35.0,3.0,lower,133.0,57.0,57.0,133.0,70.0,70.0,3,3.204162120819092,None,,,,,0,0,0,0,0,97,97,98,383.07769417762756,,,,,,,,,,,,,,,,,,,,,,,,,,,,,,,,,,,,,,,,,,,,,,,,,,,,,,,,,,,,,,,,,,,,,,,,,,,,,,,,,133.0,57.0,57.0,133.0,70.0,70.0,3.0,3.1,-191,270,0,-10,198,-253,383.06358766555786,383.0636622905731,383.0664985179901,383.07769417762756,383.22416472435,383.22416472435,383.22416472435,383.22416472435,383.22416472435,383.22416472435,383.22416472435,386.2976930141449,3,3.204162120819092,None,,,,,,,,,,,,,,,,,,91,2,2025-02-24_11h01.26.355,comp,2024.2.4,56.445306927708415,2025-02-24 11h01.34.630589 -0500,
98,98,0,critical,dhw,35.0,2.1,upper,127.0,127.0,200.0,125.0,125.0,200.0,3,3.878058671951294,None,,,,,0,0,0,0,0,98,98,1,386.3158583641052,,,,,,,,,,,,,,,,,,,,,,,,,,,,,,,,,,,,,,,,,,,,,,,,,,,,,,,,,,,,,,,,,,,,,,,,,,,,,,,,,127.0,127.0,200.0,125.0,125.0,200.0,2.1,2.11,-222,257,0,290,258,-269,386.29920387268066,386.29927945137024,386.3020820617676,386.3158583641052,386.46056842803955,386.46056842803955,386.46056842803955,386.46056842803955,386.46056842803955,386.46056842803955,386.46056842803955,390.2101821899414,3,3.878058671951294,None,,,,,,,,,,,,,,,,,,91,2,2025-02-24_11h01.26.355,comp,2024.2.4,56.445306927708415,2025-02-24 11h01.34.630589 -0500,
99,99,0,critical,dwh,35.0,4.0,upper,127.0,127.0,125.0,200.0,200.0,125.0,2,2.3930227756500244,None,,,,,0,0,0,0,0,99,99,65,390.22528767585754,,,,,,,,,,,,,,,,,,,,,,,,,,,,,,,,,,,,,,,,,,,,,,,,,,,,,,,,,,,,,,,,,,,,,,,,,,,,,,,,,127.0,127.0,125.0,200.0,200.0,125.0,4.0,4.1,-260,-270,0,8,258,-289,390.2117383480072,390.21181416511536,390.2149558067322,390.22528767585754,390.3783209323883,390.3783209323883,390.3783209323883,390.3783209323883,390.3783209323883,390.3783209323883,390.3783209323883,392.6274251937866,2,2.3930227756500244,None,,,,,,,,,,,,,,,,,,91,2,2025-02-24_11h01.26.355,comp,2024.2.4,56.445306927708415,2025-02-24 11h01.34.630589 -0500,
100,100,0,critical,dwh,20.0,2.1,lower,78.0,78.0,57.0,133.0,133.0,57.0,2,4.884021997451782,None,,,,,0,0,0,0,0,100,100,6,392.6463224887848,,,,,,,,,,,,,,,,,,,,,,,,,,,,,,,,,,,,,,,,,,,,,,,,,,,,,,,,,,,,,,,,,,,,,,,,,,,,,,,,,78.0,78.0,57.0,133.0,133.0,57.0,2.1,2.11,-202,251,0,269,191,-252,392.6288616657257,392.62893533706665,392.6318702697754,392.6463224887848,392.7944555282593,392.7944555282593,392.7944555282593,392.7944555282593,392.7944555282593,392.7944555282593,392.7944555282593,397.5371730327606,2,4.884021997451782,None,,,,,,,,,,,,,,,,,,91,2,2025-02-24_11h01.26.355,comp,2024.2.4,56.445306927708415,2025-02-24 11h01.34.630589 -0500,
101,101,0,critical,wdh,20.0,2.1,lower,57.0,133.0,78.0,78.0,133.0,57.0,1,2.197080135345459,None,,,,,0,0,0,0,0,101,101,34,397.55775785446167,,,,,,,,,,,,,,,,,,,,,,,,,,,,,,,,,,,,,,,,,,,,,,,,,,,,,,,,,,,,,,,,,,,,,,,,,,,,,,,,,57.0,133.0,78.0,78.0,133.0,57.0,2.1,2.11,-202,285,0,254,164,-275,397.5387077331543,397.538782119751,397.5419557094574,397.55775785446167,397.6961705684662,397.6961705684662,397.6961705684662,397.6961705684662,397.6961705684662,397.6961705684662,397.6961705684662,399.7628490924835,1,2.197080135345459,None,,,,,,,,,,,,,,,,,,91,2,2025-02-24_11h01.26.355,comp,2024.2.4,56.445306927708415,2025-02-24 11h01.34.630589 -0500,
102,102,0,filler_square,None,None,None,None,None,None,None,None,None,None,2,1.789100170135498,None,,,,,0,0,0,0,0,102,102,203,399.78967213630676,,,,,,,,,,,,,,,,,,,,,,,,,,,,,,,,,,,,,,,,,,,,,,,,,,,,,,,,,,,,,,,,,,,,,,,,,,,,,,,,,77.24055519572269,82.81995623104186,109.28829469420805,109.28829469420805,98.73847686934252,81.79888582429258,4.0,4.1,-192,-272,0,-7,192,-253,399.7647120952606,399.76481914520264,399.76800298690796,399.78967213630676,399.93048667907715,399.93048667907715,399.93048667907715,399.93048667907715,399.93048667907715,399.93048667907715,399.93048667907715,401.58786058425903,2,1.789100170135498,None,,,,,,,,,,,,,,,,,,91,2,2025-02-24_11h01.26.355,comp,2024.2.4,56.445306927708415,2025-02-24 11h01.34.630589 -0500,
103,103,0,filler_square,None,None,None,None,None,None,None,None,None,None,3,1.8756885528564453,None,,,,,0,0,0,0,0,103,103,190,401.60679936408997,,,,,,,,,,,,,,,,,,,,,,,,,,,,,,,,,,,,,,,,,,,,,,,,,,,,,,,,,,,,,,,,,,,,,,,,,,,,,,,,,76.66229486469027,65.63532473448342,74.24503472880428,59.103499635241015,79.09631265050692,79.09631265050692,4.0,4.1,-158,-276,0,-5,165,-283,401.58953523635864,401.58961057662964,401.5924482345581,401.60679936408997,401.7482032775879,401.7482032775879,401.7482032775879,401.7482032775879,401.7482032775879,401.7482032775879,401.7482032775879,403.5000705718994,3,1.8756885528564453,None,,,,,,,,,,,,,,,,,,91,2,2025-02-24_11h01.26.355,comp,2024.2.4,56.445306927708415,2025-02-24 11h01.34.630589 -0500,
104,104,0,filler_random,None,None,None,None,None,None,None,None,None,None,1,1.9827938079833984,None,,,,,0,0,0,0,0,104,104,132,403.51535654067993,,,,,,,,,,,,,,,,,,,,,,,,,,,,,,,,,,,,,,,,,,,,,,,,,,,,,,,,,,,,,,,,,,,,,,,,,,,,,,,,,115.25229417283539,138.47613894845563,86.553926000864,128.331540136267,72.243649941565,179.53657900672772,2.1,2.12,-229,-278,0,-262,250,275,403.50176668167114,403.50184392929077,403.5050013065338,403.51535654067993,403.6651351451874,403.6651351451874,403.6651351451874,403.6651351451874,403.6651351451874,403.6651351451874,403.6651351451874,405.50147795677185,1,1.9827938079833984,None,,,,,,,,,,,,,,,,,,91,2,2025-02-24_11h01.26.355,comp,2024.2.4,56.445306927708415,2025-02-24 11h01.34.630589 -0500,
105,105,0,critical,dhw,20.0,3.0,upper,141.0,141.0,200.0,125.0,125.0,200.0,3,3.2255945205688477,None,,,,,0,0,0,0,0,105,105,57,405.5207483768463,,,,,,,,,,,,,,,,,,,,,,,,,,,,,,,,,,,,,,,,,,,,,,,,,,,,,,,,,,,,,,,,,,,,,,,,,,,,,,,,,141.0,141.0,200.0,125.0,125.0,200.0,3.0,3.1,-229,259,0,11,258,-276,405.5032248497009,405.5033221244812,405.50670528411865,405.5207483768463,405.66537165641785,405.66537165641785,405.66537165641785,405.66537165641785,405.66537165641785,405.66537165641785,405.66537165641785,408.7491948604584,3,3.2255945205688477,None,,,,,,,,,,,,,,,,,,91,2,2025-02-24_11h01.26.355,comp,2024.2.4,56.445306927708415,2025-02-24 11h01.34.630589 -0500,
106,106,0,filler_random,None,None,None,None,None,None,None,None,None,None,3,1.7322657108306885,None,,,,,0,0,0,0,0,106,106,147,408.7657792568207,,,,,,,,,,,,,,,,,,,,,,,,,,,,,,,,,,,,,,,,,,,,,,,,,,,,,,,,,,,,,,,,,,,,,,,,,,,,,,,,,175.28807589546824,68.43982124252686,101.36106587764169,94.85803834572633,154.2647983239719,101.88399233115112,1.0,1.3,302,-252,480,-260,674,-271,408.75095677375793,408.7511065006256,408.7545487880707,408.7657792568207,408.92014622688293,408.92014622688293,408.92014622688293,408.92014622688293,408.92014622688293,408.92014622688293,408.92014622688293,410.5166299343109,3,1.7322657108306885,None,,,,,,,,,,,,,,,,,,91,2,2025-02-24_11h01.26.355,comp,2024.2.4,56.445306927708415,2025-02-24 11h01.34.630589 -0500,
107,107,0,filler_random,None,None,None,None,None,None,None,None,None,None,3,3.67956805229187,None,,,,,0,0,0,0,0,107,107,141,410.53211402893066,,,,,,,,,,,,,,,,,,,,,,,,,,,,,,,,,,,,,,,,,,,,,,,,,,,,,,,,,,,,,,,,,,,,,,,,,,,,,,,,,156.18183042250374,57.59666072383479,63.73809738230386,118.10357685554095,57.74174732318405,149.74390953460258,1.0,1.1,-664,254,-480,277,-250,251,410.5182240009308,410.518296957016,410.521133184433,410.53211402893066,410.6885414123535,410.6885414123535,410.6885414123535,410.6885414123535,410.6885414123535,410.6885414123535,410.6885414123535,414.21745252609253,3,3.67956805229187,None,,,,,,,,,,,,,,,,,,91,2,2025-02-24_11h01.26.355,comp,2024.2.4,56.445306927708415,2025-02-24 11h01.34.630589 -0500,
108,108,0,critical,dhw,20.0,2.1,upper,141.0,141.0,200.0,125.0,125.0,200.0,2,3.832634449005127,None,,,,,0,0,0,0,0,108,108,27,414.23367977142334,,,,,,,,,,,,,,,,,,,,,,,,,,,,,,,,,,,,,,,,,,,,,,,,,,,,,,,,,,,,,,,,,,,,,,,,,,,,,,,,,141.0,141.0,200.0,125.0,125.0,200.0,2.1,2.11,-229,280,0,267,258,-281,414.21888041496277,414.2189509868622,414.2219650745392,414.23367977142334,414.3907654285431,414.3907654285431,414.3907654285431,414.3907654285431,414.3907654285431,414.3907654285431,414.3907654285431,418.0687527656555,2,3.832634449005127,None,,,,,,,,,,,,,,,,,,91,2,2025-02-24_11h01.26.355,comp,2024.2.4,56.445306927708415,2025-02-24 11h01.34.630589 -0500,
109,109,0,critical,whd,35.0,4.0,upper,125.0,200.0,200.0,125.0,127.0,127.0,2,2.993771553039551,None,,,,,0,0,0,0,0,109,109,89,418.0885217189789,,,,,,,,,,,,,,,,,,,,,,,,,,,,,,,,,,,,,,,,,,,,,,,,,,,,,,,,,,,,,,,,,,,,,,,,,,,,,,,,,125.0,200.0,200.0,125.0,127.0,127.0,4.0,4.1,-258,-269,0,18,222,-281,418.0703012943268,418.0703754425049,418.0733251571655,418.0885217189789,418.2362747192383,418.2362747192383,418.2362747192383,418.2362747192383,418.2362747192383,418.2362747192383,418.2362747192383,421.0862624645233,2,2.993771553039551,None,,,,,,,,,,,,,,,,,,91,2,2025-02-24_11h01.26.355,comp,2024.2.4,56.445306927708415,2025-02-24 11h01.34.630589 -0500,
110,110,0,critical,wdh,35.0,2.1,lower,57.0,133.0,70.0,70.0,133.0,57.0,1,3.8355958461761475,None,,,,,0,0,0,0,0,110,110,32,421.10238003730774,,,,,,,,,,,,,,,,,,,,,,,,,,,,,,,,,,,,,,,,,,,,,,,,,,,,,,,,,,,,,,,,,,,,,,,,,,,,,,,,,57.0,133.0,70.0,70.0,133.0,57.0,2.1,2.11,-198,264,0,288,160,-282,421.0877299308777,421.0878040790558,421.09077167510986,421.10238003730774,421.25238275527954,421.25238275527954,421.25238275527954,421.25238275527954,421.25238275527954,421.25238275527954,421.25238275527954,424.95384979248047,1,3.8355958461761475,None,,,,,,,,,,,,,,,,,,91,2,2025-02-24_11h01.26.355,comp,2024.2.4,56.445306927708415,2025-02-24 11h01.34.630589 -0500,
111,111,0,filler_square,None,None,None,None,None,None,None,None,None,None,1,2.193420886993408,None,,,,,0,0,0,0,0,111,111,170,424.9697983264923,,,,,,,,,,,,,,,,,,,,,,,,,,,,,,,,,,,,,,,,,,,,,,,,,,,,,,,,,,,,,,,,,,,,,,,,,,,,,,,,,107.02189392327315,107.02189392327315,94.7433785113275,68.732296301302,97.1924619380244,74.6016795718246,2.2,2.22,-184,260,0,-252,168,-284,424.95548152923584,424.9555547237396,424.95855808258057,424.9697983264923,425.10680317878723,425.10680317878723,425.10680317878723,425.10680317878723,425.10680317878723,425.10680317878723,425.10680317878723,427.1693649291992,1,2.193420886993408,None,,,,,,,,,,,,,,,,,,91,2,2025-02-24_11h01.26.355,comp,2024.2.4,56.445306927708415,2025-02-24 11h01.34.630589 -0500,
112,112,0,critical,hdw,35.0,1.0,upper,200.0,125.0,127.0,127.0,125.0,200.0,3,3.319847345352173,None,,,,,0,0,0,0,0,112,112,109,427.18668723106384,,,,,,,,,,,,,,,,,,,,,,,,,,,,,,,,,,,,,,,,,,,,,,,,,,,,,,,,,,,,,,,,,,,,,,,,,,,,,,,,,200.0,125.0,127.0,127.0,125.0,200.0,1.0,1.2,-222,14,0,8,260,-12,427.17084527015686,427.1709175109863,427.17377638816833,427.18668723106384,427.322518825531,427.322518825531,427.322518825531,427.322518825531,427.322518825531,427.322518825531,427.322518825531,430.5161557197571,3,3.319847345352173,None,,,,,,,,,,,,,,,,,,91,2,2025-02-24_11h01.26.355,comp,2024.2.4,56.445306927708415,2025-02-24 11h01.34.630589 -0500,
113,113,0,filler_random,None,None,None,None,None,None,None,None,None,None,2,4.603883981704712,None,,,,,0,0,0,0,0,113,113,136,430.53426241874695,,,,,,,,,,,,,,,,,,,,,,,,,,,,,,,,,,,,,,,,,,,,,,,,,,,,,,,,,,,,,,,,,,,,,,,,,,,,,,,,,59.12769348151139,137.98670769425829,104.61018089394817,148.63955139633856,145.75875488831016,103.84372496513402,3.0,3.2,-239,-270,0,18,222,266,430.51783180236816,430.51795172691345,430.5211250782013,430.53426241874695,430.6739857196808,430.6739857196808,430.6739857196808,430.6739857196808,430.6739857196808,430.6739857196808,430.6739857196808,435.15686321258545,2,4.603883981704712,None,,,,,,,,,,,,,,,,,,91,2,2025-02-24_11h01.26.355,comp,2024.2.4,56.445306927708415,2025-02-24 11h01.34.630589 -0500,
114,114,0,critical,hwd,35.0,2.1,upper,200.0,125.0,125.0,200.0,127.0,127.0,2,2.349355459213257,None,,,,,0,0,0,0,0,114,114,41,435.17265129089355,,,,,,,,,,,,,,,,,,,,,,,,,,,,,,,,,,,,,,,,,,,,,,,,,,,,,,,,,,,,,,,,,,,,,,,,,,,,,,,,,200.0,125.0,125.0,200.0,127.0,127.0,2.1,2.11,-258,279,0,259,260,-251,435.1583425998688,435.1584167480469,435.16129875183105,435.17265129089355,435.32079243659973,435.32079243659973,435.32079243659973,435.32079243659973,435.32079243659973,435.32079243659973,435.32079243659973,437.5255973339081,2,2.349355459213257,None,,,,,,,,,,,,,,,,,,91,2,2025-02-24_11h01.26.355,comp,2024.2.4,56.445306927708415,2025-02-24 11h01.34.630589 -0500,
115,115,0,critical,hdw,35.0,4.0,upper,200.0,125.0,127.0,127.0,125.0,200.0,3,1.389357566833496,None,,,,,0,0,0,0,0,115,115,113,437.5413613319397,,,,,,,,,,,,,,,,,,,,,,,,,,,,,,,,,,,,,,,,,,,,,,,,,,,,,,,,,,,,,,,,,,,,,,,,,,,,,,,,,200.0,125.0,127.0,127.0,125.0,200.0,4.0,4.2,-222,1,0,-276,260,-19,437.5270276069641,437.5271306037903,437.5304605960846,437.5413613319397,437.6987645626068,437.6987645626068,437.6987645626068,437.6987645626068,437.6987645626068,437.6987645626068,437.6987645626068,438.9337799549103,3,1.389357566833496,None,,,,,,,,,,,,,,,,,,91,2,2025-02-24_11h01.26.355,comp,2024.2.4,56.445306927708415,2025-02-24 11h01.34.630589 -0500,
116,116,0,critical,hdw,35.0,4.0,lower,133.0,57.0,70.0,70.0,57.0,133.0,3,4.405746936798096,None,,,,,0,0,0,0,0,116,116,112,438.9488182067871,,,,,,,,,,,,,,,,,,,,,,,,,,,,,,,,,,,,,,,,,,,,,,,,,,,,,,,,,,,,,,,,,,,,,,,,,,,,,,,,,133.0,57.0,70.0,70.0,57.0,133.0,4.0,4.1,-160,-261,0,7,198,-286,438.9352283477783,438.9353013038635,438.9380724430084,438.9488182067871,439.0902986526489,439.0902986526489,439.0902986526489,439.0902986526489,439.0902986526489,439.0902986526489,439.0902986526489,443.3592953681946,3,4.405746936798096,None,,,,,,,,,,,,,,,,,,91,2,2025-02-24_11h01.26.355,comp,2024.2.4,56.445306927708415,2025-02-24 11h01.34.630589 -0500,
117,117,0,filler_random,None,None,None,None,None,None,None,None,None,None,2,1.579057216644287,None,,,,,0,0,0,0,0,117,117,166,443.3754584789276,,,,,,,,,,,,,,,,,,,,,,,,,,,,,,,,,,,,,,,,,,,,,,,,,,,,,,,,,,,,,,,,,,,,,,,,,,,,,,,,,164.54485212994007,79.53378930773815,174.97915433394303,185.79052748622655,145.66453475264228,88.79539501442288,2.2,2.21,-229,-258,0,263,233,287,443.3608510494232,443.36092376708984,443.3637652397156,443.3754584789276,443.52731442451477,443.52731442451477,443.52731442451477,443.52731442451477,443.52731442451477,443.52731442451477,443.52731442451477,444.96207880973816,2,1.579057216644287,None,,,,,,,,,,,,,,,,,,91,2,2025-02-24_11h01.26.355,comp,2024.2.4,56.445306927708415,2025-02-24 11h01.34.630589 -0500,
118,118,0,critical,hwd,20.0,4.0,upper,200.0,125.0,125.0,200.0,141.0,141.0,2,2.3759498596191406,None,,,,,0,0,0,0,0,118,118,107,444.9780158996582,,,,,,,,,,,,,,,,,,,,,,,,,,,,,,,,,,,,,,,,,,,,,,,,,,,,,,,,,,,,,,,,,,,,,,,,,,,,,,,,,200.0,125.0,125.0,200.0,141.0,141.0,4.0,4.2,-258,-11,0,-283,266,-13,444.96366453170776,444.9637408256531,444.9671251773834,444.9780158996582,445.1266596317291,445.1266596317291,445.1266596317291,445.1266596317291,445.1266596317291,445.1266596317291,445.1266596317291,447.3634281158447,2,2.3759498596191406,None,,,,,,,,,,,,,,,,,,91,2,2025-02-24_11h01.26.355,comp,2024.2.4,56.445306927708415,2025-02-24 11h01.34.630589 -0500,
119,119,0,filler_square,None,None,None,None,None,None,None,None,None,None,1,1.9504153728485107,None,,,,,0,0,0,0,0,119,119,206,447.379914522171,,,,,,,,,,,,,,,,,,,,,,,,,,,,,,,,,,,,,,,,,,,,,,,,,,,,,,,,,,,,,,,,,,,,,,,,,,,,,,,,,166.75303319783623,166.75303319783623,87.44097841731384,132.6692514853128,139.5745192006131,60.05448593370723,2.1,2.12,-246,-287,0,-285,192,273,447.36532402038574,447.36540365219116,447.3687925338745,447.379914522171,447.5346555709839,447.5346555709839,447.5346555709839,447.5346555709839,447.5346555709839,447.5346555709839,447.5346555709839,449.34588527679443,1,1.9504153728485107,None,,,,,,,,,,,,,,,,,,91,2,2025-02-24_11h01.26.355,comp,2024.2.4,56.445306927708415,2025-02-24 11h01.34.630589 -0500,
120,120,0,filler_random,None,None,None,None,None,None,None,None,None,None,3,1.6809728145599365,None,,,,,0,0,0,0,0,120,120,162,449.3618392944336,,,,,,,,,,,,,,,,,,,,,,,,,,,,,,,,,,,,,,,,,,,,,,,,,,,,,,,,,,,,,,,,,,,,,,,,,,,,,,,,,135.56222348022732,171.42423509863593,123.71252395815686,59.89058256419398,163.04166797764893,194.78882230299627,2.1,2.11,-212,286,0,270,223,-274,449.347665309906,449.34778666496277,449.35117268562317,449.3618392944336,449.5162284374237,449.5162284374237,449.5162284374237,449.5162284374237,449.5162284374237,449.5162284374237,449.5162284374237,451.0465795993805,3,1.6809728145599365,None,,,,,,,,,,,,,,,,,,91,2,2025-02-24_11h01.26.355,comp,2024.2.4,56.445306927708415,2025-02-24 11h01.34.630589 -0500,
121,121,0,critical,whd,20.0,2.1,lower,57.0,133.0,133.0,57.0,78.0,78.0,1,4.244720935821533,None,,,,,0,0,0,0,0,121,121,38,451.06213307380676,,,,,,,,,,,,,,,,,,,,,,,,,,,,,,,,,,,,,,,,,,,,,,,,,,,,,,,,,,,,,,,,,,,,,,,,,,,,,,,,,57.0,133.0,133.0,57.0,78.0,78.0,2.1,2.11,-191,260,0,258,164,-277,451.0479838848114,451.0480763912201,451.05139780044556,451.06213307380676,451.21017813682556,451.21017813682556,451.21017813682556,451.21017813682556,451.21017813682556,451.21017813682556,451.21017813682556,455.31460332870483,1,4.244720935821533,None,,,,,,,,,,,,,,,,,,91,2,2025-02-24_11h01.26.355,comp,2024.2.4,56.445306927708415,2025-02-24 11h01.34.630589 -0500,
122,122,0,critical,dhw,35.0,1.0,lower,70.0,70.0,133.0,57.0,57.0,133.0,3,4.295362949371338,None,,,,,0,0,0,0,0,122,122,48,455.33111929893494,,,,,,,,,,,,,,,,,,,,,,,,,,,,,,,,,,,,,,,,,,,,,,,,,,,,,,,,,,,,,,,,,,,,,,,,,,,,,,,,,70.0,70.0,133.0,57.0,57.0,133.0,1.0,1.1,-640,262,-480,288,-289,274,455.3161804676056,455.31628012657166,455.3196351528168,455.33111929893494,455.48331022262573,455.48331022262573,455.48331022262573,455.48331022262573,455.48331022262573,455.48331022262573,455.48331022262573,459.63169026374817,3,4.295362949371338,None,,,,,,,,,,,,,,,,,,91,2,2025-02-24_11h01.26.355,comp,2024.2.4,56.445306927708415,2025-02-24 11h01.34.630589 -0500,
123,123,0,filler_square,None,None,None,None,None,None,None,None,None,None,2,2.141871452331543,None,,,,,0,0,0,0,0,123,123,199,459.65254759788513,,,,,,,,,,,,,,,,,,,,,,,,,,,,,,,,,,,,,,,,,,,,,,,,,,,,,,,,,,,,,,,,,,,,,,,,,,,,,,,,,119.738991783004,79.2984452596983,128.23178722450857,128.23178722450857,109.03939772893263,94.09348930848756,3.0,3.2,-200,-279,0,-8,207,284,459.6335942745209,459.63372778892517,459.63719940185547,459.65254759788513,459.79930210113525,459.79930210113525,459.79930210113525,459.79930210113525,459.79930210113525,459.79930210113525,459.79930210113525,461.8009223937988,2,2.141871452331543,None,,,,,,,,,,,,,,,,,,91,2,2025-02-24_11h01.26.355,comp,2024.2.4,56.445306927708415,2025-02-24 11h01.34.630589 -0500,
124,124,0,critical,whd,20.0,3.0,lower,57.0,133.0,133.0,57.0,78.0,78.0,3,3.0012714862823486,None,,,,,0,0,0,0,0,124,124,92,461.81690859794617,,,,,,,,,,,,,,,,,,,,,,,,,,,,,,,,,,,,,,,,,,,,,,,,,,,,,,,,,,,,,,,,,,,,,,,,,,,,,,,,,57.0,133.0,133.0,57.0,78.0,78.0,3.0,3.1,-191,256,0,-17,164,-250,461.802551984787,461.80262756347656,461.8060133457184,461.81690859794617,461.9693832397461,461.9693832397461,461.9693832397461,461.9693832397461,461.9693832397461,461.9693832397461,461.9693832397461,464.8339262008667,3,3.0012714862823486,None,,,,,,,,,,,,,,,,,,91,2,2025-02-24_11h01.26.355,comp,2024.2.4,56.445306927708415,2025-02-24 11h01.34.630589 -0500,
125,125,0,critical,dhw,35.0,4.0,upper,127.0,127.0,200.0,125.0,125.0,200.0,3,2.14739727973938,None,,,,,0,0,0,0,0,125,125,53,464.8476810455322,,,,,,,,,,,,,,,,,,,,,,,,,,,,,,,,,,,,,,,,,,,,,,,,,,,,,,,,,,,,,,,,,,,,,,,,,,,,,,,,,127.0,127.0,200.0,125.0,125.0,200.0,4.0,4.1,-222,-257,0,17,258,-250,464.8354253768921,464.8354992866516,464.8386197090149,464.8476810455322,464.99888706207275,464.99888706207275,464.99888706207275,464.99888706207275,464.99888706207275,464.99888706207275,464.99888706207275,467.00374817848206,3,2.14739727973938,None,,,,,,,,,,,,,,,,,,91,2,2025-02-24_11h01.26.355,comp,2024.2.4,56.445306927708415,2025-02-24 11h01.34.630589 -0500,
126,126,0,critical,dwh,20.0,4.0,lower,78.0,78.0,57.0,133.0,133.0,57.0,1,8.788102626800537,None,,,,,0,0,0,0,0,126,126,70,467.02194118499756,,,,,,,,,,,,,,,,,,,,,,,,,,,,,,,,,,,,,,,,,,,,,,,,,,,,,,,,,,,,,,,,,,,,,,,,,,,,,,,,,78.0,78.0,57.0,133.0,133.0,57.0,4.0,4.2,-202,-17,0,-281,191,-18,467.0053753852844,467.0054531097412,467.0086932182312,467.02194118499756,467.17249870300293,467.17249870300293,467.17249870300293,467.17249870300293,467.17249870300293,467.17249870300293,467.17249870300293,475.82786798477173,1,8.788102626800537,None,,,,,,,,,,,,,,,,,,91,2,2025-02-24_11h01.26.355,comp,2024.2.4,56.445306927708415,2025-02-24 11h01.34.630589 -0500,
127,127,0,critical,wdh,20.0,3.0,upper,125.0,200.0,141.0,141.0,200.0,125.0,3,1.9701716899871826,None,,,,,0,0,0,0,0,127,127,81,475.84817600250244,,,,,,,,,,,,,,,,,,,,,,,,,,,,,,,,,,,,,,,,,,,,,,,,,,,,,,,,,,,,,,,,,,,,,,,,,,,,,,,,,125.0,200.0,141.0,141.0,200.0,125.0,3.0,3.1,-266,256,0,10,229,-262,475.82935309410095,475.82942748069763,475.8328368663788,475.84817600250244,475.9901406764984,475.9901406764984,475.9901406764984,475.9901406764984,475.9901406764984,475.9901406764984,475.9901406764984,477.8378827571869,3,1.9701716899871826,None,,,,,,,,,,,,,,,,,,91,2,2025-02-24_11h01.26.355,comp,2024.2.4,56.445306927708415,2025-02-24 11h01.34.630589 -0500,
128,128,0,critical,whd,20.0,2.1,upper,125.0,200.0,200.0,125.0,141.0,141.0,1,2.8367323875427246,None,,,,,0,0,0,0,0,128,128,39,477.8535566329956,,,,,,,,,,,,,,,,,,,,,,,,,,,,,,,,,,,,,,,,,,,,,,,,,,,,,,,,,,,,,,,,,,,,,,,,,,,,,,,,,125.0,200.0,200.0,125.0,141.0,141.0,2.1,2.12,-258,-264,0,-275,229,273,477.83937644958496,477.83944940567017,477.84253668785095,477.8535566329956,478.00895166397095,478.00895166397095,478.00895166397095,478.00895166397095,478.00895166397095,478.00895166397095,478.00895166397095,480.70591711997986,1,2.8367323875427246,None,,,,,,,,,,,,,,,,,,91,2,2025-02-24_11h01.26.355,comp,2024.2.4,56.445306927708415,2025-02-24 11h01.34.630589 -0500,
129,129,0,filler_square,None,None,None,None,None,None,None,None,None,None,1,1.6328494548797607,None,,,,,0,0,0,0,0,129,129,174,480.7218723297119,,,,,,,,,,,,,,,,,,,,,,,,,,,,,,,,,,,,,,,,,,,,,,,,,,,,,,,,,,,,,,,,,,,,,,,,,,,,,,,,,186.92398105267597,186.92398105267597,172.2518651212692,88.89221118083893,105.75582998510546,149.57980488450198,1.0,1.3,246,-257,480,-271,695,-261,480.70778703689575,480.7078640460968,480.71140694618225,480.7218723297119,480.8774209022522,480.8774209022522,480.8774209022522,480.8774209022522,480.8774209022522,480.8774209022522,480.8774209022522,482.3604402542114,1,1.6328494548797607,None,,,,,,,,,,,,,,,,,,91,2,2025-02-24_11h01.26.355,comp,2024.2.4,56.445306927708415,2025-02-24 11h01.34.630589 -0500,
130,130,0,critical,wdh,20.0,4.0,lower,57.0,133.0,78.0,78.0,133.0,57.0,1,4.6263086795806885,None,,,,,0,0,0,0,0,130,130,82,482.37599992752075,,,,,,,,,,,,,,,,,,,,,,,,,,,,,,,,,,,,,,,,,,,,,,,,,,,,,,,,,,,,,,,,,,,,,,,,,,,,,,,,,57.0,133.0,78.0,78.0,133.0,57.0,4.0,4.2,-202,-2,0,-287,164,-12,482.36244678497314,482.36252450942993,482.3653316497803,482.37599992752075,482.5240168571472,482.5240168571472,482.5240168571472,482.5240168571472,482.5240168571472,482.5240168571472,482.5240168571472,487.00634932518005,1,4.6263086795806885,None,,,,,,,,,,,,,,,,,,91,2,2025-02-24_11h01.26.355,comp,2024.2.4,56.445306927708415,2025-02-24 11h01.34.630589 -0500,
131,131,0,critical,whd,20.0,2.1,upper,125.0,200.0,200.0,125.0,141.0,141.0,1,2.819237470626831,None,,,,,0,0,0,0,0,131,131,15,487.02283453941345,,,,,,,,,,,,,,,,,,,,,,,,,,,,,,,,,,,,,,,,,,,,,,,,,,,,,,,,,,,,,,,,,,,,,,,,,,,,,,,,,125.0,200.0,200.0,125.0,141.0,141.0,2.1,2.11,-258,261,0,287,229,-251,487.0078067779541,487.0078799724579,487.01072001457214,487.02283453941345,487.17715787887573,487.17715787887573,487.17715787887573,487.17715787887573,487.17715787887573,487.17715787887573,487.17715787887573,489.85867977142334,1,2.819237470626831,None,,,,,,,,,,,,,,,,,,91,2,2025-02-24_11h01.26.355,comp,2024.2.4,56.445306927708415,2025-02-24 11h01.34.630589 -0500,
132,132,0,filler_square,None,None,None,None,None,None,None,None,None,None,3,3.2238526344299316,None,,,,,0,0,0,0,0,132,132,181,489.87417817115784,,,,,,,,,,,,,,,,,,,,,,,,,,,,,,,,,,,,,,,,,,,,,,,,,,,,,,,,,,,,,,,,,,,,,,,,,,,,,,,,,62.25865380680415,64.54766131611156,60.73235769153331,60.909708365732584,67.50875647819586,67.50875647819586,4.0,4.2,-159,1,0,-253,160,20,489.86046600341797,489.8605372905731,489.86388087272644,489.87417817115784,490.02345848083496,490.02345848083496,490.02345848083496,490.02345848083496,490.02345848083496,490.02345848083496,490.02345848083496,493.10815954208374,3,3.2238526344299316,None,,,,,,,,,,,,,,,,,,91,2,2025-02-24_11h01.26.355,comp,2024.2.4,56.445306927708415,2025-02-24 11h01.34.630589 -0500,
133,133,0,catch,None,None,None,None,None,None,None,None,None,None,1,1.877774953842163,None,,,,,0,0,0,0,0,133,133,121,493.1251471042633,,,,,,,,,,,,,,,,,,,,,,,,,,,,,,,,,,,,,,,,,,,,,,,,,,,,,,,,,,,,,,,,,,,,,,,,,,,,,,,,,134,191,92,98,104,86,1.0,1.3,240,-275,480,-287,668,-263,493.10998463630676,493.11010241508484,493.11321806907654,493.1251471042633,493.265855550766,493.265855550766,493.265855550766,493.265855550766,493.265855550766,493.265855550766,493.265855550766,495.01096272468567,1,1.877774953842163,None,,,,,,,,,,,,,,,,,,91,2,2025-02-24_11h01.26.355,comp,2024.2.4,56.445306927708415,2025-02-24 11h01.34.630589 -0500,
134,134,0,critical,hdw,35.0,2.1,upper,200.0,125.0,127.0,127.0,125.0,200.0,3,5.97546911239624,None,,,,,0,0,0,0,0,134,134,21,495.034775018692,,,,,,,,,,,,,,,,,,,,,,,,,,,,,,,,,,,,,,,,,,,,,,,,,,,,,,,,,,,,,,,,,,,,,,,,,,,,,,,,,200.0,125.0,127.0,127.0,125.0,200.0,2.1,2.11,-222,263,0,263,260,-257,495.0125575065613,495.01263213157654,495.0159065723419,495.034775018692,495.1774597167969,495.1774597167969,495.1774597167969,495.1774597167969,495.1774597167969,495.1774597167969,495.1774597167969,501.02839970588684,3,5.97546911239624,None,,,,,,,,,,,,,,,,,,91,2,2025-02-24_11h01.26.355,comp,2024.2.4,56.445306927708415,2025-02-24 11h01.34.630589 -0500,
135,135,0,filler_square,None,None,None,None,None,None,None,None,None,None,3,4.093904256820679,None,,,,,0,0,0,0,0,135,135,201,501.04444551467896,,,,,,,,,,,,,,,,,,,,,,,,,,,,,,,,,,,,,,,,,,,,,,,,,,,,,,,,,,,,,,,,,,,,,,,,,,,,,,,,,79.79394273921262,86.31701099572723,68.11391170340875,63.12194961663415,91.20545958093683,91.20545958093683,1.0,1.3,309,-289,480,-253,653,-269,501.0302174091339,501.030291557312,501.0332968235016,501.04444551467896,501.1945569515228,501.1945569515228,501.1945569515228,501.1945569515228,501.1945569515228,501.1945569515228,501.1945569515228,505.1498885154724,3,4.093904256820679,None,,,,,,,,,,,,,,,,,,91,2,2025-02-24_11h01.26.355,comp,2024.2.4,56.445306927708415,2025-02-24 11h01.34.630589 -0500,
136,136,0,critical,hdw,35.0,3.0,lower,133.0,57.0,70.0,70.0,57.0,133.0,3,5.084190607070923,None,,,,,0,0,0,0,0,136,136,110,505.1659257411957,,,,,,,,,,,,,,,,,,,,,,,,,,,,,,,,,,,,,,,,,,,,,,,,,,,,,,,,,,,,,,,,,,,,,,,,,,,,,,,,,133.0,57.0,70.0,70.0,57.0,133.0,3.0,3.2,-160,-269,0,-19,198,272,505.15149903297424,505.1515734195709,505.1550130844116,505.1659257411957,505.3166389465332,505.3166389465332,505.3166389465332,505.3166389465332,505.3166389465332,505.3166389465332,505.3166389465332,510.2675211429596,3,5.084190607070923,None,,,,,,,,,,,,,,,,,,91,2,2025-02-24_11h01.26.355,comp,2024.2.4,56.445306927708415,2025-02-24 11h01.34.630589 -0500,
137,137,0,critical,hwd,35.0,1.0,upper,200.0,125.0,125.0,200.0,127.0,127.0,2,4.06207537651062,None,,,,,0,0,0,0,0,137,137,97,510.2847309112549,,,,,,,,,,,,,,,,,,,,,,,,,,,,,,,,,,,,,,,,,,,,,,,,,,,,,,,,,,,,,,,,,,,,,,,,,,,,,,,,,200.0,125.0,125.0,200.0,127.0,127.0,1.0,1.1,-738,274,-480,255,-220,283,510.26914072036743,510.26921796798706,510.27227687835693,510.2847309112549,510.4326193332672,510.4326193332672,510.4326193332672,510.4326193332672,510.4326193332672,510.4326193332672,510.4326193332672,514.3564913272858,2,4.06207537651062,None,,,,,,,,,,,,,,,,,,91,2,2025-02-24_11h01.26.355,comp,2024.2.4,56.445306927708415,2025-02-24 11h01.34.630589 -0500,
138,138,0,filler_random,None,None,None,None,None,None,None,None,None,None,3,3.185988664627075,None,,,,,0,0,0,0,0,138,138,164,514.3767313957214,,,,,,,,,,,,,,,,,,,,,,,,,,,,,,,,,,,,,,,,,,,,,,,,,,,,,,,,,,,,,,,,,,,,,,,,,,,,,,,,,82.75495015392389,159.36140608086035,91.07388506113848,121.02935687915152,172.12776434804772,130.6035339124319,1.0,1.1,-716,272,-480,251,-258,267,514.3581914901733,514.3582653999329,514.36146068573,514.3767313957214,514.5174849033356,514.5174849033356,514.5174849033356,514.5174849033356,514.5174849033356,514.5174849033356,514.5174849033356,517.5678033828735,3,3.185988664627075,None,,,,,,,,,,,,,,,,,,91,2,2025-02-24_11h01.26.355,comp,2024.2.4,56.445306927708415,2025-02-24 11h01.34.630589 -0500,
139,139,0,critical,hwd,35.0,4.0,lower,133.0,57.0,57.0,133.0,70.0,70.0,2,3.1435556411743164,None,,,,,0,0,0,0,0,139,139,100,517.5874135494232,,,,,,,,,,,,,,,,,,,,,,,,,,,,,,,,,,,,,,,,,,,,,,,,,,,,,,,,,,,,,,,,,,,,,,,,,,,,,,,,,133.0,57.0,57.0,133.0,70.0,70.0,4.0,4.2,-191,-2,0,-280,198,-18,517.5693204402924,517.5693938732147,517.5723543167114,517.5874135494232,517.7345395088196,517.7345395088196,517.7345395088196,517.7345395088196,517.7345395088196,517.7345395088196,517.7345395088196,520.7373654842377,2,3.1435556411743164,None,,,,,,,,,,,,,,,,,,91,2,2025-02-24_11h01.26.355,comp,2024.2.4,56.445306927708415,2025-02-24 11h01.34.630589 -0500,
