thisN,thisTrialN,thisRepN,effect,order,distance,config,diag,h_1,w_1,h_2,w_2,h_3,w_3,rect_choice.keys,rect_choice.rt,rect_choice.duration,instructions_loop.thisRepN,instructions_loop.thisTrialN,instructions_loop.thisN,instructions_loop.thisIndex,blocks.thisRepN,blocks.thisTrialN,blocks.thisN,blocks.thisIndex,trials.thisRepN,trials.thisTrialN,trials.thisN,trials.thisIndex,thisRow.t,notes,consent.started,agree_button.started,decline_button.started,consent_img.started,mouse.started,consent.stopped,agree_button.numClicks,agree_button.timesOn,agree_button.timesOff,decline_button.numClicks,decline_button.timesOn,decline_button.timesOff,mouse.x,mouse.y,mouse.leftButton,mouse.midButton,mouse.rightButton,mouse.time,mouse.clicked_name,exp_params.started,exp_params.stopped,welcome.started,welcome_text.started,welcome.stopped,instructions_1.started,instructions_1_text_1.started,instructions_1_text_2.started,key_resp.started,instructions_1.stopped,instructions_loop.key_resp.keys,instructions_loop.key_resp.rt,instructions_loop.key_resp.duration,instructions_2.started,instructions_2_text_1.started,instructions_2_text_2.started,key_resp_2.started,instructions_2.stopped,instructions_loop.key_resp_2.keys,instructions_loop.key_resp_2.rt,instructions_loop.key_resp_2.duration,instructions_3.started,instructions_3_text_1.started,r1_instr3.started,r2_instr3.started,r3_instr3.started,r1_instr3_label.started,r2_instr3_label.started,r3_instr3_label.started,instructions_3_text_3.started,instructions_3_text_4.started,key_resp_3.started,instructions_3.stopped,instructions_loop.key_resp_3.keys,instructions_loop.key_resp_3.rt,instructions_loop.key_resp_3.duration,instructions_4.started,instructions_4_text_1.started,instructions_4_text_3.started,instructions_4_text_2.started,key_resp_4.started,instructions_4.stopped,instructions_loop.key_resp_4.keys,instructions_loop.key_resp_4.rt,instructions_loop.key_resp_4.duration,instructions_5.started,instructions_5_text_1.started,instructions_5_text_2.started,key_resp_5.started,instructions_5.stopped,instructions_loop.key_resp_5.keys,instructions_loop.key_resp_5.rt,instructions_loop.key_resp_5.duration,start_exp.started,start_exp_text.started,key_resp_6.started,start_exp.stopped,key_resp_6.keys,key_resp_6.rt,key_resp_6.duration,h_1_tmp,w_1_tmp,h_2_tmp,w_2_tmp,h_3_tmp,w_3_tmp,config_tmp,config_tmp_1,r_1_x,r_1_y,r_2_x,r_2_y,r_3_x,r_3_y,pre_trial.started,pre_trial.stopped,choice_trial.started,rect_choice.started,r_1.started,r_2.started,r_3.started,r_1_label.started,r_2_label.started,r_3_label.started,prompt.started,choice_trial.stopped,trials.rect_choice.keys,trials.rect_choice.rt,trials.rect_choice.duration,end_block.started,end_block_text.started,end_block.stopped,end.started,end_text.started,key_resp_7.started,end.stopped,key_resp_7.keys,key_resp_7.rt,key_resp_7.duration,debriefing.started,debrief_form.started,end_debrief.started,debriefing.stopped,end_debrief.keys,end_debrief.rt,end_debrief.duration,participant,computer,date,expName,psychopyVersion,frameRate,expStart,
,,,,,,,,,,,,,,,,,,,,,,,,,,,,,,,0.015619516372680664,0.03626680374145508,0.03626680374145508,0.03626680374145508,0.015384435653686523,25.09781765937805,1,[25.05914878845215],[25.059173822402954],0,,,[-84.0],[-509.0],[1],[0],[0],[25.08157444000244],['agree_button'],,,,,,,,,,,,,,,,,,,,,,,,,,,,,,,,,,,,,,,,,,,,,,,,,,,,,,,,,,,,,,,,,,,,,,,,,,,,,,,,,,,,,,,,,,,,,,,,,,,,,,,,,,,92,1,2025-02-24_13h18.15.311,comp,2024.2.4,56.930895191764755,2025-02-24 13h21.39.156360 -0500,
,,,,,,,,,,,,,,,,,,,,,,,,,,,,,,,,,,,,,,,,,,,,,,,,,,25.098371744155884,25.09843921661377,,,,,,,,,,,,,,,,,,,,,,,,,,,,,,,,,,,,,,,,,,,,,,,,,,,,,,,,,,,,,,,,,,,,,,,,,,,,,,,,,,,,,,,,,,,,,,,,,,,,,,,,,92,1,2025-02-24_13h18.15.311,comp,2024.2.4,56.930895191764755,2025-02-24 13h21.39.156360 -0500,
,,,,,,,,,,,,,,,,,,,,,,,,,,,,,,,,,,,,,,,,,,,,,,,,,,,,25.0984845161438,25.11662983894348,27.107374906539917,,,,,,,,,,,,,,,,,,,,,,,,,,,,,,,,,,,,,,,,,,,,,,,,,,,,,,,,,,,,,,,,,,,,,,,,,,,,,,,,,,,,,,,,,,,,,,,,,,,,,,92,1,2025-02-24_13h18.15.311,comp,2024.2.4,56.930895191764755,2025-02-24 13h21.39.156360 -0500,
0,0,0,,,,,,,,,,,,,,,0,0,0,0,,,,,,,,,27.124022483825684,,,,,,,,,,,,,,,,,,,,,,,,,,27.10825800895691,27.124022483825684,27.124022483825684,28.607588529586792,30.20816969871521,space,1.5821576118469238,None,30.20837426185608,30.222607374191284,30.222607374191284,31.714274168014526,35.16110110282898,space,3.443466901779175,None,35.16129732131958,35.19087100028992,35.19087100028992,35.19087100028992,35.19087100028992,35.19087100028992,35.19087100028992,35.19087100028992,35.19087100028992,35.19087100028992,36.675966024398804,38.131847858428955,space,1.441699504852295,None,38.13200306892395,38.14874577522278,38.14874577522278,38.14874577522278,39.64528942108154,57.38150882720947,space,17.730639696121216,None,57.38166403770447,57.39862012863159,57.39862012863159,58.88482737541199,59.38555645942688,space,0.4897730350494385,None,59.38575458526611,59.40149974822998,59.40149974822998,60.97000479698181,space,1.5569510459899902,None,,,,,,,,,,,,,,,,,,,,,,,,,,,,,,,,,,,,,,,,,,,,,,,92,1,2025-02-24_13h18.15.311,comp,2024.2.4,56.930895191764755,2025-02-24 13h21.39.156360 -0500,
0,0,0,critical,hdw,20.0,1.0,lower,133.0,57.0,78.0,78.0,57.0,133.0,3,7.651581764221191,None,,,,,0,0,0,0,0,0,0,114,61.05023384094238,,,,,,,,,,,,,,,,,,,,,,,,,,,,,,,,,,,,,,,,,,,,,,,,,,,,,,,,,,,,,,,,,,,,,,,,,,,,,,,,,133.0,57.0,78.0,78.0,57.0,133.0,1.0,1.2,-164,17,0,19,202,4,61.03323316574097,61.03330206871033,61.034745931625366,61.05023384094238,61.195839405059814,61.195839405059814,61.195839405059814,61.195839405059814,61.195839405059814,61.195839405059814,61.195839405059814,68.70512318611145,3,7.651581764221191,None,,,,,,,,,,,,,,,,,,92,1,2025-02-24_13h18.15.311,comp,2024.2.4,56.930895191764755,2025-02-24 13h21.39.156360 -0500,
1,1,0,critical,hwd,20.0,2.1,lower,133.0,57.0,57.0,133.0,78.0,78.0,3,6.606200933456421,None,,,,,0,0,0,0,0,1,1,18,68.71961688995361,,,,,,,,,,,,,,,,,,,,,,,,,,,,,,,,,,,,,,,,,,,,,,,,,,,,,,,,,,,,,,,,,,,,,,,,,,,,,,,,,133.0,57.0,57.0,133.0,78.0,78.0,2.1,2.12,-191,-265,0,-252,202,269,68.70662307739258,68.70669889450073,68.7100441455841,68.71961688995361,68.87004041671753,68.87004041671753,68.87004041671753,68.87004041671753,68.87004041671753,68.87004041671753,68.87004041671753,75.340984582901,3,6.606200933456421,None,,,,,,,,,,,,,,,,,,92,1,2025-02-24_13h18.15.311,comp,2024.2.4,56.930895191764755,2025-02-24 13h21.39.156360 -0500,
2,2,0,critical,dhw,35.0,4.0,upper,127.0,127.0,200.0,125.0,125.0,200.0,3,2.9929609298706055,None,,,,,0,0,0,0,0,2,2,53,75.35746669769287,,,,,,,,,,,,,,,,,,,,,,,,,,,,,,,,,,,,,,,,,,,,,,,,,,,,,,,,,,,,,,,,,,,,,,,,,,,,,,,,,127.0,127.0,200.0,125.0,125.0,200.0,4.0,4.2,-222,1,0,-284,258,-11,75.34253787994385,75.3426125049591,75.34583497047424,75.35746669769287,75.50957918167114,75.50957918167114,75.50957918167114,75.50957918167114,75.50957918167114,75.50957918167114,75.50957918167114,78.35838866233826,3,2.9929609298706055,None,,,,,,,,,,,,,,,,,,92,1,2025-02-24_13h18.15.311,comp,2024.2.4,56.930895191764755,2025-02-24 13h21.39.156360 -0500,
3,3,0,filler_square,None,None,None,None,None,None,None,None,None,None,2,3.8770666122436523,None,,,,,0,0,0,0,0,3,3,188,78.37734031677246,,,,,,,,,,,,,,,,,,,,,,,,,,,,,,,,,,,,,,,,,,,,,,,,,,,,,,,,,,,,,,,,,,,,,,,,,,,,,,,,,57.671859408872045,58.57663501498209,67.1727662736966,67.1727662736966,58.49059207259027,63.268162687792156,3.0,3.2,-159,-275,0,10,161,278,78.36012887954712,78.36020421981812,78.36365294456482,78.37734031677246,78.52573609352112,78.52573609352112,78.52573609352112,78.52573609352112,78.52573609352112,78.52573609352112,78.52573609352112,82.25729274749756,2,3.8770666122436523,None,,,,,,,,,,,,,,,,,,92,1,2025-02-24_13h18.15.311,comp,2024.2.4,56.930895191764755,2025-02-24 13h21.39.156360 -0500,
4,4,0,critical,wdh,35.0,2.1,lower,57.0,133.0,70.0,70.0,133.0,57.0,1,3.08752179145813,None,,,,,0,0,0,0,0,4,4,32,82.27827477455139,,,,,,,,,,,,,,,,,,,,,,,,,,,,,,,,,,,,,,,,,,,,,,,,,,,,,,,,,,,,,,,,,,,,,,,,,,,,,,,,,57.0,133.0,70.0,70.0,133.0,57.0,2.1,2.12,-198,-274,0,-288,160,255,82.25886845588684,82.25894260406494,82.2624135017395,82.27827477455139,82.41009616851807,82.41009616851807,82.41009616851807,82.41009616851807,82.41009616851807,82.41009616851807,82.41009616851807,85.38263082504272,1,3.08752179145813,None,,,,,,,,,,,,,,,,,,92,1,2025-02-24_13h18.15.311,comp,2024.2.4,56.930895191764755,2025-02-24 13h21.39.156360 -0500,
5,5,0,filler_square,None,None,None,None,None,None,None,None,None,None,3,2.2930681705474854,None,,,,,0,0,0,0,0,5,5,195,85.4007306098938,,,,,,,,,,,,,,,,,,,,,,,,,,,,,,,,,,,,,,,,,,,,,,,,,,,,,,,,,,,,,,,,,,,,,,,,,,,,,,,,,129.1724272003857,127.19988846806291,96.61042570485621,129.94303949470367,144.2367056906343,144.2367056906343,1.0,1.2,-225,1,0,15,233,4,85.38451147079468,85.38464593887329,85.38800597190857,85.4007306098938,85.54465651512146,85.54465651512146,85.54465651512146,85.54465651512146,85.54465651512146,85.54465651512146,85.54465651512146,87.71078824996948,3,2.2930681705474854,None,,,,,,,,,,,,,,,,,,92,1,2025-02-24_13h18.15.311,comp,2024.2.4,56.930895191764755,2025-02-24 13h21.39.156360 -0500,
6,6,0,critical,dwh,20.0,1.0,lower,78.0,78.0,57.0,133.0,133.0,57.0,1,6.352589130401611,None,,,,,0,0,0,0,0,6,6,66,87.72550678253174,,,,,,,,,,,,,,,,,,,,,,,,,,,,,,,,,,,,,,,,,,,,,,,,,,,,,,,,,,,,,,,,,,,,,,,,,,,,,,,,,78.0,78.0,57.0,133.0,133.0,57.0,1.0,1.1,-682,266,-480,270,-289,260,87.71246075630188,87.71257019042969,87.71610426902771,87.72550678253174,87.87700414657593,87.87700414657593,87.87700414657593,87.87700414657593,87.87700414657593,87.87700414657593,87.87700414657593,94.09580206871033,1,6.352589130401611,None,,,,,,,,,,,,,,,,,,92,1,2025-02-24_13h18.15.311,comp,2024.2.4,56.930895191764755,2025-02-24 13h21.39.156360 -0500,
7,7,0,filler_square,None,None,None,None,None,None,None,None,None,None,3,1.9341280460357666,None,,,,,0,0,0,0,0,7,7,177,94.11215567588806,,,,,,,,,,,,,,,,,,,,,,,,,,,,,,,,,,,,,,,,,,,,,,,,,,,,,,,,,,,,,,,,,,,,,,,,,,,,,,,,,81.88372447660868,139.3013994289567,112.80489685198599,66.42043588707719,191.32620538506106,191.32620538506106,3.0,3.2,-199,-289,0,-12,225,257,94.09777212142944,94.09784841537476,94.10146260261536,94.11215567588806,94.26489663124084,94.26489663124084,94.26489663124084,94.26489663124084,94.26489663124084,94.26489663124084,94.26489663124084,96.0482189655304,3,1.9341280460357666,None,,,,,,,,,,,,,,,,,,92,1,2025-02-24_13h18.15.311,comp,2024.2.4,56.930895191764755,2025-02-24 13h21.39.156360 -0500,
8,8,0,critical,whd,35.0,4.0,lower,57.0,133.0,133.0,57.0,70.0,70.0,1,2.2691948413848877,None,,,,,0,0,0,0,0,8,8,88,96.06465363502502,,,,,,,,,,,,,,,,,,,,,,,,,,,,,,,,,,,,,,,,,,,,,,,,,,,,,,,,,,,,,,,,,,,,,,,,,,,,,,,,,57.0,133.0,133.0,57.0,70.0,70.0,4.0,4.1,-191,-281,0,-4,160,-259,96.04977893829346,96.04989123344421,96.053884267807,96.06465363502502,96.21337366104126,96.21337366104126,96.21337366104126,96.21337366104126,96.21337366104126,96.21337366104126,96.21337366104126,98.34693336486816,1,2.2691948413848877,None,,,,,,,,,,,,,,,,,,92,1,2025-02-24_13h18.15.311,comp,2024.2.4,56.930895191764755,2025-02-24 13h21.39.156360 -0500,
9,9,0,filler_square,None,None,None,None,None,None,None,None,None,None,2,4.087367296218872,None,,,,,0,0,0,0,0,9,9,171,98.3666889667511,,,,,,,,,,,,,,,,,,,,,,,,,,,,,,,,,,,,,,,,,,,,,,,,,,,,,,,,,,,,,,,,,,,,,,,,,,,,,,,,,57.99680972487799,57.913756207965996,59.11820821943095,58.98938112077596,59.29449267937194,59.29449267937194,2.1,2.11,-154,251,0,274,155,-262,98.34875559806824,98.3488290309906,98.35207319259644,98.3666889667511,98.51462912559509,98.51462912559509,98.51462912559509,98.51462912559509,98.51462912559509,98.51462912559509,98.51462912559509,102.46734690666199,2,4.087367296218872,None,,,,,,,,,,,,,,,,,,92,1,2025-02-24_13h18.15.311,comp,2024.2.4,56.930895191764755,2025-02-24 13h21.39.156360 -0500,
10,10,0,critical,hwd,20.0,4.0,lower,133.0,57.0,57.0,133.0,78.0,78.0,2,3.9865779876708984,None,,,,,0,0,0,0,0,10,10,106,102.48335266113281,,,,,,,,,,,,,,,,,,,,,,,,,,,,,,,,,,,,,,,,,,,,,,,,,,,,,,,,,,,,,,,,,,,,,,,,,,,,,,,,,133.0,57.0,57.0,133.0,78.0,78.0,4.0,4.1,-191,-259,0,5,202,-281,102.46901392936707,102.46909046173096,102.47307753562927,102.48335266113281,102.63256120681763,102.63256120681763,102.63256120681763,102.63256120681763,102.63256120681763,102.63256120681763,102.63256120681763,106.48515605926514,2,3.9865779876708984,None,,,,,,,,,,,,,,,,,,92,1,2025-02-24_13h18.15.311,comp,2024.2.4,56.930895191764755,2025-02-24 13h21.39.156360 -0500,
11,11,0,filler_random,None,None,None,None,None,None,None,None,None,None,3,3.215005874633789,None,,,,,0,0,0,0,0,11,11,160,106.50280117988586,,,,,,,,,,,,,,,,,,,,,,,,,,,,,,,,,,,,,,,,,,,,,,,,,,,,,,,,,,,,,,,,,,,,,,,,,,,,,,,,,162.2567529044239,143.1877969101164,62.09662519649303,91.00889841849217,148.7307254973469,191.10354565483797,1.0,1.2,-213,17,0,13,237,-13,106.48694515228271,106.48702001571655,106.49007940292358,106.50280117988586,106.64990448951721,106.64990448951721,106.64990448951721,106.64990448951721,106.64990448951721,106.64990448951721,106.64990448951721,109.7329158782959,3,3.215005874633789,None,,,,,,,,,,,,,,,,,,92,1,2025-02-24_13h18.15.311,comp,2024.2.4,56.930895191764755,2025-02-24 13h21.39.156360 -0500,
12,12,0,critical,wdh,35.0,2.1,upper,125.0,200.0,127.0,127.0,200.0,125.0,3,3.3705008029937744,None,,,,,0,0,0,0,0,12,12,9,109.74791169166565,,,,,,,,,,,,,,,,,,,,,,,,,,,,,,,,,,,,,,,,,,,,,,,,,,,,,,,,,,,,,,,,,,,,,,,,,,,,,,,,,125.0,200.0,127.0,127.0,200.0,125.0,2.1,2.12,-260,-282,0,-261,222,273,109.7344810962677,109.73455452919006,109.73764228820801,109.74791169166565,109.90146613121033,109.90146613121033,109.90146613121033,109.90146613121033,109.90146613121033,109.90146613121033,109.90146613121033,113.12060379981995,3,3.3705008029937744,None,,,,,,,,,,,,,,,,,,92,1,2025-02-24_13h18.15.311,comp,2024.2.4,56.930895191764755,2025-02-24 13h21.39.156360 -0500,
13,13,0,filler_random,None,None,None,None,None,None,None,None,None,None,3,3.4917898178100586,None,,,,,0,0,0,0,0,13,13,168,113.13802075386047,,,,,,,,,,,,,,,,,,,,,,,,,,,,,,,,,,,,,,,,,,,,,,,,,,,,,,,,,,,,,,,,,,,,,,,,,,,,,,,,,121.85663692892443,197.38252137030887,62.353925888724156,110.24383220576783,115.11300607746821,191.65292617863736,3.0,3.1,-250,252,0,5,247,-273,113.12258553504944,113.12271070480347,113.12641882896423,113.13802075386047,113.2838487625122,113.2838487625122,113.2838487625122,113.2838487625122,113.2838487625122,113.2838487625122,113.2838487625122,116.64265060424805,3,3.4917898178100586,None,,,,,,,,,,,,,,,,,,92,1,2025-02-24_13h18.15.311,comp,2024.2.4,56.930895191764755,2025-02-24 13h21.39.156360 -0500,
14,14,0,critical,dwh,35.0,1.0,upper,127.0,127.0,125.0,200.0,200.0,125.0,2,2.2818069458007812,None,,,,,0,0,0,0,0,14,14,61,116.66081619262695,,,,,,,,,,,,,,,,,,,,,,,,,,,,,,,,,,,,,,,,,,,,,,,,,,,,,,,,,,,,,,,,,,,,,,,,,,,,,,,,,127.0,127.0,125.0,200.0,200.0,125.0,1.0,1.1,-740,287,-480,280,-222,259,116.6441490650177,116.64422535896301,116.64725470542908,116.66081619262695,116.80329775810242,116.80329775810242,116.80329775810242,116.80329775810242,116.80329775810242,116.80329775810242,116.80329775810242,118.96016049385071,2,2.2818069458007812,None,,,,,,,,,,,,,,,,,,92,1,2025-02-24_13h18.15.311,comp,2024.2.4,56.930895191764755,2025-02-24 13h21.39.156360 -0500,
15,15,0,critical,whd,20.0,4.0,lower,57.0,133.0,133.0,57.0,78.0,78.0,3,5.942229986190796,None,,,,,0,0,0,0,0,15,15,94,118.97606897354126,,,,,,,,,,,,,,,,,,,,,,,,,,,,,,,,,,,,,,,,,,,,,,,,,,,,,,,,,,,,,,,,,,,,,,,,,,,,,,,,,57.0,133.0,133.0,57.0,78.0,78.0,4.0,4.2,-191,19,0,-260,164,-12,118.96177077293396,118.9618456363678,118.96528434753418,118.97606897354126,119.12150621414185,119.12150621414185,119.12150621414185,119.12150621414185,119.12150621414185,119.12150621414185,119.12150621414185,124.92465138435364,3,5.942229986190796,None,,,,,,,,,,,,,,,,,,92,1,2025-02-24_13h18.15.311,comp,2024.2.4,56.930895191764755,2025-02-24 13h21.39.156360 -0500,
16,16,0,critical,wdh,35.0,4.0,upper,125.0,200.0,127.0,127.0,200.0,125.0,1,3.5108394622802734,None,,,,,0,0,0,0,0,16,16,77,124.94325661659241,,,,,,,,,,,,,,,,,,,,,,,,,,,,,,,,,,,,,,,,,,,,,,,,,,,,,,,,,,,,,,,,,,,,,,,,,,,,,,,,,125.0,200.0,127.0,127.0,200.0,125.0,4.0,4.1,-260,-270,0,-8,222,-263,124.92638206481934,124.92650055885315,124.92994475364685,124.94325661659241,125.08943963050842,125.08943963050842,125.08943963050842,125.08943963050842,125.08943963050842,125.08943963050842,125.08943963050842,128.4596083164215,1,3.5108394622802734,None,,,,,,,,,,,,,,,,,,92,1,2025-02-24_13h18.15.311,comp,2024.2.4,56.930895191764755,2025-02-24 13h21.39.156360 -0500,
17,17,0,critical,hdw,35.0,2.1,lower,133.0,57.0,70.0,70.0,57.0,133.0,3,4.640240907669067,None,,,,,0,0,0,0,0,17,17,44,128.4778769016266,,,,,,,,,,,,,,,,,,,,,,,,,,,,,,,,,,,,,,,,,,,,,,,,,,,,,,,,,,,,,,,,,,,,,,,,,,,,,,,,,133.0,57.0,70.0,70.0,57.0,133.0,2.1,2.12,-160,-287,0,-261,198,288,128.4611999988556,128.46130990982056,128.4647991657257,128.4778769016266,128.62322473526,128.62322473526,128.62322473526,128.62322473526,128.62322473526,128.62322473526,128.62322473526,133.1330394744873,3,4.640240907669067,None,,,,,,,,,,,,,,,,,,92,1,2025-02-24_13h18.15.311,comp,2024.2.4,56.930895191764755,2025-02-24 13h21.39.156360 -0500,
18,18,0,filler_random,None,None,None,None,None,None,None,None,None,None,3,2.497713804244995,None,,,,,0,0,0,0,0,18,18,134,133.14818739891052,,,,,,,,,,,,,,,,,,,,,,,,,,,,,,,,,,,,,,,,,,,,,,,,,,,,,,,,,,,,,,,,,,,,,,,,,,,,,,,,,180.7611227690166,136.9836377960639,121.07563182323167,67.19603436479991,132.7746544050477,177.37347673618572,2.1,2.11,-198,256,0,267,218,-271,133.13477635383606,133.13485145568848,133.1378791332245,133.14818739891052,133.2925248146057,133.2925248146057,133.2925248146057,133.2925248146057,133.2925248146057,133.2925248146057,133.2925248146057,135.65807056427002,3,2.497713804244995,None,,,,,,,,,,,,,,,,,,92,1,2025-02-24_13h18.15.311,comp,2024.2.4,56.930895191764755,2025-02-24 13h21.39.156360 -0500,
19,19,0,filler_square,None,None,None,None,None,None,None,None,None,None,1,2.1713316440582275,None,,,,,0,0,0,0,0,19,19,184,135.67460083961487,,,,,,,,,,,,,,,,,,,,,,,,,,,,,,,,,,,,,,,,,,,,,,,,,,,,,,,,,,,,,,,,,,,,,,,,,,,,,,,,,102.35753021080279,102.35753021080279,77.64422098392606,90.44559957220127,88.93021097580447,83.98934983143626,1.0,1.1,-672,274,-480,275,-297,282,135.66011142730713,135.66018772125244,135.66375470161438,135.67460083961487,135.82327508926392,135.82327508926392,135.82327508926392,135.82327508926392,135.82327508926392,135.82327508926392,135.82327508926392,137.86020517349243,1,2.1713316440582275,None,,,,,,,,,,,,,,,,,,92,1,2025-02-24_13h18.15.311,comp,2024.2.4,56.930895191764755,2025-02-24 13h21.39.156360 -0500,
20,20,0,filler_random,None,None,None,None,None,None,None,None,None,None,2,2.2898671627044678,None,,,,,0,0,0,0,0,20,20,159,137.87639665603638,,,,,,,,,,,,,,,,,,,,,,,,,,,,,,,,,,,,,,,,,,,,,,,,,,,,,,,,,,,,,,,,,,,,,,,,,,,,,,,,,133.5780828203035,184.04340705691567,154.5731587879419,183.9156239534813,143.3723075782406,122.66435847572762,1.0,1.2,-280,4,0,-6,249,-1,137.8618245124817,137.86189889907837,137.86519956588745,137.87639665603638,138.0320451259613,138.0320451259613,138.0320451259613,138.0320451259613,138.0320451259613,138.0320451259613,138.0320451259613,140.1787884235382,2,2.2898671627044678,None,,,,,,,,,,,,,,,,,,92,1,2025-02-24_13h18.15.311,comp,2024.2.4,56.930895191764755,2025-02-24 13h21.39.156360 -0500,
21,21,0,filler_square,None,None,None,None,None,None,None,None,None,None,2,3.091627836227417,None,,,,,0,0,0,0,0,21,21,173,140.19433569908142,,,,,,,,,,,,,,,,,,,,,,,,,,,,,,,,,,,,,,,,,,,,,,,,,,,,,,,,,,,,,,,,,,,,,,,,,,,,,,,,,64.53971581543756,61.743870152819895,66.36924127561016,66.36924127561016,62.897149176514205,64.93404230561777,2.2,2.22,-160,262,0,-260,162,-271,140.18061637878418,140.18069291114807,140.18403792381287,140.19433569908142,140.34174251556396,140.34174251556396,140.34174251556396,140.34174251556396,140.34174251556396,140.34174251556396,140.34174251556396,143.3008098602295,2,3.091627836227417,None,,,,,,,,,,,,,,,,,,92,1,2025-02-24_13h18.15.311,comp,2024.2.4,56.930895191764755,2025-02-24 13h21.39.156360 -0500,
22,22,0,critical,dhw,20.0,4.0,lower,78.0,78.0,133.0,57.0,57.0,133.0,1,4.538825035095215,None,,,,,0,0,0,0,0,22,22,58,143.3157238960266,,,,,,,,,,,,,,,,,,,,,,,,,,,,,,,,,,,,,,,,,,,,,,,,,,,,,,,,,,,,,,,,,,,,,,,,,,,,,,,,,78.0,78.0,133.0,57.0,57.0,133.0,4.0,4.1,-164,-269,0,10,191,-278,143.30236148834229,143.30243587493896,143.3054394721985,143.3157238960266,143.46163988113403,143.46163988113403,143.46163988113403,143.46163988113403,143.46163988113403,143.46163988113403,143.46163988113403,147.86333513259888,1,4.538825035095215,None,,,,,,,,,,,,,,,,,,92,1,2025-02-24_13h18.15.311,comp,2024.2.4,56.930895191764755,2025-02-24 13h21.39.156360 -0500,
23,23,0,critical,dhw,35.0,2.1,lower,70.0,70.0,133.0,57.0,57.0,133.0,1,2.5428500175476074,None,,,,,0,0,0,0,0,23,23,0,147.87929320335388,,,,,,,,,,,,,,,,,,,,,,,,,,,,,,,,,,,,,,,,,,,,,,,,,,,,,,,,,,,,,,,,,,,,,,,,,,,,,,,,,70.0,70.0,133.0,57.0,57.0,133.0,2.1,2.12,-160,-270,0,-283,191,276,147.86480140686035,147.86487793922424,147.86838817596436,147.87929320335388,148.02817511558533,148.02817511558533,148.02817511558533,148.02817511558533,148.02817511558533,148.02817511558533,148.02817511558533,150.43306255340576,1,2.5428500175476074,None,,,,,,,,,,,,,,,,,,92,1,2025-02-24_13h18.15.311,comp,2024.2.4,56.930895191764755,2025-02-24 13h21.39.156360 -0500,
24,24,0,filler_random,None,None,None,None,None,None,None,None,None,None,3,4.481141805648804,None,,,,,0,0,0,0,0,24,24,137,150.45288062095642,,,,,,,,,,,,,,,,,,,,,,,,,,,,,,,,,,,,,,,,,,,,,,,,,,,,,,,,,,,,,,,,,,,,,,,,,,,,,,,,,124.33016145440294,184.12338876353357,120.26046768349359,189.22731684791128,156.41358342633637,153.6208649627036,3.0,3.2,-283,-269,0,10,267,287,150.43481731414795,150.43492770195007,150.43844938278198,150.45288062095642,150.5980668067932,150.5980668067932,150.5980668067932,150.5980668067932,150.5980668067932,150.5980668067932,150.5980668067932,154.94879627227783,3,4.481141805648804,None,,,,,,,,,,,,,,,,,,92,1,2025-02-24_13h18.15.311,comp,2024.2.4,56.930895191764755,2025-02-24 13h21.39.156360 -0500,
25,25,0,filler_square,None,None,None,None,None,None,None,None,None,None,3,1.594536304473877,None,,,,,0,0,0,0,0,25,25,189,154.96441102027893,,,,,,,,,,,,,,,,,,,,,,,,,,,,,,,,,,,,,,,,,,,,,,,,,,,,,,,,,,,,,,,,,,,,,,,,,,,,,,,,,169.29529877038715,140.24242985682469,127.51531443440334,147.00929917881672,189.2258152080025,189.2258152080025,2.2,2.21,-240,-284,0,258,264,258,154.95054841041565,154.950621843338,154.95417547225952,154.96441102027893,155.11440658569336,155.11440658569336,155.11440658569336,155.11440658569336,155.11440658569336,155.11440658569336,155.11440658569336,156.56522870063782,3,1.594536304473877,None,,,,,,,,,,,,,,,,,,92,1,2025-02-24_13h18.15.311,comp,2024.2.4,56.930895191764755,2025-02-24 13h21.39.156360 -0500,
26,26,0,critical,dwh,35.0,2.1,upper,127.0,127.0,125.0,200.0,200.0,125.0,2,1.8417370319366455,None,,,,,0,0,0,0,0,26,26,29,156.58262300491333,,,,,,,,,,,,,,,,,,,,,,,,,,,,,,,,,,,,,,,,,,,,,,,,,,,,,,,,,,,,,,,,,,,,,,,,,,,,,,,,,127.0,127.0,125.0,200.0,200.0,125.0,2.1,2.11,-260,255,0,287,258,-274,156.56698083877563,156.56711506843567,156.570543050766,156.58262300491333,156.73486471176147,156.73486471176147,156.73486471176147,156.73486471176147,156.73486471176147,156.73486471176147,156.73486471176147,158.4301459789276,2,1.8417370319366455,None,,,,,,,,,,,,,,,,,,92,1,2025-02-24_13h18.15.311,comp,2024.2.4,56.930895191764755,2025-02-24 13h21.39.156360 -0500,
27,27,0,filler_random,None,None,None,None,None,None,None,None,None,None,3,1.4633471965789795,None,,,,,0,0,0,0,0,27,27,158,158.44724416732788,,,,,,,,,,,,,,,,,,,,,,,,,,,,,,,,,,,,,,,,,,,,,,,,,,,,,,,,,,,,,,,,,,,,,,,,,,,,,,,,,91.15303157722485,95.8155338020726,128.38889706429714,66.84167514159387,166.20159669454932,100.90268113428803,4.0,4.1,-177,-251,0,2,180,-280,158.43182682991028,158.43190145492554,158.43489980697632,158.44724416732788,158.58495998382568,158.58495998382568,158.58495998382568,158.58495998382568,158.58495998382568,158.58495998382568,158.58495998382568,159.9177587032318,3,1.4633471965789795,None,,,,,,,,,,,,,,,,,,92,1,2025-02-24_13h18.15.311,comp,2024.2.4,56.930895191764755,2025-02-24 13h21.39.156360 -0500,
28,28,0,critical,whd,20.0,2.1,upper,125.0,200.0,200.0,125.0,141.0,141.0,1,3.4314794540405273,None,,,,,0,0,0,0,0,28,28,15,159.93455290794373,,,,,,,,,,,,,,,,,,,,,,,,,,,,,,,,,,,,,,,,,,,,,,,,,,,,,,,,,,,,,,,,,,,,,,,,,,,,,,,,,125.0,200.0,200.0,125.0,141.0,141.0,2.1,2.11,-258,259,0,280,229,-261,159.91930079460144,159.91942501068115,159.92297768592834,159.93455290794373,160.08931183815002,160.08931183815002,160.08931183815002,160.08931183815002,160.08931183815002,160.08931183815002,160.08931183815002,163.3697326183319,1,3.4314794540405273,None,,,,,,,,,,,,,,,,,,92,1,2025-02-24_13h18.15.311,comp,2024.2.4,56.930895191764755,2025-02-24 13h21.39.156360 -0500,
29,29,0,filler_square,None,None,None,None,None,None,None,None,None,None,3,1.5373952388763428,None,,,,,0,0,0,0,0,29,29,185,163.38853931427002,,,,,,,,,,,,,,,,,,,,,,,,,,,,,,,,,,,,,,,,,,,,,,,,,,,,,,,,,,,,,,,,,,,,,,,,,,,,,,,,,83.55081704870122,64.53766331393237,77.38333122915569,60.43920342283912,91.75705153126894,91.75705153126894,1.0,1.2,-158,19,0,-4,172,6,163.3717498779297,163.3718285560608,163.3752658367157,163.38853931427002,163.53419017791748,163.53419017791748,163.53419017791748,163.53419017791748,163.53419017791748,163.53419017791748,163.53419017791748,164.9401707649231,3,1.5373952388763428,None,,,,,,,,,,,,,,,,,,92,1,2025-02-24_13h18.15.311,comp,2024.2.4,56.930895191764755,2025-02-24 13h21.39.156360 -0500,
30,30,0,filler_random,None,None,None,None,None,None,None,None,None,None,3,1.5090618133544922,None,,,,,0,0,0,0,0,30,30,131,164.9608278274536,,,,,,,,,,,,,,,,,,,,,,,,,,,,,,,,,,,,,,,,,,,,,,,,,,,,,,,,,,,,,,,,,,,,,,,,,,,,,,,,,115.78911175856643,86.05209226630826,152.32237710087642,115.69737592182668,145.05059937054568,177.40991388999979,2.2,2.21,-197,-256,0,266,243,271,164.94193696975708,164.9420132637024,164.94505834579468,164.9608278274536,165.1025607585907,165.1025607585907,165.1025607585907,165.1025607585907,165.1025607585907,165.1025607585907,165.1025607585907,166.48497891426086,3,1.5090618133544922,None,,,,,,,,,,,,,,,,,,92,1,2025-02-24_13h18.15.311,comp,2024.2.4,56.930895191764755,2025-02-24 13h21.39.156360 -0500,
31,31,0,critical,whd,35.0,2.1,lower,57.0,133.0,133.0,57.0,70.0,70.0,3,15.778857469558716,None,,,,,0,0,0,0,0,31,31,12,166.50095629692078,,,,,,,,,,,,,,,,,,,,,,,,,,,,,,,,,,,,,,,,,,,,,,,,,,,,,,,,,,,,,,,,,,,,,,,,,,,,,,,,,57.0,133.0,133.0,57.0,70.0,70.0,2.1,2.11,-191,277,0,256,160,-275,166.4865119457245,166.48658680915833,166.4896912574768,166.50095629692078,166.6592833995819,166.6592833995819,166.6592833995819,166.6592833995819,166.6592833995819,166.6592833995819,166.6592833995819,182.29080033302307,3,15.778857469558716,None,,,,,,,,,,,,,,,,,,92,1,2025-02-24_13h18.15.311,comp,2024.2.4,56.930895191764755,2025-02-24 13h21.39.156360 -0500,
32,32,0,critical,hdw,20.0,3.0,upper,200.0,125.0,141.0,141.0,125.0,200.0,3,3.0279922485351562,None,,,,,0,0,0,0,0,32,32,117,182.306499004364,,,,,,,,,,,,,,,,,,,,,,,,,,,,,,,,,,,,,,,,,,,,,,,,,,,,,,,,,,,,,,,,,,,,,,,,,,,,,,,,,200.0,125.0,141.0,141.0,125.0,200.0,3.0,3.2,-229,-265,0,5,266,271,182.29233574867249,182.29243063926697,182.29576659202576,182.306499004364,182.45741868019104,182.45741868019104,182.45741868019104,182.45741868019104,182.45741868019104,182.45741868019104,182.45741868019104,185.34395742416382,3,3.0279922485351562,None,,,,,,,,,,,,,,,,,,92,1,2025-02-24_13h18.15.311,comp,2024.2.4,56.930895191764755,2025-02-24 13h21.39.156360 -0500,
33,33,0,critical,hdw,20.0,4.0,upper,200.0,125.0,141.0,141.0,125.0,200.0,3,1.4303367137908936,None,,,,,0,0,0,0,0,33,33,119,185.3601279258728,,,,,,,,,,,,,,,,,,,,,,,,,,,,,,,,,,,,,,,,,,,,,,,,,,,,,,,,,,,,,,,,,,,,,,,,,,,,,,,,,200.0,125.0,141.0,141.0,125.0,200.0,4.0,4.2,-229,-2,0,-262,266,-19,185.34559202194214,185.34569835662842,185.34926795959473,185.3601279258728,185.50815510749817,185.50815510749817,185.50815510749817,185.50815510749817,185.50815510749817,185.50815510749817,185.50815510749817,186.7955403327942,3,1.4303367137908936,None,,,,,,,,,,,,,,,,,,92,1,2025-02-24_13h18.15.311,comp,2024.2.4,56.930895191764755,2025-02-24 13h21.39.156360 -0500,
34,34,0,filler_random,None,None,None,None,None,None,None,None,None,None,3,1.0148770809173584,None,,,,,0,0,0,0,0,34,34,144,186.81507682800293,,,,,,,,,,,,,,,,,,,,,,,,,,,,,,,,,,,,,,,,,,,,,,,,,,,,,,,,,,,,,,,,,,,,,,,,,,,,,,,,,58.640708207832645,131.99118426017992,183.0244677075758,94.53022335165674,182.59916335686904,197.24638218198888,1.0,1.2,-209,12,0,-1,242,-1,186.79721879959106,186.79732728004456,186.80088448524475,186.81507682800293,186.96273183822632,186.96273183822632,186.96273183822632,186.96273183822632,186.96273183822632,186.96273183822632,186.96273183822632,187.8437602519989,3,1.0148770809173584,None,,,,,,,,,,,,,,,,,,92,1,2025-02-24_13h18.15.311,comp,2024.2.4,56.930895191764755,2025-02-24 13h21.39.156360 -0500,
35,35,0,critical,hdw,35.0,1.0,lower,133.0,57.0,70.0,70.0,57.0,133.0,3,3.119605779647827,None,,,,,0,0,0,0,0,35,35,108,187.86228013038635,,,,,,,,,,,,,,,,,,,,,,,,,,,,,,,,,,,,,,,,,,,,,,,,,,,,,,,,,,,,,,,,,,,,,,,,,,,,,,,,,133.0,57.0,70.0,70.0,57.0,133.0,1.0,1.2,-160,-12,0,-4,198,-6,187.84527921676636,187.84539890289307,187.84926867485046,187.86228013038635,188.00899076461792,188.00899076461792,188.00899076461792,188.00899076461792,188.00899076461792,188.00899076461792,188.00899076461792,190.9958577156067,3,3.119605779647827,None,,,,,,,,,,,,,,,,,,92,1,2025-02-24_13h18.15.311,comp,2024.2.4,56.930895191764755,2025-02-24 13h21.39.156360 -0500,
36,36,0,filler_square,None,None,None,None,None,None,None,None,None,None,3,2.062723398208618,None,,,,,0,0,0,0,0,36,36,202,191.0151584148407,,,,,,,,,,,,,,,,,,,,,,,,,,,,,,,,,,,,,,,,,,,,,,,,,,,,,,,,,,,,,,,,,,,,,,,,,,,,,,,,,62.60304833931658,58.819347517392956,61.49717865589536,62.979813717968604,68.02571643750233,68.02571643750233,2.1,2.11,-157,280,0,269,162,-274,190.99787878990173,190.99795794487,191.00170421600342,191.0151584148407,191.1606047153473,191.1606047153473,191.1606047153473,191.1606047153473,191.1606047153473,191.1606047153473,191.1606047153473,193.0943193435669,3,2.062723398208618,None,,,,,,,,,,,,,,,,,,92,1,2025-02-24_13h18.15.311,comp,2024.2.4,56.930895191764755,2025-02-24 13h21.39.156360 -0500,
37,37,0,critical,whd,35.0,2.1,lower,57.0,133.0,133.0,57.0,70.0,70.0,3,2.3507564067840576,None,,,,,0,0,0,0,0,37,37,36,193.11116218566895,,,,,,,,,,,,,,,,,,,,,,,,,,,,,,,,,,,,,,,,,,,,,,,,,,,,,,,,,,,,,,,,,,,,,,,,,,,,,,,,,57.0,133.0,133.0,57.0,70.0,70.0,2.1,2.12,-191,-285,0,-285,160,265,193.09579992294312,193.09587383270264,193.1000440120697,193.11116218566895,193.25756239891052,193.25756239891052,193.25756239891052,193.25756239891052,193.25756239891052,193.25756239891052,193.25756239891052,195.47382283210754,3,2.3507564067840576,None,,,,,,,,,,,,,,,,,,92,1,2025-02-24_13h18.15.311,comp,2024.2.4,56.930895191764755,2025-02-24 13h21.39.156360 -0500,
38,38,0,filler_square,None,None,None,None,None,None,None,None,None,None,1,1.3782689571380615,None,,,,,0,0,0,0,0,38,38,174,195.4917426109314,,,,,,,,,,,,,,,,,,,,,,,,,,,,,,,,,,,,,,,,,,,,,,,,,,,,,,,,,,,,,,,,,,,,,,,,,,,,,,,,,119.19138752687851,119.19138752687851,82.5059097457292,66.02043285163082,63.82614816649041,58.35012188425482,4.0,4.1,-189,-280,0,10,158,-275,195.4755630493164,195.47564053535461,195.47868251800537,195.4917426109314,195.62803149223328,195.62803149223328,195.62803149223328,195.62803149223328,195.62803149223328,195.62803149223328,195.62803149223328,196.88335585594177,1,1.3782689571380615,None,,,,,,,,,,,,,,,,,,92,1,2025-02-24_13h18.15.311,comp,2024.2.4,56.930895191764755,2025-02-24 13h21.39.156360 -0500,
39,39,0,critical,whd,35.0,3.0,upper,125.0,200.0,200.0,125.0,127.0,127.0,1,2.6385977268218994,None,,,,,0,0,0,0,0,39,39,87,196.90395641326904,,,,,,,,,,,,,,,,,,,,,,,,,,,,,,,,,,,,,,,,,,,,,,,,,,,,,,,,,,,,,,,,,,,,,,,,,,,,,,,,,125.0,200.0,200.0,125.0,127.0,127.0,3.0,3.2,-258,-251,0,4,222,275,196.8849265575409,196.88503170013428,196.8885087966919,196.90395641326904,197.0451467037201,197.0451467037201,197.0451467037201,197.0451467037201,197.0451467037201,197.0451467037201,197.0451467037201,199.54598140716553,1,2.6385977268218994,None,,,,,,,,,,,,,,,,,,92,1,2025-02-24_13h18.15.311,comp,2024.2.4,56.930895191764755,2025-02-24 13h21.39.156360 -0500,
40,40,0,critical,dhw,20.0,2.1,upper,141.0,141.0,200.0,125.0,125.0,200.0,3,1.6201362609863281,None,,,,,0,0,0,0,0,40,40,27,199.562486410141,,,,,,,,,,,,,,,,,,,,,,,,,,,,,,,,,,,,,,,,,,,,,,,,,,,,,,,,,,,,,,,,,,,,,,,,,,,,,,,,,141.0,141.0,200.0,125.0,125.0,200.0,2.1,2.11,-229,270,0,256,258,-289,199.54764795303345,199.54776787757874,199.55133509635925,199.562486410141,199.7159194946289,199.7159194946289,199.7159194946289,199.7159194946289,199.7159194946289,199.7159194946289,199.7159194946289,201.19054412841797,3,1.6201362609863281,None,,,,,,,,,,,,,,,,,,92,1,2025-02-24_13h18.15.311,comp,2024.2.4,56.930895191764755,2025-02-24 13h21.39.156360 -0500,
41,41,0,critical,dwh,35.0,1.0,lower,70.0,70.0,57.0,133.0,133.0,57.0,2,5.3359174728393555,None,,,,,0,0,0,0,0,41,41,60,201.20663332939148,,,,,,,,,,,,,,,,,,,,,,,,,,,,,,,,,,,,,,,,,,,,,,,,,,,,,,,,,,,,,,,,,,,,,,,,,,,,,,,,,70.0,70.0,57.0,133.0,133.0,57.0,1.0,1.3,282,-261,480,-271,671,-282,201.1920301914215,201.19210743904114,201.19511365890503,201.20663332939148,201.3447597026825,201.3447597026825,201.3447597026825,201.3447597026825,201.3447597026825,201.3447597026825,201.3447597026825,206.54862022399902,2,5.3359174728393555,None,,,,,,,,,,,,,,,,,,92,1,2025-02-24_13h18.15.311,comp,2024.2.4,56.930895191764755,2025-02-24 13h21.39.156360 -0500,
42,42,0,critical,dhw,20.0,4.0,upper,141.0,141.0,200.0,125.0,125.0,200.0,3,2.2072620391845703,None,,,,,0,0,0,0,0,42,42,59,206.56868600845337,,,,,,,,,,,,,,,,,,,,,,,,,,,,,,,,,,,,,,,,,,,,,,,,,,,,,,,,,,,,,,,,,,,,,,,,,,,,,,,,,141.0,141.0,200.0,125.0,125.0,200.0,4.0,4.1,-229,-256,0,-4,258,-253,206.55009055137634,206.55016684532166,206.55358743667603,206.56868600845337,206.70134735107422,206.70134735107422,206.70134735107422,206.70134735107422,206.70134735107422,206.70134735107422,206.70134735107422,208.78467321395874,3,2.2072620391845703,None,,,,,,,,,,,,,,,,,,92,1,2025-02-24_13h18.15.311,comp,2024.2.4,56.930895191764755,2025-02-24 13h21.39.156360 -0500,
43,43,0,critical,dwh,35.0,4.0,upper,127.0,127.0,125.0,200.0,200.0,125.0,2,1.543980598449707,None,,,,,0,0,0,0,0,43,43,65,208.8059458732605,,,,,,,,,,,,,,,,,,,,,,,,,,,,,,,,,,,,,,,,,,,,,,,,,,,,,,,,,,,,,,,,,,,,,,,,,,,,,,,,,127.0,127.0,125.0,200.0,200.0,125.0,4.0,4.2,-260,13,0,-254,258,3,208.78622364997864,208.7863597869873,208.7902524471283,208.8059458732605,208.94836449623108,208.94836449623108,208.94836449623108,208.94836449623108,208.94836449623108,208.94836449623108,208.94836449623108,210.36598420143127,2,1.543980598449707,None,,,,,,,,,,,,,,,,,,92,1,2025-02-24_13h18.15.311,comp,2024.2.4,56.930895191764755,2025-02-24 13h21.39.156360 -0500,
44,44,0,critical,dwh,20.0,2.1,lower,78.0,78.0,57.0,133.0,133.0,57.0,1,2.8647563457489014,None,,,,,0,0,0,0,0,44,44,30,210.38135695457458,,,,,,,,,,,,,,,,,,,,,,,,,,,,,,,,,,,,,,,,,,,,,,,,,,,,,,,,,,,,,,,,,,,,,,,,,,,,,,,,,78.0,78.0,57.0,133.0,133.0,57.0,2.1,2.12,-202,-285,0,-266,191,288,210.36751198768616,210.36758708953857,210.37106108665466,210.38135695457458,210.5345983505249,210.5345983505249,210.5345983505249,210.5345983505249,210.5345983505249,210.5345983505249,210.5345983505249,213.25122666358948,1,2.8647563457489014,None,,,,,,,,,,,,,,,,,,92,1,2025-02-24_13h18.15.311,comp,2024.2.4,56.930895191764755,2025-02-24 13h21.39.156360 -0500,
45,45,0,filler_square,None,None,None,None,None,None,None,None,None,None,2,2.6348888874053955,None,,,,,0,0,0,0,0,45,45,183,213.26721048355103,,,,,,,,,,,,,,,,,,,,,,,,,,,,,,,,,,,,,,,,,,,,,,,,,,,,,,,,,,,,,,,,,,,,,,,,,,,,,,,,,86.73283187142898,62.58837469167073,87.53422788136635,99.55046070703007,101.43069409641218,101.43069409641218,2.1,2.11,-177,274,0,269,196,-257,213.25292825698853,213.25300312042236,213.2565279006958,213.26721048355103,213.41643571853638,213.41643571853638,213.41643571853638,213.41643571853638,213.41643571853638,213.41643571853638,213.41643571853638,215.92069458961487,2,2.6348888874053955,None,,,,,,,,,,,,,,,,,,92,1,2025-02-24_13h18.15.311,comp,2024.2.4,56.930895191764755,2025-02-24 13h21.39.156360 -0500,
46,46,0,critical,hwd,35.0,2.1,lower,133.0,57.0,57.0,133.0,70.0,70.0,1,3.892049551010132,None,,,,,0,0,0,0,0,46,46,40,215.93866062164307,,,,,,,,,,,,,,,,,,,,,,,,,,,,,,,,,,,,,,,,,,,,,,,,,,,,,,,,,,,,,,,,,,,,,,,,,,,,,,,,,133.0,57.0,57.0,133.0,70.0,70.0,2.1,2.12,-191,-265,0,-274,198,276,215.9223484992981,215.92242288589478,215.92574405670166,215.93866062164307,216.0856809616089,216.0856809616089,216.0856809616089,216.0856809616089,216.0856809616089,216.0856809616089,216.0856809616089,219.83587980270386,1,3.892049551010132,None,,,,,,,,,,,,,,,,,,92,1,2025-02-24_13h18.15.311,comp,2024.2.4,56.930895191764755,2025-02-24 13h21.39.156360 -0500,
47,47,0,filler_square,None,None,None,None,None,None,None,None,None,None,3,1.297966480255127,None,,,,,0,0,0,0,0,47,47,170,219.85230779647827,,,,,,,,,,,,,,,,,,,,,,,,,,,,,,,,,,,,,,,,,,,,,,,,,,,,,,,,,,,,,,,,,,,,,,,,,,,,,,,,,68.0501374952189,57.886940824741856,69.12275799898835,70.68962356560435,82.41520247583406,82.41520247583406,4.0,4.2,-160,-6,0,-278,173,-13,219.83767580986023,219.83775234222412,219.84130430221558,219.85230779647827,220.00654315948486,220.00654315948486,220.00654315948486,220.00654315948486,220.00654315948486,220.00654315948486,220.00654315948486,221.1687502861023,3,1.297966480255127,None,,,,,,,,,,,,,,,,,,92,1,2025-02-24_13h18.15.311,comp,2024.2.4,56.930895191764755,2025-02-24 13h21.39.156360 -0500,
48,48,0,critical,whd,35.0,3.0,lower,57.0,133.0,133.0,57.0,70.0,70.0,1,2.185105085372925,None,,,,,0,0,0,0,0,48,48,86,221.18880534172058,,,,,,,,,,,,,,,,,,,,,,,,,,,,,,,,,,,,,,,,,,,,,,,,,,,,,,,,,,,,,,,,,,,,,,,,,,,,,,,,,57.0,133.0,133.0,57.0,70.0,70.0,3.0,3.1,-191,286,0,18,160,-270,221.1704444885254,221.1705343723297,221.17407083511353,221.18880534172058,221.32614541053772,221.32614541053772,221.32614541053772,221.32614541053772,221.32614541053772,221.32614541053772,221.32614541053772,223.3866491317749,1,2.185105085372925,None,,,,,,,,,,,,,,,,,,92,1,2025-02-24_13h18.15.311,comp,2024.2.4,56.930895191764755,2025-02-24 13h21.39.156360 -0500,
49,49,0,filler_random,None,None,None,None,None,None,None,None,None,None,3,1.2961649894714355,None,,,,,0,0,0,0,0,49,49,161,223.40632581710815,,,,,,,,,,,,,,,,,,,,,,,,,,,,,,,,,,,,,,,,,,,,,,,,,,,,,,,,,,,,,,,,,,,,,,,,,,,,,,,,,68.49690864445193,142.5142550387377,159.1234452513137,70.10534517274502,164.946713646731,107.71604714482653,4.0,4.2,-202,12,0,-271,185,-6,223.38834929466248,223.388423204422,223.39154863357544,223.40632581710815,223.55349373817444,223.55349373817444,223.55349373817444,223.55349373817444,223.55349373817444,223.55349373817444,223.55349373817444,224.72347331047058,3,1.2961649894714355,None,,,,,,,,,,,,,,,,,,92,1,2025-02-24_13h18.15.311,comp,2024.2.4,56.930895191764755,2025-02-24 13h21.39.156360 -0500,
50,50,0,filler_random,None,None,None,None,None,None,None,None,None,None,2,1.5841906070709229,None,,,,,0,0,0,0,0,50,50,139,224.74197363853455,,,,,,,,,,,,,,,,,,,,,,,,,,,,,,,,,,,,,,,,,,,,,,,,,,,,,,,,,,,,,,,,,,,,,,,,,,,,,,,,,113.03106046351908,169.85721688020791,178.52459063162982,162.01816273486003,196.73627906087654,111.7977536284844,2.2,2.21,-262,-255,0,288,233,262,224.7252607345581,224.72535943984985,224.7285315990448,224.74197363853455,224.8880693912506,224.8880693912506,224.8880693912506,224.8880693912506,224.8880693912506,224.8880693912506,224.8880693912506,226.33769702911377,2,1.5841906070709229,None,,,,,,,,,,,,,,,,,,92,1,2025-02-24_13h18.15.311,comp,2024.2.4,56.930895191764755,2025-02-24 13h21.39.156360 -0500,
51,51,0,catch,None,None,None,None,None,None,None,None,None,None,2,1.155670404434204,None,,,,,0,0,0,0,0,51,51,120,226.3547501564026,,,,,,,,,,,,,,,,,,,,,,,,,,,,,,,,,,,,,,,,,,,,,,,,,,,,,,,,,,,,,,,,,,,,,,,,,,,,,,,,,116,74,163,162,129,61,3.0,3.1,-214,273,0,-13,208,-279,226.33962607383728,226.339702129364,226.34325861930847,226.3547501564026,226.50755715370178,226.50755715370178,226.50755715370178,226.50755715370178,226.50755715370178,226.50755715370178,226.50755715370178,227.51305413246155,2,1.155670404434204,None,,,,,,,,,,,,,,,,,,92,1,2025-02-24_13h18.15.311,comp,2024.2.4,56.930895191764755,2025-02-24 13h21.39.156360 -0500,
52,52,0,filler_random,None,None,None,None,None,None,None,None,None,None,1,3.84474515914917,None,,,,,0,0,0,0,0,52,52,156,227.52938961982727,,,,,,,,,,,,,,,,,,,,,,,,,,,,,,,,,,,,,,,,,,,,,,,,,,,,,,,,,,,,,,,,,,,,,,,,,,,,,,,,,174.81865630427836,177.63849228347414,164.68848712496796,159.03885716436267,183.4149735595386,163.95771699437233,3.0,3.1,-264,288,0,-3,257,-269,227.5147511959076,227.5148274898529,227.51788020133972,227.52938961982727,227.67279148101807,227.67279148101807,227.67279148101807,227.67279148101807,227.67279148101807,227.67279148101807,227.67279148101807,231.3782992362976,1,3.84474515914917,None,,,,,,,,,,,,,,,,,,92,1,2025-02-24_13h18.15.311,comp,2024.2.4,56.930895191764755,2025-02-24 13h21.39.156360 -0500,
53,53,0,catch,None,None,None,None,None,None,None,None,None,None,2,1.050694465637207,None,,,,,0,0,0,0,0,53,53,122,231.39538407325745,,,,,,,,,,,,,,,,,,,,,,,,,,,,,,,,,,,,,,,,,,,,,,,,,,,,,,,,,,,,,,,,,,,,,,,,,,,,,,,,,121,69,155,170,111,79,3.0,3.1,-216,260,0,7,220,-260,231.380277633667,231.38036394119263,231.38381457328796,231.39538407325745,231.53790140151978,231.53790140151978,231.53790140151978,231.53790140151978,231.53790140151978,231.53790140151978,231.53790140151978,232.45740485191345,2,1.050694465637207,None,,,,,,,,,,,,,,,,,,92,1,2025-02-24_13h18.15.311,comp,2024.2.4,56.930895191764755,2025-02-24 13h21.39.156360 -0500,
54,54,0,critical,hwd,20.0,3.0,lower,133.0,57.0,57.0,133.0,78.0,78.0,2,6.749560356140137,None,,,,,0,0,0,0,0,54,54,104,232.47259092330933,,,,,,,,,,,,,,,,,,,,,,,,,,,,,,,,,,,,,,,,,,,,,,,,,,,,,,,,,,,,,,,,,,,,,,,,,,,,,,,,,133.0,57.0,57.0,133.0,78.0,78.0,3.0,3.2,-191,-272,0,-13,202,288,232.4588828086853,232.45895719528198,232.4621241092682,232.47259092330933,232.62310910224915,232.62310910224915,232.62310910224915,232.62310910224915,232.62310910224915,232.62310910224915,232.62310910224915,239.22591161727905,2,6.749560356140137,None,,,,,,,,,,,,,,,,,,92,1,2025-02-24_13h18.15.311,comp,2024.2.4,56.930895191764755,2025-02-24 13h21.39.156360 -0500,
55,55,0,filler_random,None,None,None,None,None,None,None,None,None,None,2,2.76094388961792,None,,,,,0,0,0,0,0,55,55,165,239.2458610534668,,,,,,,,,,,,,,,,,,,,,,,,,,,,,,,,,,,,,,,,,,,,,,,,,,,,,,,,,,,,,,,,,,,,,,,,,,,,,,,,,103.94212653594491,111.06578974065285,170.48952586274638,159.90100748492003,152.9007078285701,88.25607438115424,2.1,2.12,-231,-270,0,-288,220,272,239.22755908966064,239.2276349067688,239.2308566570282,239.2458610534668,239.39411091804504,239.39411091804504,239.39411091804504,239.39411091804504,239.39411091804504,239.39411091804504,239.39411091804504,242.01280641555786,2,2.76094388961792,None,,,,,,,,,,,,,,,,,,92,1,2025-02-24_13h18.15.311,comp,2024.2.4,56.930895191764755,2025-02-24 13h21.39.156360 -0500,
56,56,0,critical,dwh,20.0,3.0,lower,78.0,78.0,57.0,133.0,133.0,57.0,2,3.144548177719116,None,,,,,0,0,0,0,0,56,56,68,242.0297269821167,,,,,,,,,,,,,,,,,,,,,,,,,,,,,,,,,,,,,,,,,,,,,,,,,,,,,,,,,,,,,,,,,,,,,,,,,,,,,,,,,78.0,78.0,57.0,133.0,133.0,57.0,3.0,3.2,-202,-282,0,-4,191,278,242.01447415351868,242.01455092430115,242.01801896095276,242.0297269821167,242.17661428451538,242.17661428451538,242.17661428451538,242.17661428451538,242.17661428451538,242.17661428451538,242.17661428451538,245.18718194961548,2,3.144548177719116,None,,,,,,,,,,,,,,,,,,92,1,2025-02-24_13h18.15.311,comp,2024.2.4,56.930895191764755,2025-02-24 13h21.39.156360 -0500,
57,57,0,filler_random,None,None,None,None,None,None,None,None,None,None,3,2.528109073638916,None,,,,,0,0,0,0,0,57,57,163,245.2064118385315,,,,,,,,,,,,,,,,,,,,,,,,,,,,,,,,,,,,,,,,,,,,,,,,,,,,,,,,,,,,,,,,,,,,,,,,,,,,,,,,,110.71164790431035,99.7246553777212,95.66955488419907,107.36301975476633,179.00113323792286,178.13980872552287,4.0,4.1,-200,-273,0,-9,239,-263,245.18896484375,245.1890881061554,245.19246768951416,245.2064118385315,245.3443284034729,245.3443284034729,245.3443284034729,245.3443284034729,245.3443284034729,245.3443284034729,245.3443284034729,247.74564242362976,3,2.528109073638916,None,,,,,,,,,,,,,,,,,,92,1,2025-02-24_13h18.15.311,comp,2024.2.4,56.930895191764755,2025-02-24 13h21.39.156360 -0500,
58,58,0,filler_square,None,None,None,None,None,None,None,None,None,None,1,1.0124752521514893,None,,,,,0,0,0,0,0,58,58,192,247.7619149684906,,,,,,,,,,,,,,,,,,,,,,,,,,,,,,,,,,,,,,,,,,,,,,,,,,,,,,,,,,,,,,,,,,,,,,,,,,,,,,,,,191.7125524439638,191.7125524439638,136.533159912158,189.1154812482999,76.09237658808081,93.68180112559483,2.1,2.11,-286,288,0,281,237,-259,247.74735832214355,247.74743604660034,247.75105810165405,247.7619149684906,247.90946984291077,247.90946984291077,247.90946984291077,247.90946984291077,247.90946984291077,247.90946984291077,247.90946984291077,248.78282141685486,1,1.0124752521514893,None,,,,,,,,,,,,,,,,,,92,1,2025-02-24_13h18.15.311,comp,2024.2.4,56.930895191764755,2025-02-24 13h21.39.156360 -0500,
59,59,0,critical,wdh,35.0,1.0,lower,57.0,133.0,70.0,70.0,133.0,57.0,1,4.975912809371948,None,,,,,0,0,0,0,0,59,59,72,248.798401594162,,,,,,,,,,,,,,,,,,,,,,,,,,,,,,,,,,,,,,,,,,,,,,,,,,,,,,,,,,,,,,,,,,,,,,,,,,,,,,,,,57.0,133.0,70.0,70.0,133.0,57.0,1.0,1.2,-198,-11,0,-14,160,-13,248.78434705734253,248.78442192077637,248.7874903678894,248.798401594162,248.9459047317505,248.9459047317505,248.9459047317505,248.9459047317505,248.9459047317505,248.9459047317505,248.9459047317505,253.78217124938965,1,4.975912809371948,None,,,,,,,,,,,,,,,,,,92,1,2025-02-24_13h18.15.311,comp,2024.2.4,56.930895191764755,2025-02-24 13h21.39.156360 -0500,
60,60,0,critical,whd,20.0,3.0,upper,125.0,200.0,200.0,125.0,141.0,141.0,1,1.9717364311218262,None,,,,,0,0,0,0,0,60,60,93,253.80283975601196,,,,,,,,,,,,,,,,,,,,,,,,,,,,,,,,,,,,,,,,,,,,,,,,,,,,,,,,,,,,,,,,,,,,,,,,,,,,,,,,,125.0,200.0,200.0,125.0,141.0,141.0,3.0,3.2,-258,-276,0,-10,229,264,253.78375101089478,253.78382968902588,253.78709411621094,253.80283975601196,253.94665837287903,253.94665837287903,253.94665837287903,253.94665837287903,253.94665837287903,253.94665837287903,253.94665837287903,255.78253626823425,1,1.9717364311218262,None,,,,,,,,,,,,,,,,,,92,1,2025-02-24_13h18.15.311,comp,2024.2.4,56.930895191764755,2025-02-24 13h21.39.156360 -0500,
61,61,0,critical,dhw,20.0,2.1,lower,78.0,78.0,133.0,57.0,57.0,133.0,3,2.1282637119293213,None,,,,,0,0,0,0,0,61,61,2,255.79858303070068,,,,,,,,,,,,,,,,,,,,,,,,,,,,,,,,,,,,,,,,,,,,,,,,,,,,,,,,,,,,,,,,,,,,,,,,,,,,,,,,,78.0,78.0,133.0,57.0,57.0,133.0,2.1,2.11,-164,285,0,274,191,-255,255.78404259681702,255.78412246704102,255.7875361442566,255.79858303070068,255.94790601730347,255.94790601730347,255.94790601730347,255.94790601730347,255.94790601730347,255.94790601730347,255.94790601730347,257.9291627407074,3,2.1282637119293213,None,,,,,,,,,,,,,,,,,,92,1,2025-02-24_13h18.15.311,comp,2024.2.4,56.930895191764755,2025-02-24 13h21.39.156360 -0500,
62,62,0,filler_square,None,None,None,None,None,None,None,None,None,None,3,1.5024373531341553,None,,,,,0,0,0,0,0,62,62,175,257.9437234401703,,,,,,,,,,,,,,,,,,,,,,,,,,,,,,,,,,,,,,,,,,,,,,,,,,,,,,,,,,,,,,,,,,,,,,,,,,,,,,,,,141.176106685754,126.06878401959366,63.85723115951264,128.12888271139832,160.08464537914432,160.08464537914432,3.0,3.2,-223,-270,0,-18,240,268,257.93090200424194,257.93097949028015,257.9343159198761,257.9437234401703,258.09572315216064,258.09572315216064,258.09572315216064,258.09572315216064,258.09572315216064,258.09572315216064,258.09572315216064,259.463849067688,3,1.5024373531341553,None,,,,,,,,,,,,,,,,,,92,1,2025-02-24_13h18.15.311,comp,2024.2.4,56.930895191764755,2025-02-24 13h21.39.156360 -0500,
63,63,0,filler_random,None,None,None,None,None,None,None,None,None,None,2,1.1339449882507324,None,,,,,0,0,0,0,0,63,63,138,259.4801592826843,,,,,,,,,,,,,,,,,,,,,,,,,,,,,,,,,,,,,,,,,,,,,,,,,,,,,,,,,,,,,,,,,,,,,,,,,,,,,,,,,116.67896830554045,93.8636350542119,163.09010123328596,163.91972533226104,162.57675740802244,135.73922870250038,2.1,2.12,-225,-266,0,-284,246,280,259.4655022621155,259.46557664871216,259.46877455711365,259.4801592826843,259.62029218673706,259.62029218673706,259.62029218673706,259.62029218673706,259.62029218673706,259.62029218673706,259.62029218673706,260.61641788482666,2,1.1339449882507324,None,,,,,,,,,,,,,,,,,,92,1,2025-02-24_13h18.15.311,comp,2024.2.4,56.930895191764755,2025-02-24 13h21.39.156360 -0500,
64,64,0,filler_square,None,None,None,None,None,None,None,None,None,None,3,1.1764552593231201,None,,,,,0,0,0,0,0,64,64,204,260.63795280456543,,,,,,,,,,,,,,,,,,,,,,,,,,,,,,,,,,,,,,,,,,,,,,,,,,,,,,,,,,,,,,,,,,,,,,,,,,,,,,,,,85.1018394532132,137.23960764907713,117.02192305622476,67.18259282776826,186.5339132244071,186.5339132244071,2.1,2.12,-198,-267,0,-251,223,286,260.6183080673218,260.61843705177307,260.62215757369995,260.63795280456543,260.78296518325806,260.78296518325806,260.78296518325806,260.78296518325806,260.78296518325806,260.78296518325806,260.78296518325806,261.83178544044495,3,1.1764552593231201,None,,,,,,,,,,,,,,,,,,92,1,2025-02-24_13h18.15.311,comp,2024.2.4,56.930895191764755,2025-02-24 13h21.39.156360 -0500,
65,65,0,critical,whd,35.0,2.1,upper,125.0,200.0,200.0,125.0,127.0,127.0,1,1.1781163215637207,None,,,,,0,0,0,0,0,65,65,13,261.8519506454468,,,,,,,,,,,,,,,,,,,,,,,,,,,,,,,,,,,,,,,,,,,,,,,,,,,,,,,,,,,,,,,,,,,,,,,,,,,,,,,,,125.0,200.0,200.0,125.0,127.0,127.0,2.1,2.12,-258,-252,0,-262,222,279,261.8333158493042,261.83339047431946,261.8365921974182,261.8519506454468,261.9999783039093,261.9999783039093,261.9999783039093,261.9999783039093,261.9999783039093,261.9999783039093,261.9999783039093,263.03454399108887,1,1.1781163215637207,None,,,,,,,,,,,,,,,,,,92,1,2025-02-24_13h18.15.311,comp,2024.2.4,56.930895191764755,2025-02-24 13h21.39.156360 -0500,
66,66,0,filler_square,None,None,None,None,None,None,None,None,None,None,2,3.8187220096588135,None,,,,,0,0,0,0,0,66,66,200,263.0514256954193,,,,,,,,,,,,,,,,,,,,,,,,,,,,,,,,,,,,,,,,,,,,,,,,,,,,,,,,,,,,,,,,,,,,,,,,,,,,,,,,,57.23628865107456,57.23628865107456,57.09084028014557,57.17049898922703,57.17317059110626,57.135516649414726,2.1,2.12,-153,-275,0,-267,153,279,263.03673934936523,263.03681898117065,263.0406002998352,263.0514256954193,263.2001323699951,263.2001323699951,263.2001323699951,263.2001323699951,263.2001323699951,263.2001323699951,263.2001323699951,266.88284254074097,2,3.8187220096588135,None,,,,,,,,,,,,,,,,,,92,1,2025-02-24_13h18.15.311,comp,2024.2.4,56.930895191764755,2025-02-24 13h21.39.156360 -0500,
67,67,0,filler_random,None,None,None,None,None,None,None,None,None,None,2,1.4836409091949463,None,,,,,0,0,0,0,0,67,67,145,266.8990058898926,,,,,,,,,,,,,,,,,,,,,,,,,,,,,,,,,,,,,,,,,,,,,,,,,,,,,,,,,,,,,,,,,,,,,,,,,,,,,,,,,193.89262293177399,82.55451488929553,108.54753403202722,162.0065487623647,107.30824540350335,65.49865656456382,3.0,3.2,-218,-263,0,-1,210,287,266.884557723999,266.8846318721771,266.8877282142639,266.8990058898926,267.0530126094818,267.0530126094818,267.0530126094818,267.0530126094818,267.0530126094818,267.0530126094818,267.0530126094818,268.3846561908722,2,1.4836409091949463,None,,,,,,,,,,,,,,,,,,92,1,2025-02-24_13h18.15.311,comp,2024.2.4,56.930895191764755,2025-02-24 13h21.39.156360 -0500,
68,68,0,critical,wdh,35.0,3.0,lower,57.0,133.0,70.0,70.0,133.0,57.0,3,3.734164237976074,None,,,,,0,0,0,0,0,68,68,74,268.4003715515137,,,,,,,,,,,,,,,,,,,,,,,,,,,,,,,,,,,,,,,,,,,,,,,,,,,,,,,,,,,,,,,,,,,,,,,,,,,,,,,,,57.0,133.0,70.0,70.0,133.0,57.0,3.0,3.1,-198,269,0,-10,160,-280,268.38609504699707,268.38617062568665,268.38960695266724,268.4003715515137,268.55164647102356,268.55164647102356,268.55164647102356,268.55164647102356,268.55164647102356,268.55164647102356,268.55164647102356,272.15272545814514,3,3.734164237976074,None,,,,,,,,,,,,,,,,,,92,1,2025-02-24_13h18.15.311,comp,2024.2.4,56.930895191764755,2025-02-24 13h21.39.156360 -0500,
69,69,0,filler_square,None,None,None,None,None,None,None,None,None,None,3,2.0213630199432373,None,,,,,0,0,0,0,0,69,69,186,272.16890382766724,,,,,,,,,,,,,,,,,,,,,,,,,,,,,,,,,,,,,,,,,,,,,,,,,,,,,,,,,,,,,,,,,,,,,,,,,,,,,,,,,89.50808442848907,86.7296283534655,83.57108481340808,83.46288068266567,94.77432322712394,94.77432322712394,1.0,1.3,299,-264,480,-283,665,-266,272.15469670295715,272.1547839641571,272.15863823890686,272.16890382766724,272.3176300525665,272.3176300525665,272.3176300525665,272.3176300525665,272.3176300525665,272.3176300525665,272.3176300525665,274.196350812912,3,2.0213630199432373,None,,,,,,,,,,,,,,,,,,92,1,2025-02-24_13h18.15.311,comp,2024.2.4,56.930895191764755,2025-02-24 13h21.39.156360 -0500,
70,70,0,critical,dhw,35.0,2.1,upper,127.0,127.0,200.0,125.0,125.0,200.0,3,1.864309310913086,None,,,,,0,0,0,0,0,70,70,25,274.2136890888214,,,,,,,,,,,,,,,,,,,,,,,,,,,,,,,,,,,,,,,,,,,,,,,,,,,,,,,,,,,,,,,,,,,,,,,,,,,,,,,,,127.0,127.0,200.0,125.0,125.0,200.0,2.1,2.12,-222,-272,0,-271,258,289,274.1978051662445,274.1978807449341,274.2008812427521,274.2136890888214,274.3561441898346,274.3561441898346,274.3561441898346,274.3561441898346,274.3561441898346,274.3561441898346,274.3561441898346,276.0886068344116,3,1.864309310913086,None,,,,,,,,,,,,,,,,,,92,1,2025-02-24_13h18.15.311,comp,2024.2.4,56.930895191764755,2025-02-24 13h21.39.156360 -0500,
71,71,0,critical,dwh,20.0,2.1,upper,141.0,141.0,125.0,200.0,200.0,125.0,3,5.549232244491577,None,,,,,0,0,0,0,0,71,71,31,276.1055884361267,,,,,,,,,,,,,,,,,,,,,,,,,,,,,,,,,,,,,,,,,,,,,,,,,,,,,,,,,,,,,,,,,,,,,,,,,,,,,,,,,141.0,141.0,125.0,200.0,200.0,125.0,2.1,2.11,-266,277,0,275,258,-250,276.0902144908905,276.090354681015,276.09377455711365,276.1055884361267,276.2531192302704,276.2531192302704,276.2531192302704,276.2531192302704,276.2531192302704,276.2531192302704,276.2531192302704,281.6617534160614,3,5.549232244491577,None,,,,,,,,,,,,,,,,,,92,1,2025-02-24_13h18.15.311,comp,2024.2.4,56.930895191764755,2025-02-24 13h21.39.156360 -0500,
72,72,0,filler_square,None,None,None,None,None,None,None,None,None,None,1,1.4330544471740723,None,,,,,0,0,0,0,0,72,72,172,281.6773498058319,,,,,,,,,,,,,,,,,,,,,,,,,,,,,,,,,,,,,,,,,,,,,,,,,,,,,,,,,,,,,,,,,,,,,,,,,,,,,,,,,101.5265902000436,101.5265902000436,101.28980435481807,77.71094921906649,80.83009278370206,89.94178300207237,1.0,1.2,-186,10,0,-8,180,-11,281.6634933948517,281.6635684967041,281.66655445098877,281.6773498058319,281.82284283638,281.82284283638,281.82284283638,281.82284283638,281.82284283638,281.82284283638,281.82284283638,283.1257359981537,1,1.4330544471740723,None,,,,,,,,,,,,,,,,,,92,1,2025-02-24_13h18.15.311,comp,2024.2.4,56.930895191764755,2025-02-24 13h21.39.156360 -0500,
73,73,0,critical,whd,20.0,4.0,upper,125.0,200.0,200.0,125.0,141.0,141.0,1,1.9766502380371094,None,,,,,0,0,0,0,0,73,73,95,283.14158606529236,,,,,,,,,,,,,,,,,,,,,,,,,,,,,,,,,,,,,,,,,,,,,,,,,,,,,,,,,,,,,,,,,,,,,,,,,,,,,,,,,125.0,200.0,200.0,125.0,141.0,141.0,4.0,4.2,-258,17,0,-282,229,3,283.1273045539856,283.1273832321167,283.130437374115,283.14158606529236,283.28994154930115,283.28994154930115,283.28994154930115,283.28994154930115,283.28994154930115,283.28994154930115,283.28994154930115,285.1275942325592,1,1.9766502380371094,None,,,,,,,,,,,,,,,,,,92,1,2025-02-24_13h18.15.311,comp,2024.2.4,56.930895191764755,2025-02-24 13h21.39.156360 -0500,
74,74,0,critical,wdh,20.0,3.0,lower,57.0,133.0,78.0,78.0,133.0,57.0,1,3.7574965953826904,None,,,,,0,0,0,0,0,74,74,80,285.1445822715759,,,,,,,,,,,,,,,,,,,,,,,,,,,,,,,,,,,,,,,,,,,,,,,,,,,,,,,,,,,,,,,,,,,,,,,,,,,,,,,,,57.0,133.0,78.0,78.0,133.0,57.0,3.0,3.2,-202,-272,0,17,164,271,285.1291868686676,285.1292953491211,285.13279938697815,285.1445822715759,285.2903392314911,285.2903392314911,285.2903392314911,285.2903392314911,285.2903392314911,285.2903392314911,285.2903392314911,288.913542509079,1,3.7574965953826904,None,,,,,,,,,,,,,,,,,,92,1,2025-02-24_13h18.15.311,comp,2024.2.4,56.930895191764755,2025-02-24 13h21.39.156360 -0500,
75,75,0,catch,None,None,None,None,None,None,None,None,None,None,3,1.0983521938323975,None,,,,,0,0,0,0,0,75,75,124,288.93223118782043,,,,,,,,,,,,,,,,,,,,,,,,,,,,,,,,,,,,,,,,,,,,,,,,,,,,,,,,,,,,,,,,,,,,,,,,,,,,,,,,,121,69,93,97,143,182,4.0,4.2,-179,13,0,-265,236,-2,288.9154648780823,288.9155445098877,288.91860246658325,288.93223118782043,289.0729401111603,289.0729401111603,289.0729401111603,289.0729401111603,289.0729401111603,289.0729401111603,289.0729401111603,290.04195499420166,3,1.0983521938323975,None,,,,,,,,,,,,,,,,,,92,1,2025-02-24_13h18.15.311,comp,2024.2.4,56.930895191764755,2025-02-24 13h21.39.156360 -0500,
76,76,0,critical,hdw,20.0,2.1,upper,200.0,125.0,141.0,141.0,125.0,200.0,3,2.004624128341675,None,,,,,0,0,0,0,0,76,76,47,290.0574505329132,,,,,,,,,,,,,,,,,,,,,,,,,,,,,,,,,,,,,,,,,,,,,,,,,,,,,,,,,,,,,,,,,,,,,,,,,,,,,,,,,200.0,125.0,141.0,141.0,125.0,200.0,2.1,2.11,-229,255,0,251,266,-258,290.04348587989807,290.0435619354248,290.04688715934753,290.0574505329132,290.21174120903015,290.21174120903015,290.21174120903015,290.21174120903015,290.21174120903015,290.21174120903015,290.21174120903015,292.0745213031769,3,2.004624128341675,None,,,,,,,,,,,,,,,,,,92,1,2025-02-24_13h18.15.311,comp,2024.2.4,56.930895191764755,2025-02-24 13h21.39.156360 -0500,
77,77,0,critical,whd,35.0,4.0,upper,125.0,200.0,200.0,125.0,127.0,127.0,1,1.4669392108917236,None,,,,,0,0,0,0,0,77,77,89,292.0911862850189,,,,,,,,,,,,,,,,,,,,,,,,,,,,,,,,,,,,,,,,,,,,,,,,,,,,,,,,,,,,,,,,,,,,,,,,,,,,,,,,,125.0,200.0,200.0,125.0,127.0,127.0,4.0,4.2,-258,9,0,-259,222,-13,292.07599806785583,292.0760726928711,292.0792987346649,292.0911862850189,292.2417371273041,292.2417371273041,292.2417371273041,292.2417371273041,292.2417371273041,292.2417371273041,292.2417371273041,293.5776903629303,1,1.4669392108917236,None,,,,,,,,,,,,,,,,,,92,1,2025-02-24_13h18.15.311,comp,2024.2.4,56.930895191764755,2025-02-24 13h21.39.156360 -0500,
78,78,0,critical,wdh,20.0,1.0,upper,125.0,200.0,141.0,141.0,200.0,125.0,1,2.9471983909606934,None,,,,,0,0,0,0,0,78,78,79,293.59509205818176,,,,,,,,,,,,,,,,,,,,,,,,,,,,,,,,,,,,,,,,,,,,,,,,,,,,,,,,,,,,,,,,,,,,,,,,,,,,,,,,,125.0,200.0,141.0,141.0,200.0,125.0,1.0,1.3,214,-250,480,-272,709,-257,293.579304933548,293.57938051223755,293.5823998451233,293.59509205818176,293.7423541545868,293.7423541545868,293.7423541545868,293.7423541545868,293.7423541545868,293.7423541545868,293.7423541545868,296.55760049819946,1,2.9471983909606934,None,,,,,,,,,,,,,,,,,,92,1,2025-02-24_13h18.15.311,comp,2024.2.4,56.930895191764755,2025-02-24 13h21.39.156360 -0500,
79,79,0,catch,None,None,None,None,None,None,None,None,None,None,3,1.2637345790863037,None,,,,,0,0,0,0,0,79,79,125,296.5745499134064,,,,,,,,,,,,,,,,,,,,,,,,,,,,,,,,,,,,,,,,,,,,,,,,,,,,,,,,,,,,,,,,,,,,,,,,,,,,,,,,,64,126,101,89,153,172,1.0,1.2,-204,0,0,-19,226,-17,296.5596430301666,296.55971932411194,296.56317615509033,296.5745499134064,296.723064661026,296.723064661026,296.723064661026,296.723064661026,296.723064661026,296.723064661026,296.723064661026,297.84364795684814,3,1.2637345790863037,None,,,,,,,,,,,,,,,,,,92,1,2025-02-24_13h18.15.311,comp,2024.2.4,56.930895191764755,2025-02-24 13h21.39.156360 -0500,
80,80,0,critical,hdw,35.0,4.0,upper,200.0,125.0,127.0,127.0,125.0,200.0,3,1.617034912109375,None,,,,,0,0,0,0,0,80,80,113,297.86167550086975,,,,,,,,,,,,,,,,,,,,,,,,,,,,,,,,,,,,,,,,,,,,,,,,,,,,,,,,,,,,,,,,,,,,,,,,,,,,,,,,,200.0,125.0,127.0,127.0,125.0,200.0,4.0,4.2,-222,-1,0,-251,260,-1,297.84512281417847,297.8452010154724,297.8485572338104,297.86167550086975,298.00930643081665,298.00930643081665,298.00930643081665,298.00930643081665,298.00930643081665,298.00930643081665,298.00930643081665,299.48390460014343,3,1.617034912109375,None,,,,,,,,,,,,,,,,,,92,1,2025-02-24_13h18.15.311,comp,2024.2.4,56.930895191764755,2025-02-24 13h21.39.156360 -0500,
81,81,0,critical,hdw,20.0,4.0,lower,133.0,57.0,78.0,78.0,57.0,133.0,1,2.217362403869629,None,,,,,0,0,0,0,0,81,81,118,299.50123286247253,,,,,,,,,,,,,,,,,,,,,,,,,,,,,,,,,,,,,,,,,,,,,,,,,,,,,,,,,,,,,,,,,,,,,,,,,,,,,,,,,133.0,57.0,78.0,78.0,57.0,133.0,4.0,4.1,-164,-265,0,-11,202,-253,299.48551869392395,299.4855954647064,299.4890432357788,299.50123286247253,299.6431140899658,299.6431140899658,299.6431140899658,299.6431140899658,299.6431140899658,299.6431140899658,299.6431140899658,301.72370648384094,1,2.217362403869629,None,,,,,,,,,,,,,,,,,,92,1,2025-02-24_13h18.15.311,comp,2024.2.4,56.930895191764755,2025-02-24 13h21.39.156360 -0500,
82,82,0,filler_square,None,None,None,None,None,None,None,None,None,None,1,3.1817126274108887,None,,,,,0,0,0,0,0,82,82,199,301.7447757720947,,,,,,,,,,,,,,,,,,,,,,,,,,,,,,,,,,,,,,,,,,,,,,,,,,,,,,,,,,,,,,,,,,,,,,,,,,,,,,,,,129.76131418657408,134.25319297192073,77.28782582660935,119.7406394908441,136.28341205178032,136.28341205178032,1.0,1.3,257,-277,480,-285,704,-272,301.7255928516388,301.7257196903229,301.7290277481079,301.7447757720947,301.87905836105347,301.87905836105347,301.87905836105347,301.87905836105347,301.87905836105347,301.87905836105347,301.87905836105347,304.92847204208374,1,3.1817126274108887,None,,,,,,,,,,,,,,,,,,92,1,2025-02-24_13h18.15.311,comp,2024.2.4,56.930895191764755,2025-02-24 13h21.39.156360 -0500,
83,83,0,critical,hwd,35.0,3.0,upper,200.0,125.0,125.0,200.0,127.0,127.0,2,1.2850151062011719,None,,,,,0,0,0,0,0,83,83,99,304.9453091621399,,,,,,,,,,,,,,,,,,,,,,,,,,,,,,,,,,,,,,,,,,,,,,,,,,,,,,,,,,,,,,,,,,,,,,,,,,,,,,,,,200.0,125.0,125.0,200.0,127.0,127.0,3.0,3.2,-258,-263,0,20,260,282,304.93002367019653,304.930100440979,304.9335877895355,304.9453091621399,305.09796833992004,305.09796833992004,305.09796833992004,305.09796833992004,305.09796833992004,305.09796833992004,305.09796833992004,306.2347559928894,2,1.2850151062011719,None,,,,,,,,,,,,,,,,,,92,1,2025-02-24_13h18.15.311,comp,2024.2.4,56.930895191764755,2025-02-24 13h21.39.156360 -0500,
84,84,0,critical,wdh,35.0,4.0,lower,57.0,133.0,70.0,70.0,133.0,57.0,1,2.188225507736206,None,,,,,0,0,0,0,0,84,84,76,306.25232219696045,,,,,,,,,,,,,,,,,,,,,,,,,,,,,,,,,,,,,,,,,,,,,,,,,,,,,,,,,,,,,,,,,,,,,,,,,,,,,,,,,57.0,133.0,70.0,70.0,133.0,57.0,4.0,4.2,-198,-13,0,-264,160,-9,306.2362208366394,306.23631954193115,306.2393116950989,306.25232219696045,306.39387249946594,306.39387249946594,306.39387249946594,306.39387249946594,306.39387249946594,306.39387249946594,306.39387249946594,308.44551730155945,1,2.188225507736206,None,,,,,,,,,,,,,,,,,,92,1,2025-02-24_13h18.15.311,comp,2024.2.4,56.930895191764755,2025-02-24 13h21.39.156360 -0500,
85,85,0,critical,hwd,35.0,1.0,upper,200.0,125.0,125.0,200.0,127.0,127.0,2,1.7126357555389404,None,,,,,0,0,0,0,0,85,85,97,308.461852312088,,,,,,,,,,,,,,,,,,,,,,,,,,,,,,,,,,,,,,,,,,,,,,,,,,,,,,,,,,,,,,,,,,,,,,,,,,,,,,,,,200.0,125.0,125.0,200.0,127.0,127.0,1.0,1.2,-258,2,0,11,260,12,308.44698548316956,308.44706201553345,308.450190782547,308.461852312088,308.61004400253296,308.61004400253296,308.61004400253296,308.61004400253296,308.61004400253296,308.61004400253296,308.61004400253296,310.18198919296265,2,1.7126357555389404,None,,,,,,,,,,,,,,,,,,92,1,2025-02-24_13h18.15.311,comp,2024.2.4,56.930895191764755,2025-02-24 13h21.39.156360 -0500,
86,86,0,filler_square,None,None,None,None,None,None,None,None,None,None,2,2.6159520149230957,None,,,,,0,0,0,0,0,86,86,190,310.19815850257874,,,,,,,,,,,,,,,,,,,,,,,,,,,,,,,,,,,,,,,,,,,,,,,,,,,,,,,,,,,,,,,,,,,,,,,,,,,,,,,,,126.83241936344092,74.57277522053042,126.94837635648253,126.94837635648253,64.92489987604827,93.65386670413562,2.1,2.11,-197,265,0,257,206,-288,310.18377566337585,310.1839129924774,310.18741393089294,310.19815850257874,310.34692764282227,310.34692764282227,310.34692764282227,310.34692764282227,310.34692764282227,310.34692764282227,310.34692764282227,312.82888007164,2,2.6159520149230957,None,,,,,,,,,,,,,,,,,,92,1,2025-02-24_13h18.15.311,comp,2024.2.4,56.930895191764755,2025-02-24 13h21.39.156360 -0500,
87,87,0,critical,hwd,35.0,3.0,lower,133.0,57.0,57.0,133.0,70.0,70.0,2,1.921983003616333,None,,,,,0,0,0,0,0,87,87,98,312.84415197372437,,,,,,,,,,,,,,,,,,,,,,,,,,,,,,,,,,,,,,,,,,,,,,,,,,,,,,,,,,,,,,,,,,,,,,,,,,,,,,,,,133.0,57.0,57.0,133.0,70.0,70.0,3.0,3.1,-191,252,0,-15,198,-256,312.8303325176239,312.830406665802,312.83341574668884,312.84415197372437,312.9813644886017,312.9813644886017,312.9813644886017,312.9813644886017,312.9813644886017,312.9813644886017,312.9813644886017,314.76805424690247,2,1.921983003616333,None,,,,,,,,,,,,,,,,,,92,1,2025-02-24_13h18.15.311,comp,2024.2.4,56.930895191764755,2025-02-24 13h21.39.156360 -0500,
88,88,0,filler_square,None,None,None,None,None,None,None,None,None,None,2,0.9267556667327881,None,,,,,0,0,0,0,0,88,88,196,314.78395199775696,,,,,,,,,,,,,,,,,,,,,,,,,,,,,,,,,,,,,,,,,,,,,,,,,,,,,,,,,,,,,,,,,,,,,,,,,,,,,,,,,66.78328974832237,157.98123702098627,172.8341297263952,172.8341297263952,68.86961900551688,92.79078733211918,4.0,4.2,-261,6,0,-276,229,-17,314.7699360847473,314.7700138092041,314.7733254432678,314.78395199775696,314.93903160095215,314.93903160095215,314.93903160095215,314.93903160095215,314.93903160095215,314.93903160095215,314.93903160095215,315.71640133857727,2,0.9267556667327881,None,,,,,,,,,,,,,,,,,,92,1,2025-02-24_13h18.15.311,comp,2024.2.4,56.930895191764755,2025-02-24 13h21.39.156360 -0500,
89,89,0,filler_square,None,None,None,None,None,None,None,None,None,None,2,2.432790994644165,None,,,,,0,0,0,0,0,89,89,201,315.7334740161896,,,,,,,,,,,,,,,,,,,,,,,,,,,,,,,,,,,,,,,,,,,,,,,,,,,,,,,,,,,,,,,,,,,,,,,,,,,,,,,,,107.85854674192832,105.6392676157183,111.24833185676555,111.24833185676555,62.24906572142004,98.14484863856401,2.2,2.21,-204,-260,0,261,201,262,315.71821641921997,315.7183301448822,315.7224404811859,315.7334740161896,315.8816509246826,315.8816509246826,315.8816509246826,315.8816509246826,315.8816509246826,315.8816509246826,315.8816509246826,318.17274475097656,2,2.432790994644165,None,,,,,,,,,,,,,,,,,,92,1,2025-02-24_13h18.15.311,comp,2024.2.4,56.930895191764755,2025-02-24 13h21.39.156360 -0500,
90,90,0,critical,dhw,35.0,3.0,lower,70.0,70.0,133.0,57.0,57.0,133.0,2,4.866936445236206,None,,,,,0,0,0,0,0,90,90,50,318.18797969818115,,,,,,,,,,,,,,,,,,,,,,,,,,,,,,,,,,,,,,,,,,,,,,,,,,,,,,,,,,,,,,,,,,,,,,,,,,,,,,,,,70.0,70.0,133.0,57.0,57.0,133.0,3.0,3.1,-160,288,0,-5,191,-283,318.17422580718994,318.1743233203888,318.17730927467346,318.18797969818115,318.3331968784332,318.3331968784332,318.3331968784332,318.3331968784332,318.3331968784332,318.3331968784332,318.3331968784332,323.06243920326233,2,4.866936445236206,None,,,,,,,,,,,,,,,,,,92,1,2025-02-24_13h18.15.311,comp,2024.2.4,56.930895191764755,2025-02-24 13h21.39.156360 -0500,
91,91,0,critical,wdh,20.0,2.1,upper,125.0,200.0,141.0,141.0,200.0,125.0,1,2.4873714447021484,None,,,,,0,0,0,0,0,91,91,11,323.0791742801666,,,,,,,,,,,,,,,,,,,,,,,,,,,,,,,,,,,,,,,,,,,,,,,,,,,,,,,,,,,,,,,,,,,,,,,,,,,,,,,,,125.0,200.0,141.0,141.0,200.0,125.0,2.1,2.12,-266,-259,0,-287,229,272,323.0639545917511,323.06403279304504,323.0674583911896,323.0791742801666,323.219110250473,323.219110250473,323.219110250473,323.219110250473,323.219110250473,323.219110250473,323.219110250473,325.5713698863983,1,2.4873714447021484,None,,,,,,,,,,,,,,,,,,92,1,2025-02-24_13h18.15.311,comp,2024.2.4,56.930895191764755,2025-02-24 13h21.39.156360 -0500,
92,92,0,filler_random,None,None,None,None,None,None,None,None,None,None,3,1.002295970916748,None,,,,,0,0,0,0,0,92,92,166,325.5878188610077,,,,,,,,,,,,,,,,,,,,,,,,,,,,,,,,,,,,,,,,,,,,,,,,,,,,,,,,,,,,,,,,,,,,,,,,,,,,,,,,,86.40208230789486,85.28357264223726,69.4527570037115,151.17860415088774,161.8667898023025,151.53247810015952,3.0,3.1,-214,272,0,-5,247,-267,325.57320070266724,325.5733308792114,325.57695174217224,325.5878188610077,325.73613715171814,325.73613715171814,325.73613715171814,325.73613715171814,325.73613715171814,325.73613715171814,325.73613715171814,326.6016390323639,3,1.002295970916748,None,,,,,,,,,,,,,,,,,,92,1,2025-02-24_13h18.15.311,comp,2024.2.4,56.930895191764755,2025-02-24 13h21.39.156360 -0500,
93,93,0,filler_random,None,None,None,None,None,None,None,None,None,None,2,1.2450432777404785,None,,,,,0,0,0,0,0,93,93,167,326.61781454086304,,,,,,,,,,,,,,,,,,,,,,,,,,,,,,,,,,,,,,,,,,,,,,,,,,,,,,,,,,,,,,,,,,,,,,,,,,,,,,,,,151.71083193557502,122.97223642584423,169.9659276573759,148.25784915801307,153.29139744157158,132.0665693413065,1.0,1.3,248,-260,480,-272,716,-251,326.60339641571045,326.60352993011475,326.6069462299347,326.61781454086304,326.7756395339966,326.7756395339966,326.7756395339966,326.7756395339966,326.7756395339966,326.7756395339966,326.7756395339966,327.8686752319336,2,1.2450432777404785,None,,,,,,,,,,,,,,,,,,92,1,2025-02-24_13h18.15.311,comp,2024.2.4,56.930895191764755,2025-02-24 13h21.39.156360 -0500,
94,94,0,critical,hdw,35.0,2.1,upper,200.0,125.0,127.0,127.0,125.0,200.0,3,1.9191572666168213,None,,,,,0,0,0,0,0,94,94,21,327.8955452442169,,,,,,,,,,,,,,,,,,,,,,,,,,,,,,,,,,,,,,,,,,,,,,,,,,,,,,,,,,,,,,,,,,,,,,,,,,,,,,,,,200.0,125.0,127.0,127.0,125.0,200.0,2.1,2.11,-222,288,0,272,260,-250,327.8702292442322,327.8703496456146,327.8738262653351,327.8955452442169,328.0371606349945,328.0371606349945,328.0371606349945,328.0371606349945,328.0371606349945,328.0371606349945,328.0371606349945,329.82127022743225,3,1.9191572666168213,None,,,,,,,,,,,,,,,,,,92,1,2025-02-24_13h18.15.311,comp,2024.2.4,56.930895191764755,2025-02-24 13h21.39.156360 -0500,
95,95,0,critical,hdw,20.0,2.1,lower,133.0,57.0,78.0,78.0,57.0,133.0,3,1.744520664215088,None,,,,,0,0,0,0,0,95,95,22,329.8379843235016,,,,,,,,,,,,,,,,,,,,,,,,,,,,,,,,,,,,,,,,,,,,,,,,,,,,,,,,,,,,,,,,,,,,,,,,,,,,,,,,,133.0,57.0,78.0,78.0,57.0,133.0,2.1,2.12,-164,-254,0,-279,202,266,329.82272720336914,329.8228039741516,329.8262906074524,329.8379843235016,329.9874277114868,329.9874277114868,329.9874277114868,329.9874277114868,329.9874277114868,329.9874277114868,329.9874277114868,331.5885579586029,3,1.744520664215088,None,,,,,,,,,,,,,,,,,,92,1,2025-02-24_13h18.15.311,comp,2024.2.4,56.930895191764755,2025-02-24 13h21.39.156360 -0500,
96,96,0,filler_square,None,None,None,None,None,None,None,None,None,None,2,1.1728730201721191,None,,,,,0,0,0,0,0,96,96,193,331.60939025878906,,,,,,,,,,,,,,,,,,,,,,,,,,,,,,,,,,,,,,,,,,,,,,,,,,,,,,,,,,,,,,,,,,,,,,,,,,,,,,,,,156.50789932102225,155.41905878076545,178.00667109912237,178.00667109912237,136.40877588923368,135.41118305493947,4.0,4.1,-263,-262,0,1,253,-251,331.5905406475067,331.5906641483307,331.59375500679016,331.60939025878906,331.75487303733826,331.75487303733826,331.75487303733826,331.75487303733826,331.75487303733826,331.75487303733826,331.75487303733826,332.7970221042633,2,1.1728730201721191,None,,,,,,,,,,,,,,,,,,92,1,2025-02-24_13h18.15.311,comp,2024.2.4,56.930895191764755,2025-02-24 13h21.39.156360 -0500,
97,97,0,critical,dwh,20.0,4.0,upper,141.0,141.0,125.0,200.0,200.0,125.0,2,1.463700771331787,None,,,,,0,0,0,0,0,97,97,71,332.8143994808197,,,,,,,,,,,,,,,,,,,,,,,,,,,,,,,,,,,,,,,,,,,,,,,,,,,,,,,,,,,,,,,,,,,,,,,,,,,,,,,,,141.0,141.0,125.0,200.0,200.0,125.0,4.0,4.1,-266,-273,0,15,258,-258,332.798485994339,332.79856133461,332.8015694618225,332.8143994808197,332.9559414386749,332.9559414386749,332.9559414386749,332.9559414386749,332.9559414386749,332.9559414386749,332.9559414386749,334.290274143219,2,1.463700771331787,None,,,,,,,,,,,,,,,,,,92,1,2025-02-24_13h18.15.311,comp,2024.2.4,56.930895191764755,2025-02-24 13h21.39.156360 -0500,
98,98,0,critical,wdh,20.0,1.0,lower,57.0,133.0,78.0,78.0,133.0,57.0,1,2.2924036979675293,None,,,,,0,0,0,0,0,98,98,78,334.3063540458679,,,,,,,,,,,,,,,,,,,,,,,,,,,,,,,,,,,,,,,,,,,,,,,,,,,,,,,,,,,,,,,,,,,,,,,,,,,,,,,,,57.0,133.0,78.0,78.0,133.0,57.0,1.0,1.2,-202,16,0,-10,164,3,334.2918932437897,334.2919702529907,334.2954957485199,334.3063540458679,334.45519065856934,334.45519065856934,334.45519065856934,334.45519065856934,334.45519065856934,334.45519065856934,334.45519065856934,336.60500979423523,1,2.2924036979675293,None,,,,,,,,,,,,,,,,,,92,1,2025-02-24_13h18.15.311,comp,2024.2.4,56.930895191764755,2025-02-24 13h21.39.156360 -0500,
99,99,0,filler_random,None,None,None,None,None,None,None,None,None,None,2,1.110860824584961,None,,,,,0,0,0,0,0,99,99,142,336.623642206192,,,,,,,,,,,,,,,,,,,,,,,,,,,,,,,,,,,,,,,,,,,,,,,,,,,,,,,,,,,,,,,,,,,,,,,,,,,,,,,,,71.56987164331841,70.22886112269205,174.898548612266,194.17657986067078,69.56755479182823,144.61540618928402,2.2,2.22,-228,275,0,-250,265,-263,336.6067764759064,336.6068980693817,336.61037516593933,336.623642206192,336.77307629585266,336.77307629585266,336.77307629585266,336.77307629585266,336.77307629585266,336.77307629585266,336.77307629585266,337.73803782463074,2,1.110860824584961,None,,,,,,,,,,,,,,,,,,92,1,2025-02-24_13h18.15.311,comp,2024.2.4,56.930895191764755,2025-02-24 13h21.39.156360 -0500,
100,100,0,critical,hdw,35.0,2.1,lower,133.0,57.0,70.0,70.0,57.0,133.0,3,3.5477890968322754,None,,,,,0,0,0,0,0,100,100,20,337.75474071502686,,,,,,,,,,,,,,,,,,,,,,,,,,,,,,,,,,,,,,,,,,,,,,,,,,,,,,,,,,,,,,,,,,,,,,,,,,,,,,,,,133.0,57.0,70.0,70.0,57.0,133.0,2.1,2.11,-160,289,0,253,198,-254,337.73962807655334,337.7397048473358,337.74298882484436,337.75474071502686,337.8946077823639,337.8946077823639,337.8946077823639,337.8946077823639,337.8946077823639,337.8946077823639,337.8946077823639,341.30967569351196,3,3.5477890968322754,None,,,,,,,,,,,,,,,,,,92,1,2025-02-24_13h18.15.311,comp,2024.2.4,56.930895191764755,2025-02-24 13h21.39.156360 -0500,
101,101,0,filler_random,None,None,None,None,None,None,None,None,None,None,2,1.0323235988616943,None,,,,,0,0,0,0,0,101,101,140,341.32597970962524,,,,,,,,,,,,,,,,,,,,,,,,,,,,,,,,,,,,,,,,,,,,,,,,,,,,,,,,,,,,,,,,,,,,,,,,,,,,,,,,,172.747130705899,101.6195995735967,170.49424647619182,128.27379824479834,91.23893824671961,122.85729181433064,4.0,4.1,-211,-270,0,17,222,-281,341.3115794658661,341.3116567134857,341.3150906562805,341.32597970962524,341.4765121936798,341.4765121936798,341.4765121936798,341.4765121936798,341.4765121936798,341.4765121936798,341.4765121936798,342.36159110069275,2,1.0323235988616943,None,,,,,,,,,,,,,,,,,,92,1,2025-02-24_13h18.15.311,comp,2024.2.4,56.930895191764755,2025-02-24 13h21.39.156360 -0500,
102,102,0,critical,hdw,35.0,3.0,lower,133.0,57.0,70.0,70.0,57.0,133.0,3,2.324793577194214,None,,,,,0,0,0,0,0,102,102,110,342.37765407562256,,,,,,,,,,,,,,,,,,,,,,,,,,,,,,,,,,,,,,,,,,,,,,,,,,,,,,,,,,,,,,,,,,,,,,,,,,,,,,,,,133.0,57.0,70.0,70.0,57.0,133.0,3.0,3.2,-160,-262,0,6,198,257,342.3634338378906,342.3635640144348,342.36694979667664,342.37765407562256,342.5302894115448,342.5302894115448,342.5302894115448,342.5302894115448,342.5302894115448,342.5302894115448,342.5302894115448,344.7094874382019,3,2.324793577194214,None,,,,,,,,,,,,,,,,,,92,1,2025-02-24_13h18.15.311,comp,2024.2.4,56.930895191764755,2025-02-24 13h21.39.156360 -0500,
103,103,0,filler_square,None,None,None,None,None,None,None,None,None,None,3,1.2939441204071045,None,,,,,0,0,0,0,0,103,103,180,344.7282633781433,,,,,,,,,,,,,,,,,,,,,,,,,,,,,,,,,,,,,,,,,,,,,,,,,,,,,,,,,,,,,,,,,,,,,,,,,,,,,,,,,81.54246730383007,63.282304489973264,109.62655489761647,67.60539674498722,154.89862924187963,154.89862924187963,4.0,4.1,-161,-255,0,-2,207,-274,344.71144676208496,344.71152353286743,344.7148916721344,344.7282633781433,344.87495255470276,344.87495255470276,344.87495255470276,344.87495255470276,344.87495255470276,344.87495255470276,344.87495255470276,346.0262989997864,3,1.2939441204071045,None,,,,,,,,,,,,,,,,,,92,1,2025-02-24_13h18.15.311,comp,2024.2.4,56.930895191764755,2025-02-24 13h21.39.156360 -0500,
104,104,0,critical,whd,35.0,1.0,lower,57.0,133.0,133.0,57.0,70.0,70.0,1,2.226379156112671,None,,,,,0,0,0,0,0,104,104,84,346.04440999031067,,,,,,,,,,,,,,,,,,,,,,,,,,,,,,,,,,,,,,,,,,,,,,,,,,,,,,,,,,,,,,,,,,,,,,,,,,,,,,,,,57.0,133.0,133.0,57.0,70.0,70.0,1.0,1.3,289,-262,480,-290,640,-258,346.02774834632874,346.02782368659973,346.031099319458,346.04440999031067,346.1932864189148,346.1932864189148,346.1932864189148,346.1932864189148,346.1932864189148,346.1932864189148,346.1932864189148,348.2768495082855,1,2.226379156112671,None,,,,,,,,,,,,,,,,,,92,1,2025-02-24_13h18.15.311,comp,2024.2.4,56.930895191764755,2025-02-24 13h21.39.156360 -0500,
105,105,0,filler_square,None,None,None,None,None,None,None,None,None,None,2,2.0653326511383057,None,,,,,0,0,0,0,0,105,105,191,348.2934658527374,,,,,,,,,,,,,,,,,,,,,,,,,,,,,,,,,,,,,,,,,,,,,,,,,,,,,,,,,,,,,,,,,,,,,,,,,,,,,,,,,70.70402525501382,94.96843338024763,185.66504337503488,185.66504337503488,124.09814881325573,178.65385482508353,2.1,2.12,-236,-260,0,-261,278,266,348.2787742614746,348.2788510322571,348.28259205818176,348.2934658527374,348.44285821914673,348.44285821914673,348.44285821914673,348.44285821914673,348.44285821914673,348.44285821914673,348.44285821914673,350.3644037246704,2,2.0653326511383057,None,,,,,,,,,,,,,,,,,,92,1,2025-02-24_13h18.15.311,comp,2024.2.4,56.930895191764755,2025-02-24 13h21.39.156360 -0500,
106,106,0,critical,dwh,35.0,2.1,upper,127.0,127.0,125.0,200.0,200.0,125.0,2,1.3947699069976807,None,,,,,0,0,0,0,0,106,106,5,350.3798089027405,,,,,,,,,,,,,,,,,,,,,,,,,,,,,,,,,,,,,,,,,,,,,,,,,,,,,,,,,,,,,,,,,,,,,,,,,,,,,,,,,127.0,127.0,125.0,200.0,200.0,125.0,2.1,2.11,-260,284,0,254,258,-259,350.3660614490509,350.36614084243774,350.3691337108612,350.3798089027405,350.52609729766846,350.52609729766846,350.52609729766846,350.52609729766846,350.52609729766846,350.52609729766846,350.52609729766846,351.7783839702606,2,1.3947699069976807,None,,,,,,,,,,,,,,,,,,92,1,2025-02-24_13h18.15.311,comp,2024.2.4,56.930895191764755,2025-02-24 13h21.39.156360 -0500,
107,107,0,critical,dhw,20.0,3.0,lower,78.0,78.0,133.0,57.0,57.0,133.0,3,3.7952229976654053,None,,,,,0,0,0,0,0,107,107,56,351.7952175140381,,,,,,,,,,,,,,,,,,,,,,,,,,,,,,,,,,,,,,,,,,,,,,,,,,,,,,,,,,,,,,,,,,,,,,,,,,,,,,,,,78.0,78.0,133.0,57.0,57.0,133.0,3.0,3.1,-164,261,0,18,191,-280,351.77993965148926,351.78001642227173,351.7840859889984,351.7952175140381,351.94220757484436,351.94220757484436,351.94220757484436,351.94220757484436,351.94220757484436,351.94220757484436,351.94220757484436,355.593501329422,3,3.7952229976654053,None,,,,,,,,,,,,,,,,,,92,1,2025-02-24_13h18.15.311,comp,2024.2.4,56.930895191764755,2025-02-24 13h21.39.156360 -0500,
108,108,0,critical,hwd,35.0,4.0,upper,200.0,125.0,125.0,200.0,127.0,127.0,1,2.342137575149536,None,,,,,0,0,0,0,0,108,108,101,355.60976696014404,,,,,,,,,,,,,,,,,,,,,,,,,,,,,,,,,,,,,,,,,,,,,,,,,,,,,,,,,,,,,,,,,,,,,,,,,,,,,,,,,200.0,125.0,125.0,200.0,127.0,127.0,4.0,4.1,-258,-277,0,-6,260,-265,355.59495639801025,355.59503269195557,355.59813618659973,355.60976696014404,355.7581970691681,355.7581970691681,355.7581970691681,355.7581970691681,355.7581970691681,355.7581970691681,355.7581970691681,357.96267652511597,1,2.342137575149536,None,,,,,,,,,,,,,,,,,,92,1,2025-02-24_13h18.15.311,comp,2024.2.4,56.930895191764755,2025-02-24 13h21.39.156360 -0500,
109,109,0,filler_square,None,None,None,None,None,None,None,None,None,None,3,3.2778310775756836,None,,,,,0,0,0,0,0,109,109,181,357.9787788391113,,,,,,,,,,,,,,,,,,,,,,,,,,,,,,,,,,,,,,,,,,,,,,,,,,,,,,,,,,,,,,,,,,,,,,,,,,,,,,,,,57.081508718749284,110.43774719853756,102.27305068895012,103.79577716735686,122.75352126113823,122.75352126113823,2.1,2.11,-203,257,0,253,209,-262,357.96460223197937,357.9646780490875,357.96818351745605,357.9787788391113,358.13016748428345,358.13016748428345,358.13016748428345,358.13016748428345,358.13016748428345,358.13016748428345,358.13016748428345,361.2625524997711,3,3.2778310775756836,None,,,,,,,,,,,,,,,,,,92,1,2025-02-24_13h18.15.311,comp,2024.2.4,56.930895191764755,2025-02-24 13h21.39.156360 -0500,
110,110,0,filler_square,None,None,None,None,None,None,None,None,None,None,2,1.6080219745635986,None,,,,,0,0,0,0,0,110,110,187,361.27859377861023,,,,,,,,,,,,,,,,,,,,,,,,,,,,,,,,,,,,,,,,,,,,,,,,,,,,,,,,,,,,,,,,,,,,,,,,,,,,,,,,,116.60997384810719,99.90490898976121,190.2894629435117,190.2894629435117,62.26165822920045,163.74731805774485,2.2,2.22,-241,263,0,-258,273,-289,361.2643189430237,361.2643961906433,361.26762771606445,361.27859377861023,361.4346911907196,361.4346911907196,361.4346911907196,361.4346911907196,361.4346911907196,361.4346911907196,361.4346911907196,362.90561866760254,2,1.6080219745635986,None,,,,,,,,,,,,,,,,,,92,1,2025-02-24_13h18.15.311,comp,2024.2.4,56.930895191764755,2025-02-24 13h21.39.156360 -0500,
111,111,0,critical,wdh,20.0,2.1,lower,57.0,133.0,78.0,78.0,133.0,57.0,1,1.7921829223632812,None,,,,,0,0,0,0,0,111,111,10,362.92641043663025,,,,,,,,,,,,,,,,,,,,,,,,,,,,,,,,,,,,,,,,,,,,,,,,,,,,,,,,,,,,,,,,,,,,,,,,,,,,,,,,,57.0,133.0,78.0,78.0,133.0,57.0,2.1,2.12,-202,-260,0,-283,164,257,362.90717339515686,362.90727615356445,362.91118264198303,362.92641043663025,363.0621745586395,363.0621745586395,363.0621745586395,363.0621745586395,363.0621745586395,363.0621745586395,363.0621745586395,364.72111344337463,1,1.7921829223632812,None,,,,,,,,,,,,,,,,,,92,1,2025-02-24_13h18.15.311,comp,2024.2.4,56.930895191764755,2025-02-24 13h21.39.156360 -0500,
112,112,0,filler_random,None,None,None,None,None,None,None,None,None,None,1,1.1872353553771973,None,,,,,0,0,0,0,0,112,112,164,364.73946499824524,,,,,,,,,,,,,,,,,,,,,,,,,,,,,,,,,,,,,,,,,,,,,,,,,,,,,,,,,,,,,,,,,,,,,,,,,,,,,,,,,187.33890980502443,194.2231672377464,85.1839915079882,105.68551799699915,71.64553789134405,176.51707334550855,2.2,2.22,-246,253,0,-278,237,-262,364.7228772640228,364.7229883670807,364.72639536857605,364.73946499824524,364.8829152584076,364.8829152584076,364.8829152584076,364.8829152584076,364.8829152584076,364.8829152584076,364.8829152584076,365.9324622154236,1,1.1872353553771973,None,,,,,,,,,,,,,,,,,,92,1,2025-02-24_13h18.15.311,comp,2024.2.4,56.930895191764755,2025-02-24 13h21.39.156360 -0500,
113,113,0,critical,wdh,20.0,4.0,upper,125.0,200.0,141.0,141.0,200.0,125.0,1,1.6822988986968994,None,,,,,0,0,0,0,0,113,113,83,365.94851994514465,,,,,,,,,,,,,,,,,,,,,,,,,,,,,,,,,,,,,,,,,,,,,,,,,,,,,,,,,,,,,,,,,,,,,,,,,,,,,,,,,125.0,200.0,141.0,141.0,200.0,125.0,4.0,4.2,-266,-11,0,-252,229,20,365.9340305328369,365.93410563468933,365.93778920173645,365.94851994514465,366.0971031188965,366.0971031188965,366.0971031188965,366.0971031188965,366.0971031188965,366.0971031188965,366.0971031188965,367.6417586803436,1,1.6822988986968994,None,,,,,,,,,,,,,,,,,,92,1,2025-02-24_13h18.15.311,comp,2024.2.4,56.930895191764755,2025-02-24 13h21.39.156360 -0500,
114,114,0,filler_random,None,None,None,None,None,None,None,None,None,None,2,2.97592830657959,None,,,,,0,0,0,0,0,114,114,135,367.6621515750885,,,,,,,,,,,,,,,,,,,,,,,,,,,,,,,,,,,,,,,,,,,,,,,,,,,,,,,,,,,,,,,,,,,,,,,,,,,,,,,,,120.56309199298988,81.1725732903103,126.9740889407129,101.82256990393057,67.97387812608865,95.2028919522899,2.2,2.21,-187,-281,0,253,195,261,367.6434907913208,367.64356756210327,367.6465711593628,367.6621515750885,367.7994074821472,367.7994074821472,367.7994074821472,367.7994074821472,367.7994074821472,367.7994074821472,367.7994074821472,370.64876341819763,2,2.97592830657959,None,,,,,,,,,,,,,,,,,,92,1,2025-02-24_13h18.15.311,comp,2024.2.4,56.930895191764755,2025-02-24 13h21.39.156360 -0500,
115,115,0,critical,hwd,35.0,1.0,lower,133.0,57.0,57.0,133.0,70.0,70.0,2,6.369464874267578,None,,,,,0,0,0,0,0,115,115,96,370.66882038116455,,,,,,,,,,,,,,,,,,,,,,,,,,,,,,,,,,,,,,,,,,,,,,,,,,,,,,,,,,,,,,,,,,,,,,,,,,,,,,,,,133.0,57.0,57.0,133.0,70.0,70.0,1.0,1.2,-191,-2,0,-18,198,16,370.65020966529846,370.65030813217163,370.6536269187927,370.66882038116455,370.81648302078247,370.81648302078247,370.81648302078247,370.81648302078247,370.81648302078247,370.81648302078247,370.81648302078247,377.05309414863586,2,6.369464874267578,None,,,,,,,,,,,,,,,,,,92,1,2025-02-24_13h18.15.311,comp,2024.2.4,56.930895191764755,2025-02-24 13h21.39.156360 -0500,
116,116,0,critical,whd,35.0,2.1,upper,125.0,200.0,200.0,125.0,127.0,127.0,1,2.8631885051727295,None,,,,,0,0,0,0,0,116,116,37,377.0711739063263,,,,,,,,,,,,,,,,,,,,,,,,,,,,,,,,,,,,,,,,,,,,,,,,,,,,,,,,,,,,,,,,,,,,,,,,,,,,,,,,,125.0,200.0,200.0,125.0,127.0,127.0,2.1,2.12,-258,-268,0,-256,222,287,377.0546133518219,377.05471086502075,377.0585515499115,377.0711739063263,377.21799874305725,377.21799874305725,377.21799874305725,377.21799874305725,377.21799874305725,377.21799874305725,377.21799874305725,379.9364993572235,1,2.8631885051727295,None,,,,,,,,,,,,,,,,,,92,1,2025-02-24_13h18.15.311,comp,2024.2.4,56.930895191764755,2025-02-24 13h21.39.156360 -0500,
117,117,0,critical,wdh,35.0,1.0,upper,125.0,200.0,127.0,127.0,200.0,125.0,1,3.485368490219116,None,,,,,0,0,0,0,0,117,117,73,379.9529447555542,,,,,,,,,,,,,,,,,,,,,,,,,,,,,,,,,,,,,,,,,,,,,,,,,,,,,,,,,,,,,,,,,,,,,,,,,,,,,,,,,125.0,200.0,127.0,127.0,200.0,125.0,1.0,1.1,-740,275,-480,261,-258,277,379.93797421455383,379.9380519390106,379.94221925735474,379.9529447555542,380.10434889793396,380.10434889793396,380.10434889793396,380.10434889793396,380.10434889793396,380.10434889793396,380.10434889793396,383.45330286026,1,3.485368490219116,None,,,,,,,,,,,,,,,,,,92,1,2025-02-24_13h18.15.311,comp,2024.2.4,56.930895191764755,2025-02-24 13h21.39.156360 -0500,
118,118,0,filler_random,None,None,None,None,None,None,None,None,None,None,2,1.3837001323699951,None,,,,,0,0,0,0,0,118,118,155,383.4707832336426,,,,,,,,,,,,,,,,,,,,,,,,,,,,,,,,,,,,,,,,,,,,,,,,,,,,,,,,,,,,,,,,,,,,,,,,,,,,,,,,,89.84706971258666,141.78169405901076,177.61539994816258,119.95353728822,90.66958590737917,163.10275234256,3.0,3.2,-227,-268,0,14,238,268,383.4550974369049,383.45522904396057,383.45865392684937,383.4707832336426,383.62063789367676,383.62063789367676,383.62063789367676,383.62063789367676,383.62063789367676,383.62063789367676,383.62063789367676,384.8706877231598,2,1.3837001323699951,None,,,,,,,,,,,,,,,,,,92,1,2025-02-24_13h18.15.311,comp,2024.2.4,56.930895191764755,2025-02-24 13h21.39.156360 -0500,
119,119,0,filler_random,None,None,None,None,None,None,None,None,None,None,1,1.8874537944793701,None,,,,,0,0,0,0,0,119,119,151,384.88677430152893,,,,,,,,,,,,,,,,,,,,,,,,,,,,,,,,,,,,,,,,,,,,,,,,,,,,,,,,,,,,,,,,,,,,,,,,,,,,,,,,,175.25338468181718,142.91214631255417,108.74859516672073,171.93892586317764,62.25159572407705,98.21768630067467,3.0,3.2,-253,-266,0,1,231,284,384.87254190444946,384.87261724472046,384.87613320350647,384.88677430152893,385.0396921634674,385.0396921634674,385.0396921634674,385.0396921634674,385.0396921634674,385.0396921634674,385.0396921634674,386.79126358032227,1,1.8874537944793701,None,,,,,,,,,,,,,,,,,,92,1,2025-02-24_13h18.15.311,comp,2024.2.4,56.930895191764755,2025-02-24 13h21.39.156360 -0500,
120,120,0,critical,hwd,35.0,2.1,lower,133.0,57.0,57.0,133.0,70.0,70.0,2,2.597327709197998,None,,,,,0,0,0,0,0,120,120,16,386.80901432037354,,,,,,,,,,,,,,,,,,,,,,,,,,,,,,,,,,,,,,,,,,,,,,,,,,,,,,,,,,,,,,,,,,,,,,,,,,,,,,,,,133.0,57.0,57.0,133.0,70.0,70.0,2.1,2.11,-191,289,0,278,198,-269,386.7927680015564,386.79284620285034,386.7964324951172,386.80901432037354,386.95529532432556,386.95529532432556,386.95529532432556,386.95529532432556,386.95529532432556,386.95529532432556,386.95529532432556,389.41162109375,2,2.597327709197998,None,,,,,,,,,,,,,,,,,,92,1,2025-02-24_13h18.15.311,comp,2024.2.4,56.930895191764755,2025-02-24 13h21.39.156360 -0500,
121,121,0,filler_random,None,None,None,None,None,None,None,None,None,None,3,3.050978183746338,None,,,,,0,0,0,0,0,121,121,130,389.42728090286255,,,,,,,,,,,,,,,,,,,,,,,,,,,,,,,,,,,,,,,,,,,,,,,,,,,,,,,,,,,,,,,,,,,,,,,,,,,,,,,,,63.114581346363764,189.55359446018147,175.11795893422908,93.85059736931134,93.53694323618379,142.45332762107958,1.0,1.3,242,-285,480,-259,694,-287,389.413330078125,389.41340684890747,389.41646671295166,389.42728090286255,389.5724651813507,389.5724651813507,389.5724651813507,389.5724651813507,389.5724651813507,389.5724651813507,389.5724651813507,392.4898157119751,3,3.050978183746338,None,,,,,,,,,,,,,,,,,,92,1,2025-02-24_13h18.15.311,comp,2024.2.4,56.930895191764755,2025-02-24 13h21.39.156360 -0500,
122,122,0,critical,dhw,35.0,4.0,lower,70.0,70.0,133.0,57.0,57.0,133.0,3,4.3880369663238525,None,,,,,0,0,0,0,0,122,122,52,392.50629687309265,,,,,,,,,,,,,,,,,,,,,,,,,,,,,,,,,,,,,,,,,,,,,,,,,,,,,,,,,,,,,,,,,,,,,,,,,,,,,,,,,70.0,70.0,133.0,57.0,57.0,133.0,4.0,4.2,-160,-5,0,-268,191,-6,392.49129605293274,392.4913728237152,392.4955224990845,392.50629687309265,392.663494348526,392.663494348526,392.663494348526,392.663494348526,392.663494348526,392.663494348526,392.663494348526,396.90786123275757,3,4.3880369663238525,None,,,,,,,,,,,,,,,,,,92,1,2025-02-24_13h18.15.311,comp,2024.2.4,56.930895191764755,2025-02-24 13h21.39.156360 -0500,
123,123,0,critical,hdw,35.0,2.1,upper,200.0,125.0,127.0,127.0,125.0,200.0,1,1.9713592529296875,None,,,,,0,0,0,0,0,123,123,45,396.92309975624084,,,,,,,,,,,,,,,,,,,,,,,,,,,,,,,,,,,,,,,,,,,,,,,,,,,,,,,,,,,,,,,,,,,,,,,,,,,,,,,,,200.0,125.0,127.0,127.0,125.0,200.0,2.1,2.12,-222,-252,0,-280,260,271,396.9093704223633,396.90946674346924,396.91269183158875,396.92309975624084,397.07253885269165,397.07253885269165,397.07253885269165,397.07253885269165,397.07253885269165,397.07253885269165,397.07253885269165,398.8968758583069,1,1.9713592529296875,None,,,,,,,,,,,,,,,,,,92,1,2025-02-24_13h18.15.311,comp,2024.2.4,56.930895191764755,2025-02-24 13h21.39.156360 -0500,
124,124,0,filler_random,None,None,None,None,None,None,None,None,None,None,3,2.2754266262054443,None,,,,,0,0,0,0,0,124,124,150,398.91487860679626,,,,,,,,,,,,,,,,,,,,,,,,,,,,,,,,,,,,,,,,,,,,,,,,,,,,,,,,,,,,,,,,,,,,,,,,,,,,,,,,,128.00666750095894,142.17963631611775,64.63288607038247,67.65702387130958,125.04387663662591,175.2900141028744,3.0,3.2,-201,-260,0,1,217,289,398.8986210823059,398.89869713783264,398.90176486968994,398.91487860679626,399.0574176311493,399.0574176311493,399.0574176311493,399.0574176311493,399.0574176311493,399.0574176311493,399.0574176311493,401.19331979751587,3,2.2754266262054443,None,,,,,,,,,,,,,,,,,,92,1,2025-02-24_13h18.15.311,comp,2024.2.4,56.930895191764755,2025-02-24 13h21.39.156360 -0500,
125,125,0,filler_square,None,None,None,None,None,None,None,None,None,None,1,1.3905823230743408,None,,,,,0,0,0,0,0,125,125,178,401.2095000743866,,,,,,,,,,,,,,,,,,,,,,,,,,,,,,,,,,,,,,,,,,,,,,,,,,,,,,,,,,,,,,,,,,,,,,,,,,,,,,,,,135.55544407909042,135.55544407909042,89.16301173931033,87.56364413700999,129.9585758322553,97.62826608744456,3.0,3.1,-208,267,0,-18,189,-265,401.1951804161072,401.1952905654907,401.1987886428833,401.2095000743866,401.36438393592834,401.36438393592834,401.36438393592834,401.36438393592834,401.36438393592834,401.36438393592834,401.36438393592834,402.6107380390167,1,1.3905823230743408,None,,,,,,,,,,,,,,,,,,92,1,2025-02-24_13h18.15.311,comp,2024.2.4,56.930895191764755,2025-02-24 13h21.39.156360 -0500,
126,126,0,filler_random,None,None,None,None,None,None,None,None,None,None,2,2.4991819858551025,None,,,,,0,0,0,0,0,126,126,169,402.6271116733551,,,,,,,,,,,,,,,,,,,,,,,,,,,,,,,,,,,,,,,,,,,,,,,,,,,,,,,,,,,,,,,,,,,,,,,,,,,,,,,,,65.03973089514804,183.14539830107515,116.34049580694473,187.27544518088018,147.18609497174262,116.50894996600005,2.1,2.11,-281,263,0,256,248,-261,402.61255979537964,402.6126744747162,402.61615657806396,402.6271116733551,402.77771520614624,402.77771520614624,402.77771520614624,402.77771520614624,402.77771520614624,402.77771520614624,402.77771520614624,405.12831711769104,2,2.4991819858551025,None,,,,,,,,,,,,,,,,,,92,1,2025-02-24_13h18.15.311,comp,2024.2.4,56.930895191764755,2025-02-24 13h21.39.156360 -0500,
127,127,0,critical,dhw,20.0,1.0,upper,141.0,141.0,200.0,125.0,125.0,200.0,2,2.4461286067962646,None,,,,,0,0,0,0,0,127,127,55,405.14428758621216,,,,,,,,,,,,,,,,,,,,,,,,,,,,,,,,,,,,,,,,,,,,,,,,,,,,,,,,,,,,,,,,,,,,,,,,,,,,,,,,,141.0,141.0,200.0,125.0,125.0,200.0,1.0,1.3,251,-265,480,-266,738,-287,405.1298716068268,405.1299469470978,405.1334991455078,405.14428758621216,405.29706478118896,405.29706478118896,405.29706478118896,405.29706478118896,405.29706478118896,405.29706478118896,405.29706478118896,407.59544253349304,2,2.4461286067962646,None,,,,,,,,,,,,,,,,,,92,1,2025-02-24_13h18.15.311,comp,2024.2.4,56.930895191764755,2025-02-24 13h21.39.156360 -0500,
128,128,0,catch,None,None,None,None,None,None,None,None,None,None,3,1.0340421199798584,None,,,,,0,0,0,0,0,128,128,126,407.61225986480713,,,,,,,,,,,,,,,,,,,,,,,,,,,,,,,,,,,,,,,,,,,,,,,,,,,,,,,,,,,,,,,,,,,,,,,,,,,,,,,,,61,129,83,107,159,166,1.0,1.2,-214,-4,0,0,232,-8,407.5973856449127,407.59746170043945,407.6015181541443,407.61225986480713,407.76373410224915,407.76373410224915,407.76373410224915,407.76373410224915,407.76373410224915,407.76373410224915,407.76373410224915,408.6653311252594,3,1.0340421199798584,None,,,,,,,,,,,,,,,,,,92,1,2025-02-24_13h18.15.311,comp,2024.2.4,56.930895191764755,2025-02-24 13h21.39.156360 -0500,
129,129,0,critical,dwh,35.0,3.0,upper,127.0,127.0,125.0,200.0,200.0,125.0,2,4.47269606590271,None,,,,,0,0,0,0,0,129,129,63,408.6858243942261,,,,,,,,,,,,,,,,,,,,,,,,,,,,,,,,,,,,,,,,,,,,,,,,,,,,,,,,,,,,,,,,,,,,,,,,,,,,,,,,,127.0,127.0,125.0,200.0,200.0,125.0,3.0,3.2,-260,-286,0,-14,258,285,408.6668801307678,408.6669545173645,408.6704125404358,408.6858243942261,408.82838773727417,408.82838773727417,408.82838773727417,408.82838773727417,408.82838773727417,408.82838773727417,408.82838773727417,413.1630268096924,2,4.47269606590271,None,,,,,,,,,,,,,,,,,,92,1,2025-02-24_13h18.15.311,comp,2024.2.4,56.930895191764755,2025-02-24 13h21.39.156360 -0500,
130,130,0,filler_square,None,None,None,None,None,None,None,None,None,None,3,1.0278301239013672,None,,,,,0,0,0,0,0,130,130,207,413.1791627407074,,,,,,,,,,,,,,,,,,,,,,,,,,,,,,,,,,,,,,,,,,,,,,,,,,,,,,,,,,,,,,,,,,,,,,,,,,,,,,,,,103.64629063163264,75.03129721765345,58.14323803193073,107.96492230568337,177.7549188989243,177.7549188989243,2.2,2.22,-187,260,0,-282,239,-264,413.1648485660553,413.16492557525635,413.1682605743408,413.1791627407074,413.3287432193756,413.3287432193756,413.3287432193756,413.3287432193756,413.3287432193756,413.3287432193756,413.3287432193756,414.21204352378845,3,1.0278301239013672,None,,,,,,,,,,,,,,,,,,92,1,2025-02-24_13h18.15.311,comp,2024.2.4,56.930895191764755,2025-02-24 13h21.39.156360 -0500,
131,131,0,filler_random,None,None,None,None,None,None,None,None,None,None,2,1.3053040504455566,None,,,,,0,0,0,0,0,131,131,136,414.22902607917786,,,,,,,,,,,,,,,,,,,,,,,,,,,,,,,,,,,,,,,,,,,,,,,,,,,,,,,,,,,,,,,,,,,,,,,,,,,,,,,,,75.72383885673739,181.86054562384533,195.09729310971846,158.12373010378883,58.60837203259704,124.3116675926976,2.1,2.11,-266,283,0,266,237,-282,414.2138760089874,414.2140076160431,414.2173125743866,414.22902607917786,414.37896728515625,414.37896728515625,414.37896728515625,414.37896728515625,414.37896728515625,414.37896728515625,414.37896728515625,415.5472819805145,2,1.3053040504455566,None,,,,,,,,,,,,,,,,,,92,1,2025-02-24_13h18.15.311,comp,2024.2.4,56.930895191764755,2025-02-24 13h21.39.156360 -0500,
132,132,0,critical,whd,20.0,2.1,lower,57.0,133.0,133.0,57.0,78.0,78.0,1,3.0273876190185547,None,,,,,0,0,0,0,0,132,132,14,415.5635049343109,,,,,,,,,,,,,,,,,,,,,,,,,,,,,,,,,,,,,,,,,,,,,,,,,,,,,,,,,,,,,,,,,,,,,,,,,,,,,,,,,57.0,133.0,133.0,57.0,78.0,78.0,2.1,2.11,-191,280,0,259,164,-258,415.5487263202667,415.54880261421204,415.5523142814636,415.5635049343109,415.710706949234,415.710706949234,415.710706949234,415.710706949234,415.710706949234,415.710706949234,415.710706949234,418.5971784591675,1,3.0273876190185547,None,,,,,,,,,,,,,,,,,,92,1,2025-02-24_13h18.15.311,comp,2024.2.4,56.930895191764755,2025-02-24 13h21.39.156360 -0500,
133,133,0,filler_random,None,None,None,None,None,None,None,None,None,None,1,3.340911626815796,None,,,,,0,0,0,0,0,133,133,132,418.6179573535919,,,,,,,,,,,,,,,,,,,,,,,,,,,,,,,,,,,,,,,,,,,,,,,,,,,,,,,,,,,,,,,,,,,,,,,,,,,,,,,,,137.82648195167496,167.6044329897946,162.13603927714706,114.89501650923813,180.1313959157983,113.47875413496565,2.1,2.11,-237,277,0,273,210,-283,418.59896516799927,418.5990891456604,418.6026134490967,418.6179573535919,418.77065324783325,418.77065324783325,418.77065324783325,418.77065324783325,418.77065324783325,418.77065324783325,418.77065324783325,421.9658863544464,1,3.340911626815796,None,,,,,,,,,,,,,,,,,,92,1,2025-02-24_13h18.15.311,comp,2024.2.4,56.930895191764755,2025-02-24 13h21.39.156360 -0500,
134,134,0,critical,wdh,20.0,3.0,upper,125.0,200.0,141.0,141.0,200.0,125.0,1,1.8262548446655273,None,,,,,0,0,0,0,0,134,134,81,421.98118901252747,,,,,,,,,,,,,,,,,,,,,,,,,,,,,,,,,,,,,,,,,,,,,,,,,,,,,,,,,,,,,,,,,,,,,,,,,,,,,,,,,125.0,200.0,141.0,141.0,200.0,125.0,3.0,3.1,-266,277,0,0,229,-256,421.96748995780945,421.9675669670105,421.9712927341461,421.98118901252747,422.13187050819397,422.13187050819397,422.13187050819397,422.13187050819397,422.13187050819397,422.13187050819397,422.13187050819397,423.8178789615631,1,1.8262548446655273,None,,,,,,,,,,,,,,,,,,92,1,2025-02-24_13h18.15.311,comp,2024.2.4,56.930895191764755,2025-02-24 13h21.39.156360 -0500,
135,135,0,critical,hwd,20.0,2.1,lower,133.0,57.0,57.0,133.0,78.0,78.0,2,2.585944414138794,None,,,,,0,0,0,0,0,135,135,42,423.8363161087036,,,,,,,,,,,,,,,,,,,,,,,,,,,,,,,,,,,,,,,,,,,,,,,,,,,,,,,,,,,,,,,,,,,,,,,,,,,,,,,,,133.0,57.0,57.0,133.0,78.0,78.0,2.1,2.12,-191,-281,0,-259,202,281,423.8195240497589,423.8196029663086,423.8231451511383,423.8363161087036,423.9830906391144,423.9830906391144,423.9830906391144,423.9830906391144,423.9830906391144,423.9830906391144,423.9830906391144,426.4321343898773,2,2.585944414138794,None,,,,,,,,,,,,,,,,,,92,1,2025-02-24_13h18.15.311,comp,2024.2.4,56.930895191764755,2025-02-24 13h21.39.156360 -0500,
136,136,0,filler_random,None,None,None,None,None,None,None,None,None,None,3,3.053812265396118,None,,,,,0,0,0,0,0,136,136,148,426.44849586486816,,,,,,,,,,,,,,,,,,,,,,,,,,,,,,,,,,,,,,,,,,,,,,,,,,,,,,,,,,,,,,,,,,,,,,,,,,,,,,,,,129.61957597358816,138.25745363230322,83.25733993526674,158.8478261410458,183.2580406613564,112.17105970551773,4.0,4.1,-245,-288,0,15,232,-276,426.43377780914307,426.4338526725769,426.43687772750854,426.44849586486816,426.5966844558716,426.5966844558716,426.5966844558716,426.5966844558716,426.5966844558716,426.5966844558716,426.5966844558716,429.5176386833191,3,3.053812265396118,None,,,,,,,,,,,,,,,,,,92,1,2025-02-24_13h18.15.311,comp,2024.2.4,56.930895191764755,2025-02-24 13h21.39.156360 -0500,
137,137,0,filler_square,None,None,None,None,None,None,None,None,None,None,3,1.216371774673462,None,,,,,0,0,0,0,0,137,137,203,429.53394079208374,,,,,,,,,,,,,,,,,,,,,,,,,,,,,,,,,,,,,,,,,,,,,,,,,,,,,,,,,,,,,,,,,,,,,,,,,,,,,,,,,59.90861410547041,87.01509305574102,107.27806640252658,142.0614692030282,161.85837072194158,161.85837072194158,1.0,1.2,-211,-5,0,8,248,6,429.5194180011749,429.5194926261902,429.5227851867676,429.53394079208374,429.690758228302,429.690758228302,429.690758228302,429.690758228302,429.690758228302,429.690758228302,429.690758228302,430.7526443004608,3,1.216371774673462,None,,,,,,,,,,,,,,,,,,92,1,2025-02-24_13h18.15.311,comp,2024.2.4,56.930895191764755,2025-02-24 13h21.39.156360 -0500,
138,138,0,filler_square,None,None,None,None,None,None,None,None,None,None,1,1.1077766418457031,None,,,,,0,0,0,0,0,138,138,209,430.77061343193054,,,,,,,,,,,,,,,,,,,,,,,,,,,,,,,,,,,,,,,,,,,,,,,,,,,,,,,,,,,,,,,,,,,,,,,,,,,,,,,,,113.46077715581359,113.46077715581359,74.03810406791787,112.48934435286984,100.19571971441556,66.52192055776695,1.0,1.2,-209,17,0,-3,186,-14,430.7543878555298,430.75446462631226,430.7576525211334,430.77061343193054,430.9188277721405,430.9188277721405,430.9188277721405,430.9188277721405,430.9188277721405,430.9188277721405,430.9188277721405,431.891446352005,1,1.1077766418457031,None,,,,,,,,,,,,,,,,,,92,1,2025-02-24_13h18.15.311,comp,2024.2.4,56.930895191764755,2025-02-24 13h21.39.156360 -0500,
139,139,0,critical,wdh,35.0,3.0,upper,125.0,200.0,127.0,127.0,200.0,125.0,1,2.85170841217041,None,,,,,0,0,0,0,0,139,139,75,431.90665197372437,,,,,,,,,,,,,,,,,,,,,,,,,,,,,,,,,,,,,,,,,,,,,,,,,,,,,,,,,,,,,,,,,,,,,,,,,,,,,,,,,125.0,200.0,127.0,127.0,200.0,125.0,3.0,3.1,-260,285,0,-12,222,-283,431.8929271697998,431.8930025100708,431.89599442481995,431.90665197372437,432.05350375175476,432.05350375175476,432.05350375175476,432.05350375175476,432.05350375175476,432.05350375175476,432.05350375175476,434.7711298465729,1,2.85170841217041,None,,,,,,,,,,,,,,,,,,92,1,2025-02-24_13h18.15.311,comp,2024.2.4,56.930895191764755,2025-02-24 13h21.39.156360 -0500,
