thisN,thisTrialN,thisRepN,effect,order,distance,config,diag,h_1,w_1,h_2,w_2,h_3,w_3,rect_choice.keys,rect_choice.rt,rect_choice.duration,instructions_loop.thisRepN,instructions_loop.thisTrialN,instructions_loop.thisN,instructions_loop.thisIndex,blocks.thisRepN,blocks.thisTrialN,blocks.thisN,blocks.thisIndex,trials.thisRepN,trials.thisTrialN,trials.thisN,trials.thisIndex,thisRow.t,notes,consent.started,agree_button.started,decline_button.started,consent_img.started,mouse.started,consent.stopped,agree_button.numClicks,agree_button.timesOn,agree_button.timesOff,decline_button.numClicks,decline_button.timesOn,decline_button.timesOff,mouse.x,mouse.y,mouse.leftButton,mouse.midButton,mouse.rightButton,mouse.time,mouse.clicked_name,exp_params.started,exp_params.stopped,welcome.started,welcome_text.started,welcome.stopped,instructions_1.started,instructions_1_text_1.started,instructions_1_text_2.started,key_resp.started,instructions_1.stopped,instructions_loop.key_resp.keys,instructions_loop.key_resp.rt,instructions_loop.key_resp.duration,instructions_2.started,instructions_2_text_1.started,instructions_2_text_2.started,key_resp_2.started,instructions_2.stopped,instructions_loop.key_resp_2.keys,instructions_loop.key_resp_2.rt,instructions_loop.key_resp_2.duration,instructions_3.started,instructions_3_text_1.started,r1_instr3.started,r2_instr3.started,r3_instr3.started,r1_instr3_label.started,r2_instr3_label.started,r3_instr3_label.started,instructions_3_text_3.started,instructions_3_text_4.started,key_resp_3.started,instructions_3.stopped,instructions_loop.key_resp_3.keys,instructions_loop.key_resp_3.rt,instructions_loop.key_resp_3.duration,instructions_4.started,instructions_4_text_1.started,instructions_4_text_3.started,instructions_4_text_2.started,key_resp_4.started,instructions_4.stopped,instructions_loop.key_resp_4.keys,instructions_loop.key_resp_4.rt,instructions_loop.key_resp_4.duration,instructions_5.started,instructions_5_text_1.started,instructions_5_text_2.started,key_resp_5.started,instructions_5.stopped,instructions_loop.key_resp_5.keys,instructions_loop.key_resp_5.rt,instructions_loop.key_resp_5.duration,start_exp.started,start_exp_text.started,key_resp_6.started,start_exp.stopped,key_resp_6.keys,key_resp_6.rt,key_resp_6.duration,h_1_tmp,w_1_tmp,h_2_tmp,w_2_tmp,h_3_tmp,w_3_tmp,config_tmp,config_tmp_1,r_1_x,r_1_y,r_2_x,r_2_y,r_3_x,r_3_y,pre_trial.started,pre_trial.stopped,choice_trial.started,rect_choice.started,r_1.started,r_2.started,r_3.started,r_1_label.started,r_2_label.started,r_3_label.started,prompt.started,choice_trial.stopped,trials.rect_choice.keys,trials.rect_choice.rt,trials.rect_choice.duration,end_block.started,end_block_text.started,end_block.stopped,end.started,end_text.started,key_resp_7.started,end.stopped,key_resp_7.keys,key_resp_7.rt,key_resp_7.duration,debriefing.started,debrief_form.started,end_debrief.started,debriefing.stopped,end_debrief.keys,end_debrief.rt,end_debrief.duration,participant,computer,date,expName,psychopyVersion,frameRate,expStart,
,,,,,,,,,,,,,,,,,,,,,,,,,,,,,,,0.01827406883239746,0.03836178779602051,0.03836178779602051,0.03836178779602051,0.018099546432495117,34.385361433029175,1,[34.344646692276],[34.34466910362244],0,,,"[1.0, -41.0]","[-532.0, -534.0]","[1, 1]","[0, 0]","[0, 0]","[33.8731415271759, 34.36664175987244]","[None, 'agree_button']",,,,,,,,,,,,,,,,,,,,,,,,,,,,,,,,,,,,,,,,,,,,,,,,,,,,,,,,,,,,,,,,,,,,,,,,,,,,,,,,,,,,,,,,,,,,,,,,,,,,,,,,,,,93,2,2025-02-24_13h18.19.695,comp,2024.2.4,55.191115321859044,2025-02-24 13h21.36.391811 -0500,
,,,,,,,,,,,,,,,,,,,,,,,,,,,,,,,,,,,,,,,,,,,,,,,,,,34.385902881622314,34.38597083091736,,,,,,,,,,,,,,,,,,,,,,,,,,,,,,,,,,,,,,,,,,,,,,,,,,,,,,,,,,,,,,,,,,,,,,,,,,,,,,,,,,,,,,,,,,,,,,,,,,,,,,,,,93,2,2025-02-24_13h18.19.695,comp,2024.2.4,55.191115321859044,2025-02-24 13h21.36.391811 -0500,
,,,,,,,,,,,,,,,,,,,,,,,,,,,,,,,,,,,,,,,,,,,,,,,,,,,,34.38601517677307,34.40134334564209,36.392385959625244,,,,,,,,,,,,,,,,,,,,,,,,,,,,,,,,,,,,,,,,,,,,,,,,,,,,,,,,,,,,,,,,,,,,,,,,,,,,,,,,,,,,,,,,,,,,,,,,,,,,,,93,2,2025-02-24_13h18.19.695,comp,2024.2.4,55.191115321859044,2025-02-24 13h21.36.391811 -0500,
0,0,0,,,,,,,,,,,,,,,0,0,0,0,,,,,,,,,36.40942621231079,,,,,,,,,,,,,,,,,,,,,,,,,,36.39325666427612,36.40942621231079,36.40942621231079,37.89359402656555,43.033199310302734,space,5.114977598190308,None,43.033390283584595,43.050427198410034,43.050427198410034,44.54951214790344,60.568557262420654,space,16.01144552230835,None,60.56871008872986,60.59860396385193,60.59860396385193,60.59860396385193,60.59860396385193,60.59860396385193,60.59860396385193,60.59860396385193,60.59860396385193,60.59860396385193,62.06907367706299,70.70849418640137,space,8.635860919952393,None,70.70866274833679,70.72608971595764,70.72608971595764,70.72608971595764,72.22303032875061,78.90699529647827,space,6.6818766593933105,None,78.907151222229,78.92254710197449,78.92254710197449,80.42186641693115,82.61025905609131,space,2.186253786087036,None,82.61049962043762,82.62565040588379,82.62565040588379,84.39438438415527,space,1.766430377960205,None,,,,,,,,,,,,,,,,,,,,,,,,,,,,,,,,,,,,,,,,,,,,,,,93,2,2025-02-24_13h18.19.695,comp,2024.2.4,55.191115321859044,2025-02-24 13h21.36.391811 -0500,
0,0,0,filler_square,None,None,None,None,None,None,None,None,None,None,2,3.811034917831421,None,,,,,0,0,0,0,0,0,0,198,84.46918225288391,,,,,,,,,,,,,,,,,,,,,,,,,,,,,,,,,,,,,,,,,,,,,,,,,,,,,,,,,,,,,,,,,,,,,,,,,,,,,,,,,64.3408583910692,67.14499671452138,69.96881870874873,69.96881870874873,57.00811115638065,60.970152168337364,2.2,2.22,-165,278,0,-271,161,-283,84.45363163948059,84.45365738868713,84.45458245277405,84.46918225288391,84.6188178062439,84.6188178062439,84.6188178062439,84.6188178062439,84.6188178062439,84.6188178062439,84.6188178062439,88.29539346694946,2,3.811034917831421,None,,,,,,,,,,,,,,,,,,93,2,2025-02-24_13h18.19.695,comp,2024.2.4,55.191115321859044,2025-02-24 13h21.36.391811 -0500,
1,1,0,catch,None,None,None,None,None,None,None,None,None,None,1,1.9448506832122803,None,,,,,0,0,0,0,0,1,1,129,88.31123304367065,,,,,,,,,,,,,,,,,,,,,,,,,,,,,,,,,,,,,,,,,,,,,,,,,,,,,,,,,,,,,,,,,,,,,,,,,,,,,,,,,158,167,126,64,68,122,1.0,1.2,-212,-2,0,2,189,17,88.29723310470581,88.29730582237244,88.30089664459229,88.31123304367065,88.4597818851471,88.4597818851471,88.4597818851471,88.4597818851471,88.4597818851471,88.4597818851471,88.4597818851471,90.26936626434326,1,1.9448506832122803,None,,,,,,,,,,,,,,,,,,93,2,2025-02-24_13h18.19.695,comp,2024.2.4,55.191115321859044,2025-02-24 13h21.36.391811 -0500,
2,2,0,critical,whd,35.0,3.0,upper,125.0,200.0,200.0,125.0,127.0,127.0,1,3.016418218612671,None,,,,,0,0,0,0,0,2,2,87,90.28768110275269,,,,,,,,,,,,,,,,,,,,,,,,,,,,,,,,,,,,,,,,,,,,,,,,,,,,,,,,,,,,,,,,,,,,,,,,,,,,,,,,,125.0,200.0,200.0,125.0,127.0,127.0,3.0,3.2,-258,-261,0,11,222,267,90.27103281021118,90.27111268043518,90.2744460105896,90.28768110275269,90.42947936058044,90.42947936058044,90.42947936058044,90.42947936058044,90.42947936058044,90.42947936058044,90.42947936058044,93.31379556655884,1,3.016418218612671,None,,,,,,,,,,,,,,,,,,93,2,2025-02-24_13h18.19.695,comp,2024.2.4,55.191115321859044,2025-02-24 13h21.36.391811 -0500,
3,3,0,critical,hdw,20.0,1.0,lower,133.0,57.0,78.0,78.0,57.0,133.0,1,4.485917568206787,None,,,,,0,0,0,0,0,3,3,114,93.33086919784546,,,,,,,,,,,,,,,,,,,,,,,,,,,,,,,,,,,,,,,,,,,,,,,,,,,,,,,,,,,,,,,,,,,,,,,,,,,,,,,,,133.0,57.0,78.0,78.0,57.0,133.0,1.0,1.2,-164,-7,0,-12,202,8,93.31517124176025,93.31524682044983,93.31920266151428,93.33086919784546,93.48022627830505,93.48022627830505,93.48022627830505,93.48022627830505,93.48022627830505,93.48022627830505,93.48022627830505,97.83357119560242,1,4.485917568206787,None,,,,,,,,,,,,,,,,,,93,2,2025-02-24_13h18.19.695,comp,2024.2.4,55.191115321859044,2025-02-24 13h21.36.391811 -0500,
4,4,0,filler_square,None,None,None,None,None,None,None,None,None,None,3,2.4625985622406006,None,,,,,0,0,0,0,0,4,4,197,97.85000586509705,,,,,,,,,,,,,,,,,,,,,,,,,,,,,,,,,,,,,,,,,,,,,,,,,,,,,,,,,,,,,,,,,,,,,,,,,,,,,,,,,86.81579685393143,101.48716629940085,68.03548092657361,110.2501549944124,124.28495008414907,124.28495008414907,2.1,2.11,-202,254,0,254,213,-259,97.83563613891602,97.83571767807007,97.83957290649414,97.85000586509705,97.9961588382721,97.9961588382721,97.9961588382721,97.9961588382721,97.9961588382721,97.9961588382721,97.9961588382721,100.31859731674194,3,2.4625985622406006,None,,,,,,,,,,,,,,,,,,93,2,2025-02-24_13h18.19.695,comp,2024.2.4,55.191115321859044,2025-02-24 13h21.36.391811 -0500,
5,5,0,critical,dhw,35.0,4.0,upper,127.0,127.0,200.0,125.0,125.0,200.0,3,2.1458356380462646,None,,,,,0,0,0,0,0,5,5,53,100.33435559272766,,,,,,,,,,,,,,,,,,,,,,,,,,,,,,,,,,,,,,,,,,,,,,,,,,,,,,,,,,,,,,,,,,,,,,,,,,,,,,,,,127.0,127.0,200.0,125.0,125.0,200.0,4.0,4.1,-222,-268,0,-7,258,-274,100.320321559906,100.32040643692017,100.32361221313477,100.33435559272766,100.48181533813477,100.48181533813477,100.48181533813477,100.48181533813477,100.48181533813477,100.48181533813477,100.48181533813477,102.48406958580017,3,2.1458356380462646,None,,,,,,,,,,,,,,,,,,93,2,2025-02-24_13h18.19.695,comp,2024.2.4,55.191115321859044,2025-02-24 13h21.36.391811 -0500,
6,6,0,filler_square,None,None,None,None,None,None,None,None,None,None,2,1.8688464164733887,None,,,,,0,0,0,0,0,6,6,192,102.4999771118164,,,,,,,,,,,,,,,,,,,,,,,,,,,,,,,,,,,,,,,,,,,,,,,,,,,,,,,,,,,,,,,,,,,,,,,,,,,,,,,,,83.2221678425826,95.00306035823257,133.67073626400236,133.67073626400236,118.2832587971769,58.59725288014188,1.0,1.3,270,-262,480,-286,672,-264,102.48594498634338,102.4860451221466,102.4892590045929,102.4999771118164,102.64812421798706,102.64812421798706,102.64812421798706,102.64812421798706,102.64812421798706,102.64812421798706,102.64812421798706,104.37141251564026,2,1.8688464164733887,None,,,,,,,,,,,,,,,,,,93,2,2025-02-24_13h18.19.695,comp,2024.2.4,55.191115321859044,2025-02-24 13h21.36.391811 -0500,
7,7,0,critical,hwd,35.0,2.1,upper,200.0,125.0,125.0,200.0,127.0,127.0,1,2.6694839000701904,None,,,,,0,0,0,0,0,7,7,17,104.38755655288696,,,,,,,,,,,,,,,,,,,,,,,,,,,,,,,,,,,,,,,,,,,,,,,,,,,,,,,,,,,,,,,,,,,,,,,,,,,,,,,,,200.0,125.0,125.0,200.0,127.0,127.0,2.1,2.12,-258,-266,0,-252,260,277,104.37303590774536,104.37311244010925,104.37596559524536,104.38755655288696,104.53362083435059,104.53362083435059,104.53362083435059,104.53362083435059,104.53362083435059,104.53362083435059,104.53362083435059,107.06484317779541,1,2.6694839000701904,None,,,,,,,,,,,,,,,,,,93,2,2025-02-24_13h18.19.695,comp,2024.2.4,55.191115321859044,2025-02-24 13h21.36.391811 -0500,
8,8,0,filler_square,None,None,None,None,None,None,None,None,None,None,3,2.230316400527954,None,,,,,0,0,0,0,0,8,8,195,107.08256268501282,,,,,,,,,,,,,,,,,,,,,,,,,,,,,,,,,,,,,,,,,,,,,,,,,,,,,,,,,,,,,,,,,,,,,,,,,,,,,,,,,61.94060164410626,64.41404528172902,59.33118119520444,59.87777172137762,65.72699164256994,65.72699164256994,2.2,2.21,-158,-280,0,268,159,256,107.06673979759216,107.06686854362488,107.07017922401428,107.08256268501282,107.23670363426208,107.23670363426208,107.23670363426208,107.23670363426208,107.23670363426208,107.23670363426208,107.23670363426208,109.31894302368164,3,2.230316400527954,None,,,,,,,,,,,,,,,,,,93,2,2025-02-24_13h18.19.695,comp,2024.2.4,55.191115321859044,2025-02-24 13h21.36.391811 -0500,
9,9,0,filler_random,None,None,None,None,None,None,None,None,None,None,2,2.7209527492523193,None,,,,,0,0,0,0,0,9,9,166,109.33522462844849,,,,,,,,,,,,,,,,,,,,,,,,,,,,,,,,,,,,,,,,,,,,,,,,,,,,,,,,,,,,,,,,,,,,,,,,,,,,,,,,,114.68938548454112,65.6141491733694,152.6451787520665,140.92200841099913,100.17003902330465,157.5909848647048,3.0,3.1,-199,276,0,-4,245,-275,109.32085084915161,109.32093095779419,109.32425880432129,109.33522462844849,109.48813390731812,109.48813390731812,109.48813390731812,109.48813390731812,109.48813390731812,109.48813390731812,109.48813390731812,112.06863451004028,2,2.7209527492523193,None,,,,,,,,,,,,,,,,,,93,2,2025-02-24_13h18.19.695,comp,2024.2.4,55.191115321859044,2025-02-24 13h21.36.391811 -0500,
10,10,0,critical,dwh,35.0,4.0,upper,127.0,127.0,125.0,200.0,200.0,125.0,2,3.2217423915863037,None,,,,,0,0,0,0,0,10,10,65,112.09203839302063,,,,,,,,,,,,,,,,,,,,,,,,,,,,,,,,,,,,,,,,,,,,,,,,,,,,,,,,,,,,,,,,,,,,,,,,,,,,,,,,,127.0,127.0,125.0,200.0,200.0,125.0,4.0,4.2,-260,-1,0,-269,258,20,112.07014489173889,112.07021880149841,112.07343220710754,112.09203839302063,112.23599934577942,112.23599934577942,112.23599934577942,112.23599934577942,112.23599934577942,112.23599934577942,112.23599934577942,115.31975293159485,2,3.2217423915863037,None,,,,,,,,,,,,,,,,,,93,2,2025-02-24_13h18.19.695,comp,2024.2.4,55.191115321859044,2025-02-24 13h21.36.391811 -0500,
11,11,0,critical,hdw,20.0,1.0,upper,200.0,125.0,141.0,141.0,125.0,200.0,3,3.480872392654419,None,,,,,0,0,0,0,0,11,11,115,115.33615708351135,,,,,,,,,,,,,,,,,,,,,,,,,,,,,,,,,,,,,,,,,,,,,,,,,,,,,,,,,,,,,,,,,,,,,,,,,,,,,,,,,200.0,125.0,141.0,141.0,125.0,200.0,1.0,1.2,-229,6,0,5,266,-11,115.32123517990112,115.32134962081909,115.32450342178345,115.33615708351135,115.48791694641113,115.48791694641113,115.48791694641113,115.48791694641113,115.48791694641113,115.48791694641113,115.48791694641113,118.82203650474548,3,3.480872392654419,None,,,,,,,,,,,,,,,,,,93,2,2025-02-24_13h18.19.695,comp,2024.2.4,55.191115321859044,2025-02-24 13h21.36.391811 -0500,
12,12,0,filler_random,None,None,None,None,None,None,None,None,None,None,2,1.449927806854248,None,,,,,0,0,0,0,0,12,12,158,118.83835625648499,,,,,,,,,,,,,,,,,,,,,,,,,,,,,,,,,,,,,,,,,,,,,,,,,,,,,,,,,,,,,,,,,,,,,,,,,,,,,,,,,144.3022428069243,71.1842836932568,143.4948864043798,152.84229728747164,116.522791166256,105.41263930380339,2.2,2.22,-208,267,0,-267,225,-289,118.82390451431274,118.82401609420776,118.82743048667908,118.83835625648499,118.98535561561584,118.98535561561584,118.98535561561584,118.98535561561584,118.98535561561584,118.98535561561584,118.98535561561584,120.30735397338867,2,1.449927806854248,None,,,,,,,,,,,,,,,,,,93,2,2025-02-24_13h18.19.695,comp,2024.2.4,55.191115321859044,2025-02-24 13h21.36.391811 -0500,
13,13,0,critical,dwh,20.0,1.0,upper,141.0,141.0,125.0,200.0,200.0,125.0,2,2.101043462753296,None,,,,,0,0,0,0,0,13,13,67,120.32318806648254,,,,,,,,,,,,,,,,,,,,,,,,,,,,,,,,,,,,,,,,,,,,,,,,,,,,,,,,,,,,,,,,,,,,,,,,,,,,,,,,,141.0,141.0,125.0,200.0,200.0,125.0,1.0,1.2,-266,17,0,9,258,11,120.30899429321289,120.30907416343689,120.3129210472107,120.32318806648254,120.47234320640564,120.47234320640564,120.47234320640564,120.47234320640564,120.47234320640564,120.47234320640564,120.47234320640564,122.43933486938477,2,2.101043462753296,None,,,,,,,,,,,,,,,,,,93,2,2025-02-24_13h18.19.695,comp,2024.2.4,55.191115321859044,2025-02-24 13h21.36.391811 -0500,
14,14,0,filler_square,None,None,None,None,None,None,None,None,None,None,1,1.5618987083435059,None,,,,,0,0,0,0,0,14,14,206,122.45495009422302,,,,,,,,,,,,,,,,,,,,,,,,,,,,,,,,,,,,,,,,,,,,,,,,,,,,,,,,,,,,,,,,,,,,,,,,,,,,,,,,,164.84421021064077,164.84421021064077,59.34822721122206,80.22965621104485,97.55958964151975,134.60411462038493,1.0,1.3,261,-280,480,-252,683,-289,122.44114851951599,122.44122743606567,122.444491147995,122.45495009422302,122.60468983650208,122.60468983650208,122.60468983650208,122.60468983650208,122.60468983650208,122.60468983650208,122.60468983650208,124.02356100082397,1,1.5618987083435059,None,,,,,,,,,,,,,,,,,,93,2,2025-02-24_13h18.19.695,comp,2024.2.4,55.191115321859044,2025-02-24 13h21.36.391811 -0500,
15,15,0,critical,dwh,20.0,3.0,lower,78.0,78.0,57.0,133.0,133.0,57.0,2,1.7126550674438477,None,,,,,0,0,0,0,0,15,15,68,124.0397572517395,,,,,,,,,,,,,,,,,,,,,,,,,,,,,,,,,,,,,,,,,,,,,,,,,,,,,,,,,,,,,,,,,,,,,,,,,,,,,,,,,78.0,78.0,57.0,133.0,133.0,57.0,3.0,3.2,-202,-275,0,-1,191,253,124.02533173561096,124.0254135131836,124.02901434898376,124.0397572517395,124.18870162963867,124.18870162963867,124.18870162963867,124.18870162963867,124.18870162963867,124.18870162963867,124.18870162963867,125.75695633888245,2,1.7126550674438477,None,,,,,,,,,,,,,,,,,,93,2,2025-02-24_13h18.19.695,comp,2024.2.4,55.191115321859044,2025-02-24 13h21.36.391811 -0500,
16,16,0,filler_square,None,None,None,None,None,None,None,None,None,None,1,1.0188794136047363,None,,,,,0,0,0,0,0,16,16,205,125.77342939376831,,,,,,,,,,,,,,,,,,,,,,,,,,,,,,,,,,,,,,,,,,,,,,,,,,,,,,,,,,,,,,,,,,,,,,,,,,,,,,,,,194.1433278448293,194.1433278448293,76.48086548820274,67.88755137345684,166.6379335558522,63.020785030628005,2.2,2.22,-227,289,0,-282,161,-256,125.75873160362244,125.75880742073059,125.76280403137207,125.77342939376831,125.92314386367798,125.92314386367798,125.92314386367798,125.92314386367798,125.92314386367798,125.92314386367798,125.92314386367798,126.80708193778992,1,1.0188794136047363,None,,,,,,,,,,,,,,,,,,93,2,2025-02-24_13h18.19.695,comp,2024.2.4,55.191115321859044,2025-02-24 13h21.36.391811 -0500,
17,17,0,filler_random,None,None,None,None,None,None,None,None,None,None,1,1.640486478805542,None,,,,,0,0,0,0,0,17,17,160,126.82522368431091,,,,,,,,,,,,,,,,,,,,,,,,,,,,,,,,,,,,,,,,,,,,,,,,,,,,,,,,,,,,,,,,,,,,,,,,,,,,,,,,,138.87936332783823,155.85471697837926,184.48467134598215,94.89951957590199,109.38926023766872,73.1388296334151,3.0,3.2,-221,-274,0,-3,180,273,126.80891823768616,126.80904507637024,126.81239342689514,126.82522368431091,126.97605204582214,126.97605204582214,126.97605204582214,126.97605204582214,126.97605204582214,126.97605204582214,126.97605204582214,128.47233986854553,1,1.640486478805542,None,,,,,,,,,,,,,,,,,,93,2,2025-02-24_13h18.19.695,comp,2024.2.4,55.191115321859044,2025-02-24 13h21.36.391811 -0500,
18,18,0,filler_square,None,None,None,None,None,None,None,None,None,None,3,2.313143730163574,None,,,,,0,0,0,0,0,18,18,175,128.48840069770813,,,,,,,,,,,,,,,,,,,,,,,,,,,,,,,,,,,,,,,,,,,,,,,,,,,,,,,,,,,,,,,,,,,,,,,,,,,,,,,,,97.23639357201168,86.140494023141,57.701593401200945,101.23198447268433,135.69757509462778,135.69757509462778,3.0,3.2,-190,-275,0,8,214,251,128.47421956062317,128.47434329986572,128.47749018669128,128.48840069770813,128.6341781616211,128.6341781616211,128.6341781616211,128.6341781616211,128.6341781616211,128.6341781616211,128.6341781616211,130.80735850334167,3,2.313143730163574,None,,,,,,,,,,,,,,,,,,93,2,2025-02-24_13h18.19.695,comp,2024.2.4,55.191115321859044,2025-02-24 13h21.36.391811 -0500,
19,19,0,filler_square,None,None,None,None,None,None,None,None,None,None,1,1.6159448623657227,None,,,,,0,0,0,0,0,19,19,194,130.82435011863708,,,,,,,,,,,,,,,,,,,,,,,,,,,,,,,,,,,,,,,,,,,,,,,,,,,,,,,,,,,,,,,,,,,,,,,,,,,,,,,,,128.32500524664397,128.32500524664397,76.07246370708381,86.49472950653018,120.34157713732154,112.45775815551497,3.0,3.2,-203,-259,0,14,195,257,130.80931878089905,130.80941081047058,130.8126664161682,130.82435011863708,130.96406507492065,130.96406507492065,130.96406507492065,130.96406507492065,130.96406507492065,130.96406507492065,130.96406507492065,132.46047592163086,1,1.6159448623657227,None,,,,,,,,,,,,,,,,,,93,2,2025-02-24_13h18.19.695,comp,2024.2.4,55.191115321859044,2025-02-24 13h21.36.391811 -0500,
20,20,0,critical,dhw,20.0,1.0,upper,141.0,141.0,200.0,125.0,125.0,200.0,3,1.7488441467285156,None,,,,,0,0,0,0,0,20,20,55,132.4760308265686,,,,,,,,,,,,,,,,,,,,,,,,,,,,,,,,,,,,,,,,,,,,,,,,,,,,,,,,,,,,,,,,,,,,,,,,,,,,,,,,,141.0,141.0,200.0,125.0,125.0,200.0,1.0,1.1,-709,280,-480,289,-222,267,132.4621226787567,132.4621958732605,132.46546339988708,132.4760308265686,132.62490463256836,132.62490463256836,132.62490463256836,132.62490463256836,132.62490463256836,132.62490463256836,132.62490463256836,134.23499083518982,3,1.7488441467285156,None,,,,,,,,,,,,,,,,,,93,2,2025-02-24_13h18.19.695,comp,2024.2.4,55.191115321859044,2025-02-24 13h21.36.391811 -0500,
21,21,0,filler_random,None,None,None,None,None,None,None,None,None,None,2,2.04948091506958,None,,,,,0,0,0,0,0,21,21,139,134.25526213645935,,,,,,,,,,,,,,,,,,,,,,,,,,,,,,,,,,,,,,,,,,,,,,,,,,,,,,,,,,,,,,,,,,,,,,,,,,,,,,,,,135.93271955137755,144.7182772755561,115.09832795499321,188.764191451492,72.70278451264406,116.48988252307586,2.2,2.22,-263,260,0,-251,249,-268,134.23674774169922,134.23682594299316,134.23970746994019,134.25526213645935,134.3934862613678,134.3934862613678,134.3934862613678,134.3934862613678,134.3934862613678,134.3934862613678,134.3934862613678,136.3093056678772,2,2.04948091506958,None,,,,,,,,,,,,,,,,,,93,2,2025-02-24_13h18.19.695,comp,2024.2.4,55.191115321859044,2025-02-24 13h21.36.391811 -0500,
22,22,0,critical,dhw,35.0,2.1,upper,127.0,127.0,200.0,125.0,125.0,200.0,3,2.2207159996032715,None,,,,,0,0,0,0,0,22,22,25,136.33152866363525,,,,,,,,,,,,,,,,,,,,,,,,,,,,,,,,,,,,,,,,,,,,,,,,,,,,,,,,,,,,,,,,,,,,,,,,,,,,,,,,,127.0,127.0,200.0,125.0,125.0,200.0,2.1,2.11,-222,287,0,276,258,-271,136.3108835220337,136.3109610080719,136.314040184021,136.33152866363525,136.47823858261108,136.47823858261108,136.47823858261108,136.47823858261108,136.47823858261108,136.47823858261108,136.47823858261108,138.57069063186646,3,2.2207159996032715,None,,,,,,,,,,,,,,,,,,93,2,2025-02-24_13h18.19.695,comp,2024.2.4,55.191115321859044,2025-02-24 13h21.36.391811 -0500,
23,23,0,critical,whd,35.0,2.1,lower,57.0,133.0,133.0,57.0,70.0,70.0,1,3.994077205657959,None,,,,,0,0,0,0,0,23,23,12,138.59038424491882,,,,,,,,,,,,,,,,,,,,,,,,,,,,,,,,,,,,,,,,,,,,,,,,,,,,,,,,,,,,,,,,,,,,,,,,,,,,,,,,,57.0,133.0,133.0,57.0,70.0,70.0,2.1,2.12,-191,-271,0,-269,160,266,138.5721561908722,138.5722417831421,138.57512164115906,138.59038424491882,138.72886419296265,138.72886419296265,138.72886419296265,138.72886419296265,138.72886419296265,138.72886419296265,138.72886419296265,142.59558081626892,1,3.994077205657959,None,,,,,,,,,,,,,,,,,,93,2,2025-02-24_13h18.19.695,comp,2024.2.4,55.191115321859044,2025-02-24 13h21.36.391811 -0500,
24,24,0,critical,wdh,20.0,4.0,upper,125.0,200.0,141.0,141.0,200.0,125.0,1,3.608644723892212,None,,,,,0,0,0,0,0,24,24,83,142.61599707603455,,,,,,,,,,,,,,,,,,,,,,,,,,,,,,,,,,,,,,,,,,,,,,,,,,,,,,,,,,,,,,,,,,,,,,,,,,,,,,,,,125.0,200.0,141.0,141.0,200.0,125.0,4.0,4.1,-266,-258,0,-18,229,-274,142.59711241722107,142.59718990325928,142.60022926330566,142.61599707603455,142.7624077796936,142.7624077796936,142.7624077796936,142.7624077796936,142.7624077796936,142.7624077796936,142.7624077796936,146.23147773742676,1,3.608644723892212,None,,,,,,,,,,,,,,,,,,93,2,2025-02-24_13h18.19.695,comp,2024.2.4,55.191115321859044,2025-02-24 13h21.36.391811 -0500,
25,25,0,critical,whd,35.0,2.1,upper,125.0,200.0,200.0,125.0,127.0,127.0,1,2.2331759929656982,None,,,,,0,0,0,0,0,25,25,37,146.2475152015686,,,,,,,,,,,,,,,,,,,,,,,,,,,,,,,,,,,,,,,,,,,,,,,,,,,,,,,,,,,,,,,,,,,,,,,,,,,,,,,,,125.0,200.0,200.0,125.0,127.0,127.0,2.1,2.12,-258,-290,0,-290,222,263,146.23310327529907,146.23321342468262,146.2367022037506,146.2475152015686,146.39541745185852,146.39541745185852,146.39541745185852,146.39541745185852,146.39541745185852,146.39541745185852,146.39541745185852,148.48297238349915,1,2.2331759929656982,None,,,,,,,,,,,,,,,,,,93,2,2025-02-24_13h18.19.695,comp,2024.2.4,55.191115321859044,2025-02-24 13h21.36.391811 -0500,
26,26,0,critical,hwd,35.0,3.0,lower,133.0,57.0,57.0,133.0,70.0,70.0,2,1.6778695583343506,None,,,,,0,0,0,0,0,26,26,98,148.4988512992859,,,,,,,,,,,,,,,,,,,,,,,,,,,,,,,,,,,,,,,,,,,,,,,,,,,,,,,,,,,,,,,,,,,,,,,,,,,,,,,,,133.0,57.0,57.0,133.0,70.0,70.0,3.0,3.2,-191,-283,0,19,198,268,148.48462319374084,148.48470258712769,148.48801827430725,148.4988512992859,148.6477553844452,148.6477553844452,148.6477553844452,148.6477553844452,148.6477553844452,148.6477553844452,148.6477553844452,150.18152022361755,2,1.6778695583343506,None,,,,,,,,,,,,,,,,,,93,2,2025-02-24_13h18.19.695,comp,2024.2.4,55.191115321859044,2025-02-24 13h21.36.391811 -0500,
27,27,0,filler_square,None,None,None,None,None,None,None,None,None,None,3,4.368624210357666,None,,,,,0,0,0,0,0,27,27,187,150.19986271858215,,,,,,,,,,,,,,,,,,,,,,,,,,,,,,,,,,,,,,,,,,,,,,,,,,,,,,,,,,,,,,,,,,,,,,,,,,,,,,,,,86.14359825570143,69.84616875969903,90.58209944338856,90.58209944338856,89.25395032385296,79.24713059487696,3.0,3.1,-176,253,0,19,181,-275,150.183434009552,150.18351340293884,150.1868395805359,150.19986271858215,150.3481249809265,150.3481249809265,150.3481249809265,150.3481249809265,150.3481249809265,150.3481249809265,150.3481249809265,154.5715081691742,3,4.368624210357666,None,,,,,,,,,,,,,,,,,,93,2,2025-02-24_13h18.19.695,comp,2024.2.4,55.191115321859044,2025-02-24 13h21.36.391811 -0500,
28,28,0,critical,hdw,35.0,4.0,lower,133.0,57.0,70.0,70.0,57.0,133.0,3,2.7441506385803223,None,,,,,0,0,0,0,0,28,28,112,154.592200756073,,,,,,,,,,,,,,,,,,,,,,,,,,,,,,,,,,,,,,,,,,,,,,,,,,,,,,,,,,,,,,,,,,,,,,,,,,,,,,,,,133.0,57.0,70.0,70.0,57.0,133.0,4.0,4.2,-160,5,0,-255,198,-18,154.57304692268372,154.57312154769897,154.57639527320862,154.592200756073,154.73265600204468,154.73265600204468,154.73265600204468,154.73265600204468,154.73265600204468,154.73265600204468,154.73265600204468,157.3504068851471,3,2.7441506385803223,None,,,,,,,,,,,,,,,,,,93,2,2025-02-24_13h18.19.695,comp,2024.2.4,55.191115321859044,2025-02-24 13h21.36.391811 -0500,
29,29,0,critical,dhw,20.0,2.1,upper,141.0,141.0,200.0,125.0,125.0,200.0,3,3.2824277877807617,None,,,,,0,0,0,0,0,29,29,27,157.36600995063782,,,,,,,,,,,,,,,,,,,,,,,,,,,,,,,,,,,,,,,,,,,,,,,,,,,,,,,,,,,,,,,,,,,,,,,,,,,,,,,,,141.0,141.0,200.0,125.0,125.0,200.0,2.1,2.11,-229,264,0,276,258,-256,157.35208439826965,157.35222029685974,157.3555564880371,157.36600995063782,157.5154049396515,157.5154049396515,157.5154049396515,157.5154049396515,157.5154049396515,157.5154049396515,157.5154049396515,160.65242075920105,3,3.2824277877807617,None,,,,,,,,,,,,,,,,,,93,2,2025-02-24_13h18.19.695,comp,2024.2.4,55.191115321859044,2025-02-24 13h21.36.391811 -0500,
30,30,0,critical,whd,20.0,4.0,lower,57.0,133.0,133.0,57.0,78.0,78.0,1,3.726810932159424,None,,,,,0,0,0,0,0,30,30,94,160.66673350334167,,,,,,,,,,,,,,,,,,,,,,,,,,,,,,,,,,,,,,,,,,,,,,,,,,,,,,,,,,,,,,,,,,,,,,,,,,,,,,,,,57.0,133.0,133.0,57.0,78.0,78.0,4.0,4.1,-191,-285,0,-17,164,-260,160.6539123058319,160.65398907661438,160.6570918560028,160.66673350334167,160.81423497200012,160.81423497200012,160.81423497200012,160.81423497200012,160.81423497200012,160.81423497200012,160.81423497200012,164.4043653011322,1,3.726810932159424,None,,,,,,,,,,,,,,,,,,93,2,2025-02-24_13h18.19.695,comp,2024.2.4,55.191115321859044,2025-02-24 13h21.36.391811 -0500,
31,31,0,filler_square,None,None,None,None,None,None,None,None,None,None,1,1.3320841789245605,None,,,,,0,0,0,0,0,31,31,184,164.42075967788696,,,,,,,,,,,,,,,,,,,,,,,,,,,,,,,,,,,,,,,,,,,,,,,,,,,,,,,,,,,,,,,,,,,,,,,,,,,,,,,,,157.07863374166283,157.07863374166283,91.62875119326343,61.303066801323936,130.02289539326182,89.95896434025519,3.0,3.1,-205,275,0,9,172,-262,164.40638899803162,164.4064700603485,164.40986680984497,164.42075967788696,164.55934810638428,164.55934810638428,164.55934810638428,164.55934810638428,164.55934810638428,164.55934810638428,164.55934810638428,165.75708532333374,1,1.3320841789245605,None,,,,,,,,,,,,,,,,,,93,2,2025-02-24_13h18.19.695,comp,2024.2.4,55.191115321859044,2025-02-24 13h21.36.391811 -0500,
32,32,0,critical,whd,20.0,1.0,lower,57.0,133.0,133.0,57.0,78.0,78.0,2,1.4747653007507324,None,,,,,0,0,0,0,0,32,32,90,165.77387261390686,,,,,,,,,,,,,,,,,,,,,,,,,,,,,,,,,,,,,,,,,,,,,,,,,,,,,,,,,,,,,,,,,,,,,,,,,,,,,,,,,57.0,133.0,133.0,57.0,78.0,78.0,1.0,1.1,-671,262,-480,255,-316,267,165.75877857208252,165.75885772705078,165.761736869812,165.77387261390686,165.91895389556885,165.91895389556885,165.91895389556885,165.91895389556885,165.91895389556885,165.91895389556885,165.91895389556885,167.25250148773193,2,1.4747653007507324,None,,,,,,,,,,,,,,,,,,93,2,2025-02-24_13h18.19.695,comp,2024.2.4,55.191115321859044,2025-02-24 13h21.36.391811 -0500,
33,33,0,filler_square,None,None,None,None,None,None,None,None,None,None,1,1.9552834033966064,None,,,,,0,0,0,0,0,33,33,207,167.26897048950195,,,,,,,,,,,,,,,,,,,,,,,,,,,,,,,,,,,,,,,,,,,,,,,,,,,,,,,,,,,,,,,,,,,,,,,,,,,,,,,,,136.36168366625344,136.36168366625344,76.69587242328389,62.29287159443992,131.57180798497353,66.94640681501379,3.0,3.1,-195,254,0,-13,161,-281,167.25429463386536,167.2543773651123,167.2574281692505,167.26897048950195,167.4268023967743,167.4268023967743,167.4268023967743,167.4268023967743,167.4268023967743,167.4268023967743,167.4268023967743,169.2375361919403,1,1.9552834033966064,None,,,,,,,,,,,,,,,,,,93,2,2025-02-24_13h18.19.695,comp,2024.2.4,55.191115321859044,2025-02-24 13h21.36.391811 -0500,
34,34,0,critical,whd,35.0,2.1,lower,57.0,133.0,133.0,57.0,70.0,70.0,1,2.5667128562927246,None,,,,,0,0,0,0,0,34,34,36,169.2584888935089,,,,,,,,,,,,,,,,,,,,,,,,,,,,,,,,,,,,,,,,,,,,,,,,,,,,,,,,,,,,,,,,,,,,,,,,,,,,,,,,,57.0,133.0,133.0,57.0,70.0,70.0,2.1,2.12,-191,-254,0,-255,160,258,169.23921132087708,169.23937582969666,169.24262380599976,169.2584888935089,169.4039490222931,169.4039490222931,169.4039490222931,169.4039490222931,169.4039490222931,169.4039490222931,169.4039490222931,171.82894110679626,1,2.5667128562927246,None,,,,,,,,,,,,,,,,,,93,2,2025-02-24_13h18.19.695,comp,2024.2.4,55.191115321859044,2025-02-24 13h21.36.391811 -0500,
35,35,0,filler_random,None,None,None,None,None,None,None,None,None,None,1,2.75616192817688,None,,,,,0,0,0,0,0,35,35,137,171.8451108932495,,,,,,,,,,,,,,,,,,,,,,,,,,,,,,,,,,,,,,,,,,,,,,,,,,,,,,,,,,,,,,,,,,,,,,,,,,,,,,,,,153.35257914908163,100.56494730502587,86.4403353322079,62.19214346971805,118.56371402899184,108.04348286376899,3.0,3.2,-177,-264,0,-20,181,269,171.8307502269745,171.83088541030884,171.83407545089722,171.8451108932495,171.98597049713135,171.98597049713135,171.98597049713135,171.98597049713135,171.98597049713135,171.98597049713135,171.98597049713135,174.60611057281494,1,2.75616192817688,None,,,,,,,,,,,,,,,,,,93,2,2025-02-24_13h18.19.695,comp,2024.2.4,55.191115321859044,2025-02-24 13h21.36.391811 -0500,
36,36,0,critical,hwd,20.0,3.0,upper,200.0,125.0,125.0,200.0,141.0,141.0,1,2.6014795303344727,None,,,,,0,0,0,0,0,36,36,105,174.62277221679688,,,,,,,,,,,,,,,,,,,,,,,,,,,,,,,,,,,,,,,,,,,,,,,,,,,,,,,,,,,,,,,,,,,,,,,,,,,,,,,,,200.0,125.0,125.0,200.0,141.0,141.0,3.0,3.2,-258,-270,0,-11,266,262,174.60773181915283,174.60782504081726,174.61200332641602,174.62277221679688,174.77212071418762,174.77212071418762,174.77212071418762,174.77212071418762,174.77212071418762,174.77212071418762,174.77212071418762,177.23516631126404,1,2.6014795303344727,None,,,,,,,,,,,,,,,,,,93,2,2025-02-24_13h18.19.695,comp,2024.2.4,55.191115321859044,2025-02-24 13h21.36.391811 -0500,
37,37,0,filler_square,None,None,None,None,None,None,None,None,None,None,3,1.7175416946411133,None,,,,,0,0,0,0,0,37,37,185,177.25151133537292,,,,,,,,,,,,,,,,,,,,,,,,,,,,,,,,,,,,,,,,,,,,,,,,,,,,,,,,,,,,,,,,,,,,,,,,,,,,,,,,,64.89051856611584,92.0958644887906,73.6071435280947,79.21048651733807,139.143180480362,139.143180480362,4.0,4.2,-182,2,0,-277,205,-9,177.23696064949036,177.2370409965515,177.24000883102417,177.25151133537292,177.38977694511414,177.38977694511414,177.38977694511414,177.38977694511414,177.38977694511414,177.38977694511414,177.38977694511414,178.9766185283661,3,1.7175416946411133,None,,,,,,,,,,,,,,,,,,93,2,2025-02-24_13h18.19.695,comp,2024.2.4,55.191115321859044,2025-02-24 13h21.36.391811 -0500,
38,38,0,filler_square,None,None,None,None,None,None,None,None,None,None,2,1.9036245346069336,None,,,,,0,0,0,0,0,38,38,200,178.99275088310242,,,,,,,,,,,,,,,,,,,,,,,,,,,,,,,,,,,,,,,,,,,,,,,,,,,,,,,,,,,,,,,,,,,,,,,,,,,,,,,,,59.546480360775604,83.6544595253568,98.654718954944,98.654718954944,86.35565902227762,95.9651616441688,4.0,4.2,-187,13,0,-252,193,-9,178.97880911827087,178.97890782356262,178.9820282459259,178.99275088310242,179.13127326965332,179.13127326965332,179.13127326965332,179.13127326965332,179.13127326965332,179.13127326965332,179.13127326965332,180.9079294204712,2,1.9036245346069336,None,,,,,,,,,,,,,,,,,,93,2,2025-02-24_13h18.19.695,comp,2024.2.4,55.191115321859044,2025-02-24 13h21.36.391811 -0500,
39,39,0,critical,dhw,20.0,3.0,lower,78.0,78.0,133.0,57.0,57.0,133.0,2,3.316976547241211,None,,,,,0,0,0,0,0,39,39,56,180.92337036132812,,,,,,,,,,,,,,,,,,,,,,,,,,,,,,,,,,,,,,,,,,,,,,,,,,,,,,,,,,,,,,,,,,,,,,,,,,,,,,,,,78.0,78.0,133.0,57.0,57.0,133.0,3.0,3.1,-164,265,0,-11,191,-285,180.90957856178284,180.90966081619263,180.91312956809998,180.92337036132812,181.07262444496155,181.07262444496155,181.07262444496155,181.07262444496155,181.07262444496155,181.07262444496155,181.07262444496155,184.25478315353394,2,3.316976547241211,None,,,,,,,,,,,,,,,,,,93,2,2025-02-24_13h18.19.695,comp,2024.2.4,55.191115321859044,2025-02-24 13h21.36.391811 -0500,
40,40,0,critical,hwd,35.0,2.1,lower,133.0,57.0,57.0,133.0,70.0,70.0,1,3.2178940773010254,None,,,,,0,0,0,0,0,40,40,40,184.2704815864563,,,,,,,,,,,,,,,,,,,,,,,,,,,,,,,,,,,,,,,,,,,,,,,,,,,,,,,,,,,,,,,,,,,,,,,,,,,,,,,,,133.0,57.0,57.0,133.0,70.0,70.0,2.1,2.12,-191,-277,0,-281,198,279,184.2563076019287,184.25638508796692,184.25924015045166,184.2704815864563,184.42181611061096,184.42181611061096,184.42181611061096,184.42181611061096,184.42181611061096,184.42181611061096,184.42181611061096,187.50250911712646,1,3.2178940773010254,None,,,,,,,,,,,,,,,,,,93,2,2025-02-24_13h18.19.695,comp,2024.2.4,55.191115321859044,2025-02-24 13h21.36.391811 -0500,
41,41,0,filler_random,None,None,None,None,None,None,None,None,None,None,2,3.8672475814819336,None,,,,,0,0,0,0,0,41,41,154,187.51836609840393,,,,,,,,,,,,,,,,,,,,,,,,,,,,,,,,,,,,,,,,,,,,,,,,,,,,,,,,,,,,,,,,,,,,,,,,,,,,,,,,,183.36789312089897,61.50043484156021,124.748360313457,88.70464757557897,81.49928603809677,73.85388816126661,1.0,1.1,-651,271,-480,250,-303,252,187.50417017936707,187.50425004959106,187.5071098804474,187.51836609840393,187.65771293640137,187.65771293640137,187.65771293640137,187.65771293640137,187.65771293640137,187.65771293640137,187.65771293640137,191.39343452453613,2,3.8672475814819336,None,,,,,,,,,,,,,,,,,,93,2,2025-02-24_13h18.19.695,comp,2024.2.4,55.191115321859044,2025-02-24 13h21.36.391811 -0500,
42,42,0,filler_square,None,None,None,None,None,None,None,None,None,None,2,1.6846044063568115,None,,,,,0,0,0,0,0,42,42,191,191.41169142723083,,,,,,,,,,,,,,,,,,,,,,,,,,,,,,,,,,,,,,,,,,,,,,,,,,,,,,,,,,,,,,,,,,,,,,,,,,,,,,,,,110.54705077627236,115.47493696659791,180.63513768081626,180.63513768081626,168.42660992837455,78.01885526257877,2.2,2.22,-244,263,0,-270,225,-264,191.3954725265503,191.39555478096008,191.39884972572327,191.41169142723083,191.56112408638,191.56112408638,191.56112408638,191.56112408638,191.56112408638,191.56112408638,191.56112408638,193.111341714859,2,1.6846044063568115,None,,,,,,,,,,,,,,,,,,93,2,2025-02-24_13h18.19.695,comp,2024.2.4,55.191115321859044,2025-02-24 13h21.36.391811 -0500,
43,43,0,filler_square,None,None,None,None,None,None,None,None,None,None,3,1.6307110786437988,None,,,,,0,0,0,0,0,43,43,209,193.12572622299194,,,,,,,,,,,,,,,,,,,,,,,,,,,,,,,,,,,,,,,,,,,,,,,,,,,,,,,,,,,,,,,,,,,,,,,,,,,,,,,,,60.47829406613989,131.34207915254842,125.8476131335136,144.23393565619847,153.34810612012802,153.34810612012802,2.1,2.11,-234,258,0,251,245,-285,193.11331057548523,193.11339950561523,193.1166431903839,193.12572622299194,193.26660203933716,193.26660203933716,193.26660203933716,193.26660203933716,193.26660203933716,193.26660203933716,193.26660203933716,194.76289749145508,3,1.6307110786437988,None,,,,,,,,,,,,,,,,,,93,2,2025-02-24_13h18.19.695,comp,2024.2.4,55.191115321859044,2025-02-24 13h21.36.391811 -0500,
44,44,0,critical,hwd,20.0,2.1,upper,200.0,125.0,125.0,200.0,141.0,141.0,2,2.357459783554077,None,,,,,0,0,0,0,0,44,44,19,194.7788987159729,,,,,,,,,,,,,,,,,,,,,,,,,,,,,,,,,,,,,,,,,,,,,,,,,,,,,,,,,,,,,,,,,,,,,,,,,,,,,,,,,200.0,125.0,125.0,200.0,141.0,141.0,2.1,2.12,-258,-262,0,-265,266,285,194.76454734802246,194.76462841033936,194.7681496143341,194.7788987159729,194.92927408218384,194.92927408218384,194.92927408218384,194.92927408218384,194.92927408218384,194.92927408218384,194.92927408218384,197.14685821533203,2,2.357459783554077,None,,,,,,,,,,,,,,,,,,93,2,2025-02-24_13h18.19.695,comp,2024.2.4,55.191115321859044,2025-02-24 13h21.36.391811 -0500,
45,45,0,filler_random,None,None,None,None,None,None,None,None,None,None,2,1.9654924869537354,None,,,,,0,0,0,0,0,45,45,165,197.162855386734,,,,,,,,,,,,,,,,,,,,,,,,,,,,,,,,,,,,,,,,,,,,,,,,,,,,,,,,,,,,,,,,,,,,,,,,,,,,,,,,,83.2216159837206,92.84281506890557,174.26036324408562,161.33453988631732,127.07994898291817,192.6812313252009,4.0,4.1,-223,-281,0,-13,273,-255,197.14858388900757,197.14866399765015,197.15179777145386,197.162855386734,197.3167097568512,197.3167097568512,197.3167097568512,197.3167097568512,197.3167097568512,197.3167097568512,197.3167097568512,199.1452226638794,2,1.9654924869537354,None,,,,,,,,,,,,,,,,,,93,2,2025-02-24_13h18.19.695,comp,2024.2.4,55.191115321859044,2025-02-24 13h21.36.391811 -0500,
46,46,0,critical,whd,20.0,2.1,upper,125.0,200.0,200.0,125.0,141.0,141.0,2,1.9515368938446045,None,,,,,0,0,0,0,0,46,46,15,199.16095495224,,,,,,,,,,,,,,,,,,,,,,,,,,,,,,,,,,,,,,,,,,,,,,,,,,,,,,,,,,,,,,,,,,,,,,,,,,,,,,,,,125.0,200.0,200.0,125.0,141.0,141.0,2.1,2.12,-258,-273,0,-265,229,269,199.14679431915283,199.1468665599823,199.14979100227356,199.16095495224,199.30951523780823,199.30951523780823,199.30951523780823,199.30951523780823,199.30951523780823,199.30951523780823,199.30951523780823,201.1147382259369,2,1.9515368938446045,None,,,,,,,,,,,,,,,,,,93,2,2025-02-24_13h18.19.695,comp,2024.2.4,55.191115321859044,2025-02-24 13h21.36.391811 -0500,
47,47,0,critical,hdw,35.0,4.0,upper,200.0,125.0,127.0,127.0,125.0,200.0,1,1.6124749183654785,None,,,,,0,0,0,0,0,47,47,113,201.13248252868652,,,,,,,,,,,,,,,,,,,,,,,,,,,,,,,,,,,,,,,,,,,,,,,,,,,,,,,,,,,,,,,,,,,,,,,,,,,,,,,,,200.0,125.0,127.0,127.0,125.0,200.0,4.0,4.1,-222,-274,0,-19,260,-269,201.11625003814697,201.11637139320374,201.11957049369812,201.13248252868652,201.27767968177795,201.27767968177795,201.27767968177795,201.27767968177795,201.27767968177795,201.27767968177795,201.27767968177795,202.75242018699646,1,1.6124749183654785,None,,,,,,,,,,,,,,,,,,93,2,2025-02-24_13h18.19.695,comp,2024.2.4,55.191115321859044,2025-02-24 13h21.36.391811 -0500,
48,48,0,critical,dwh,20.0,4.0,lower,78.0,78.0,57.0,133.0,133.0,57.0,2,1.645857810974121,None,,,,,0,0,0,0,0,48,48,70,202.770690202713,,,,,,,,,,,,,,,,,,,,,,,,,,,,,,,,,,,,,,,,,,,,,,,,,,,,,,,,,,,,,,,,,,,,,,,,,,,,,,,,,78.0,78.0,57.0,133.0,133.0,57.0,4.0,4.1,-202,-259,0,12,191,-283,202.75399136543274,202.7540683746338,202.75747084617615,202.770690202713,202.91504740715027,202.91504740715027,202.91504740715027,202.91504740715027,202.91504740715027,202.91504740715027,202.91504740715027,204.43176651000977,2,1.645857810974121,None,,,,,,,,,,,,,,,,,,93,2,2025-02-24_13h18.19.695,comp,2024.2.4,55.191115321859044,2025-02-24 13h21.36.391811 -0500,
49,49,0,critical,wdh,20.0,1.0,lower,57.0,133.0,78.0,78.0,133.0,57.0,3,2.48136305809021,None,,,,,0,0,0,0,0,49,49,78,204.44760656356812,,,,,,,,,,,,,,,,,,,,,,,,,,,,,,,,,,,,,,,,,,,,,,,,,,,,,,,,,,,,,,,,,,,,,,,,,,,,,,,,,57.0,133.0,78.0,78.0,133.0,57.0,1.0,1.3,278,-285,480,-253,644,-270,204.43330693244934,204.4333851337433,204.43736958503723,204.44760656356812,204.59869289398193,204.59869289398193,204.59869289398193,204.59869289398193,204.59869289398193,204.59869289398193,204.59869289398193,206.9341983795166,3,2.48136305809021,None,,,,,,,,,,,,,,,,,,93,2,2025-02-24_13h18.19.695,comp,2024.2.4,55.191115321859044,2025-02-24 13h21.36.391811 -0500,
50,50,0,critical,dwh,35.0,2.1,lower,70.0,70.0,57.0,133.0,133.0,57.0,2,1.7059457302093506,None,,,,,0,0,0,0,0,50,50,28,206.95044922828674,,,,,,,,,,,,,,,,,,,,,,,,,,,,,,,,,,,,,,,,,,,,,,,,,,,,,,,,,,,,,,,,,,,,,,,,,,,,,,,,,70.0,70.0,57.0,133.0,133.0,57.0,2.1,2.11,-198,262,0,275,191,-262,206.93591594696045,206.9360294342041,206.93953800201416,206.95044922828674,207.1003761291504,207.1003761291504,207.1003761291504,207.1003761291504,207.1003761291504,207.1003761291504,207.1003761291504,208.6687502861023,2,1.7059457302093506,None,,,,,,,,,,,,,,,,,,93,2,2025-02-24_13h18.19.695,comp,2024.2.4,55.191115321859044,2025-02-24 13h21.36.391811 -0500,
51,51,0,critical,dhw,35.0,3.0,lower,70.0,70.0,133.0,57.0,57.0,133.0,2,1.7932243347167969,None,,,,,0,0,0,0,0,51,51,50,208.6873984336853,,,,,,,,,,,,,,,,,,,,,,,,,,,,,,,,,,,,,,,,,,,,,,,,,,,,,,,,,,,,,,,,,,,,,,,,,,,,,,,,,70.0,70.0,133.0,57.0,57.0,133.0,3.0,3.1,-160,258,0,-5,191,-253,208.67046403884888,208.67058110237122,208.67406129837036,208.6873984336853,208.84219598770142,208.84219598770142,208.84219598770142,208.84219598770142,208.84219598770142,208.84219598770142,208.84219598770142,210.4998037815094,2,1.7932243347167969,None,,,,,,,,,,,,,,,,,,93,2,2025-02-24_13h18.19.695,comp,2024.2.4,55.191115321859044,2025-02-24 13h21.36.391811 -0500,
52,52,0,filler_random,None,None,None,None,None,None,None,None,None,None,3,1.6928889751434326,None,,,,,0,0,0,0,0,52,52,164,210.51541376113892,,,,,,,,,,,,,,,,,,,,,,,,,,,,,,,,,,,,,,,,,,,,,,,,,,,,,,,,,,,,,,,,,,,,,,,,,,,,,,,,,95.46071178136052,197.82562025393491,100.41741095471764,148.3120405634868,181.77272368470148,154.5207039660726,4.0,4.1,-269,-269,0,-18,247,-264,210.5017421245575,210.50182008743286,210.50501608848572,210.51541376113892,210.65348291397095,210.65348291397095,210.65348291397095,210.65348291397095,210.65348291397095,210.65348291397095,210.65348291397095,212.22384214401245,3,1.6928889751434326,None,,,,,,,,,,,,,,,,,,93,2,2025-02-24_13h18.19.695,comp,2024.2.4,55.191115321859044,2025-02-24 13h21.36.391811 -0500,
53,53,0,catch,None,None,None,None,None,None,None,None,None,None,2,1.3191206455230713,None,,,,,0,0,0,0,0,53,53,125,212.24212002754211,,,,,,,,,,,,,,,,,,,,,,,,,,,,,,,,,,,,,,,,,,,,,,,,,,,,,,,,,,,,,,,,,,,,,,,,,,,,,,,,,82,108,131,194,105,85,2.2,2.21,-247,-259,0,273,236,265,212.22601127624512,212.226087808609,212.2293336391449,212.24212002754211,212.38460040092468,212.38460040092468,212.38460040092468,212.38460040092468,212.38460040092468,212.38460040092468,212.38460040092468,213.5693700313568,2,1.3191206455230713,None,,,,,,,,,,,,,,,,,,93,2,2025-02-24_13h18.19.695,comp,2024.2.4,55.191115321859044,2025-02-24 13h21.36.391811 -0500,
54,54,0,critical,dwh,20.0,2.1,lower,78.0,78.0,57.0,133.0,133.0,57.0,2,2.766432762145996,None,,,,,0,0,0,0,0,54,54,6,213.58598709106445,,,,,,,,,,,,,,,,,,,,,,,,,,,,,,,,,,,,,,,,,,,,,,,,,,,,,,,,,,,,,,,,,,,,,,,,,,,,,,,,,78.0,78.0,57.0,133.0,133.0,57.0,2.1,2.12,-202,-251,0,-257,191,264,213.57126307487488,213.57142090797424,213.57531929016113,213.58598709106445,213.7413284778595,213.7413284778595,213.7413284778595,213.7413284778595,213.7413284778595,213.7413284778595,213.7413284778595,216.3692445755005,2,2.766432762145996,None,,,,,,,,,,,,,,,,,,93,2,2025-02-24_13h18.19.695,comp,2024.2.4,55.191115321859044,2025-02-24 13h21.36.391811 -0500,
55,55,0,filler_random,None,None,None,None,None,None,None,None,None,None,3,1.8791396617889404,None,,,,,0,0,0,0,0,55,55,163,216.38536834716797,,,,,,,,,,,,,,,,,,,,,,,,,,,,,,,,,,,,,,,,,,,,,,,,,,,,,,,,,,,,,,,,,,,,,,,,,,,,,,,,,145.4686985411629,137.12567945561267,117.63260531023349,90.5217204086099,129.59038066654273,176.8420101557756,3.0,3.2,-210,-282,0,-6,230,267,216.3709421157837,216.37101888656616,216.37511038780212,216.38536834716797,216.53832149505615,216.53832149505615,216.53832149505615,216.53832149505615,216.53832149505615,216.53832149505615,216.53832149505615,218.26890182495117,3,1.8791396617889404,None,,,,,,,,,,,,,,,,,,93,2,2025-02-24_13h18.19.695,comp,2024.2.4,55.191115321859044,2025-02-24 13h21.36.391811 -0500,
56,56,0,catch,None,None,None,None,None,None,None,None,None,None,1,2.0742714405059814,None,,,,,0,0,0,0,0,56,56,127,218.28672623634338,,,,,,,,,,,,,,,,,,,,,,,,,,,,,,,,,,,,,,,,,,,,,,,,,,,,,,,,,,,,,,,,,,,,,,,,,,,,,,,,,162,163,102,88,66,124,3.0,3.1,-222,280,0,-4,202,-283,218.27083253860474,218.27090907096863,218.27375507354736,218.28672623634338,218.43306374549866,218.43306374549866,218.43306374549866,218.43306374549866,218.43306374549866,218.43306374549866,218.43306374549866,220.36925673484802,1,2.0742714405059814,None,,,,,,,,,,,,,,,,,,93,2,2025-02-24_13h18.19.695,comp,2024.2.4,55.191115321859044,2025-02-24 13h21.36.391811 -0500,
57,57,0,filler_random,None,None,None,None,None,None,None,None,None,None,3,2.4601657390594482,None,,,,,0,0,0,0,0,57,57,141,220.38824367523193,,,,,,,,,,,,,,,,,,,,,,,,,,,,,,,,,,,,,,,,,,,,,,,,,,,,,,,,,,,,,,,,,,,,,,,,,,,,,,,,,180.64338158464315,79.91173123162913,73.83712115234923,176.26011791128377,109.33012286502597,185.08335555345934,2.2,2.21,-224,-256,0,287,277,265,220.37097573280334,220.3710560798645,220.3741466999054,220.38824367523193,220.53667759895325,220.53667759895325,220.53667759895325,220.53667759895325,220.53667759895325,220.53667759895325,220.53667759895325,222.8629937171936,3,2.4601657390594482,None,,,,,,,,,,,,,,,,,,93,2,2025-02-24_13h18.19.695,comp,2024.2.4,55.191115321859044,2025-02-24 13h21.36.391811 -0500,
58,58,0,filler_random,None,None,None,None,None,None,None,None,None,None,1,2.034168243408203,None,,,,,0,0,0,0,0,58,58,144,222.8811972141266,,,,,,,,,,,,,,,,,,,,,,,,,,,,,,,,,,,,,,,,,,,,,,,,,,,,,,,,,,,,,,,,,,,,,,,,,,,,,,,,,151.94580684348216,142.23621987293743,68.68449607930361,198.20547992408513,75.71040693626057,60.04731850639055,1.0,1.2,-266,-16,0,18,225,16,222.86468291282654,222.86480450630188,222.86802077293396,222.8811972141266,223.02153301239014,223.02153301239014,223.02153301239014,223.02153301239014,223.02153301239014,223.02153301239014,223.02153301239014,224.91817140579224,1,2.034168243408203,None,,,,,,,,,,,,,,,,,,93,2,2025-02-24_13h18.19.695,comp,2024.2.4,55.191115321859044,2025-02-24 13h21.36.391811 -0500,
59,59,0,critical,whd,20.0,2.1,lower,57.0,133.0,133.0,57.0,78.0,78.0,1,2.347318649291992,None,,,,,0,0,0,0,0,59,59,38,224.935124874115,,,,,,,,,,,,,,,,,,,,,,,,,,,,,,,,,,,,,,,,,,,,,,,,,,,,,,,,,,,,,,,,,,,,,,,,,,,,,,,,,57.0,133.0,133.0,57.0,78.0,78.0,2.1,2.11,-191,287,0,274,164,-289,224.91968393325806,224.91976022720337,224.9226484298706,224.935124874115,225.07574915885925,225.07574915885925,225.07574915885925,225.07574915885925,225.07574915885925,225.07574915885925,225.07574915885925,227.28753685951233,1,2.347318649291992,None,,,,,,,,,,,,,,,,,,93,2,2025-02-24_13h18.19.695,comp,2024.2.4,55.191115321859044,2025-02-24 13h21.36.391811 -0500,
60,60,0,filler_square,None,None,None,None,None,None,None,None,None,None,1,1.8402118682861328,None,,,,,0,0,0,0,0,60,60,172,227.30416703224182,,,,,,,,,,,,,,,,,,,,,,,,,,,,,,,,,,,,,,,,,,,,,,,,,,,,,,,,,,,,,,,,,,,,,,,,,,,,,,,,,120.140949722101,120.140949722101,111.94089108055061,108.07557360999351,92.91552113024045,73.72059452954463,4.0,4.1,-210,-264,0,19,187,-264,227.2892620563507,227.28936862945557,227.29249501228333,227.30416703224182,227.44235062599182,227.44235062599182,227.44235062599182,227.44235062599182,227.44235062599182,227.44235062599182,227.44235062599182,229.16159009933472,1,1.8402118682861328,None,,,,,,,,,,,,,,,,,,93,2,2025-02-24_13h18.19.695,comp,2024.2.4,55.191115321859044,2025-02-24 13h21.36.391811 -0500,
61,61,0,critical,whd,20.0,2.1,upper,125.0,200.0,200.0,125.0,141.0,141.0,2,3.9033257961273193,None,,,,,0,0,0,0,0,61,61,39,229.1771149635315,,,,,,,,,,,,,,,,,,,,,,,,,,,,,,,,,,,,,,,,,,,,,,,,,,,,,,,,,,,,,,,,,,,,,,,,,,,,,,,,,125.0,200.0,200.0,125.0,141.0,141.0,2.1,2.12,-258,-288,0,-267,229,261,229.16322302818298,229.16337847709656,229.1667287349701,229.1771149635315,229.3222041130066,229.3222041130066,229.3222041130066,229.3222041130066,229.3222041130066,229.3222041130066,229.3222041130066,233.09090614318848,2,3.9033257961273193,None,,,,,,,,,,,,,,,,,,93,2,2025-02-24_13h18.19.695,comp,2024.2.4,55.191115321859044,2025-02-24 13h21.36.391811 -0500,
62,62,0,critical,hdw,35.0,3.0,lower,133.0,57.0,70.0,70.0,57.0,133.0,3,3.99644136428833,None,,,,,0,0,0,0,0,62,62,110,233.1084268093109,,,,,,,,,,,,,,,,,,,,,,,,,,,,,,,,,,,,,,,,,,,,,,,,,,,,,,,,,,,,,,,,,,,,,,,,,,,,,,,,,133.0,57.0,70.0,70.0,57.0,133.0,3.0,3.1,-160,258,0,19,198,-255,233.0925509929657,233.09268474578857,233.09682846069336,233.1084268093109,233.2445216178894,233.2445216178894,233.2445216178894,233.2445216178894,233.2445216178894,233.2445216178894,233.2445216178894,237.1249487400055,3,3.99644136428833,None,,,,,,,,,,,,,,,,,,93,2,2025-02-24_13h18.19.695,comp,2024.2.4,55.191115321859044,2025-02-24 13h21.36.391811 -0500,
63,63,0,critical,dwh,35.0,2.1,upper,127.0,127.0,125.0,200.0,200.0,125.0,3,3.0996720790863037,None,,,,,0,0,0,0,0,63,63,5,237.14132857322693,,,,,,,,,,,,,,,,,,,,,,,,,,,,,,,,,,,,,,,,,,,,,,,,,,,,,,,,,,,,,,,,,,,,,,,,,,,,,,,,,127.0,127.0,125.0,200.0,200.0,125.0,2.1,2.12,-260,-289,0,-266,258,269,237.12658643722534,237.1266634464264,237.13006472587585,237.14132857322693,237.28849744796753,237.28849744796753,237.28849744796753,237.28849744796753,237.28849744796753,237.28849744796753,237.28849744796753,240.25845670700073,3,3.0996720790863037,None,,,,,,,,,,,,,,,,,,93,2,2025-02-24_13h18.19.695,comp,2024.2.4,55.191115321859044,2025-02-24 13h21.36.391811 -0500,
64,64,0,filler_random,None,None,None,None,None,None,None,None,None,None,2,2.254291296005249,None,,,,,0,0,0,0,0,64,64,130,240.2744061946869,,,,,,,,,,,,,,,,,,,,,,,,,,,,,,,,,,,,,,,,,,,,,,,,,,,,,,,,,,,,,,,,,,,,,,,,,,,,,,,,,101.9953711633093,123.67640049041363,124.24559271149187,144.8995954259,131.83807663713083,102.65152384569592,1.0,1.3,250,-276,480,-260,700,-257,240.26013135910034,240.26020550727844,240.26334762573242,240.2744061946869,240.42689085006714,240.42689085006714,240.42689085006714,240.42689085006714,240.42689085006714,240.42689085006714,240.42689085006714,242.53114938735962,2,2.254291296005249,None,,,,,,,,,,,,,,,,,,93,2,2025-02-24_13h18.19.695,comp,2024.2.4,55.191115321859044,2025-02-24 13h21.36.391811 -0500,
65,65,0,catch,None,None,None,None,None,None,None,None,None,None,1,1.6652233600616455,None,,,,,0,0,0,0,0,65,65,124,242.5511658191681,,,,,,,,,,,,,,,,,,,,,,,,,,,,,,,,,,,,,,,,,,,,,,,,,,,,,,,,,,,,,,,,,,,,,,,,,,,,,,,,,134,191,129,61,85,105,3.0,3.1,-222,254,0,-12,179,-264,242.53309774398804,242.53317761421204,242.53603744506836,242.5511658191681,242.695392370224,242.695392370224,242.695392370224,242.695392370224,242.695392370224,242.695392370224,242.695392370224,244.23003220558167,1,1.6652233600616455,None,,,,,,,,,,,,,,,,,,93,2,2025-02-24_13h18.19.695,comp,2024.2.4,55.191115321859044,2025-02-24 13h21.36.391811 -0500,
66,66,0,critical,dhw,35.0,2.1,upper,127.0,127.0,200.0,125.0,125.0,200.0,2,1.5188629627227783,None,,,,,0,0,0,0,0,66,66,1,244.24953866004944,,,,,,,,,,,,,,,,,,,,,,,,,,,,,,,,,,,,,,,,,,,,,,,,,,,,,,,,,,,,,,,,,,,,,,,,,,,,,,,,,127.0,127.0,200.0,125.0,125.0,200.0,2.1,2.11,-222,282,0,264,258,-271,244.23163032531738,244.23170590400696,244.23507285118103,244.24953866004944,244.3966269493103,244.3966269493103,244.3966269493103,244.3966269493103,244.3966269493103,244.3966269493103,244.3966269493103,245.7828233242035,2,1.5188629627227783,None,,,,,,,,,,,,,,,,,,93,2,2025-02-24_13h18.19.695,comp,2024.2.4,55.191115321859044,2025-02-24 13h21.36.391811 -0500,
67,67,0,critical,wdh,20.0,2.1,lower,57.0,133.0,78.0,78.0,133.0,57.0,1,1.5851936340332031,None,,,,,0,0,0,0,0,67,67,34,245.7991602420807,,,,,,,,,,,,,,,,,,,,,,,,,,,,,,,,,,,,,,,,,,,,,,,,,,,,,,,,,,,,,,,,,,,,,,,,,,,,,,,,,57.0,133.0,78.0,78.0,133.0,57.0,2.1,2.11,-202,279,0,281,164,-279,245.78451251983643,245.78458857536316,245.78785610198975,245.7991602420807,245.94340467453003,245.94340467453003,245.94340467453003,245.94340467453003,245.94340467453003,245.94340467453003,245.94340467453003,247.40385007858276,1,1.5851936340332031,None,,,,,,,,,,,,,,,,,,93,2,2025-02-24_13h18.19.695,comp,2024.2.4,55.191115321859044,2025-02-24 13h21.36.391811 -0500,
68,68,0,critical,hwd,20.0,2.1,lower,133.0,57.0,57.0,133.0,78.0,78.0,2,3.2748312950134277,None,,,,,0,0,0,0,0,68,68,42,247.4216229915619,,,,,,,,,,,,,,,,,,,,,,,,,,,,,,,,,,,,,,,,,,,,,,,,,,,,,,,,,,,,,,,,,,,,,,,,,,,,,,,,,133.0,57.0,57.0,133.0,78.0,78.0,2.1,2.11,-191,286,0,284,202,-264,247.4054479598999,247.40555691719055,247.40882301330566,247.4216229915619,247.56155228614807,247.56155228614807,247.56155228614807,247.56155228614807,247.56155228614807,247.56155228614807,247.56155228614807,250.71639847755432,2,3.2748312950134277,None,,,,,,,,,,,,,,,,,,93,2,2025-02-24_13h18.19.695,comp,2024.2.4,55.191115321859044,2025-02-24 13h21.36.391811 -0500,
69,69,0,filler_square,None,None,None,None,None,None,None,None,None,None,3,2.3438563346862793,None,,,,,0,0,0,0,0,69,69,174,250.73720407485962,,,,,,,,,,,,,,,,,,,,,,,,,,,,,,,,,,,,,,,,,,,,,,,,,,,,,,,,,,,,,,,,,,,,,,,,,,,,,,,,,91.67633075974322,98.84189215576143,69.44864669467789,108.61900784555675,139.9774560598018,139.9774560598018,3.0,3.1,-200,269,0,10,220,-253,250.71846270561218,250.71854424476624,250.7218849658966,250.73720407485962,250.88132071495056,250.88132071495056,250.88132071495056,250.88132071495056,250.88132071495056,250.88132071495056,250.88132071495056,253.08990144729614,3,2.3438563346862793,None,,,,,,,,,,,,,,,,,,93,2,2025-02-24_13h18.19.695,comp,2024.2.4,55.191115321859044,2025-02-24 13h21.36.391811 -0500,
70,70,0,filler_random,None,None,None,None,None,None,None,None,None,None,3,1.6192748546600342,None,,,,,0,0,0,0,0,70,70,147,253.1100561618805,,,,,,,,,,,,,,,,,,,,,,,,,,,,,,,,,,,,,,,,,,,,,,,,,,,,,,,,,,,,,,,,,,,,,,,,,,,,,,,,,112.77764714092842,193.9036085451104,160.05925654162345,136.79992435575647,188.6991925642472,131.90876467475982,3.0,3.2,-261,-277,0,18,230,267,253.09150552749634,253.09158182144165,253.09441113471985,253.1100561618805,253.24833369255066,253.24833369255066,253.24833369255066,253.24833369255066,253.24833369255066,253.24833369255066,253.24833369255066,254.73581337928772,3,1.6192748546600342,None,,,,,,,,,,,,,,,,,,93,2,2025-02-24_13h18.19.695,comp,2024.2.4,55.191115321859044,2025-02-24 13h21.36.391811 -0500,
71,71,0,filler_random,None,None,None,None,None,None,None,None,None,None,1,1.4526240825653076,None,,,,,0,0,0,0,0,71,71,134,254.75575041770935,,,,,,,,,,,,,,,,,,,,,,,,,,,,,,,,,,,,,,,,,,,,,,,,,,,,,,,,,,,,,,,,,,,,,,,,,,,,,,,,,177.6058002785155,192.5342749024633,154.90090683842126,57.649171489972275,163.09614790772787,72.25614943684141,1.0,1.2,-221,5,0,4,161,-13,254.73794293403625,254.73802781105042,254.7409691810608,254.75575041770935,254.89951729774475,254.89951729774475,254.89951729774475,254.89951729774475,254.89951729774475,254.89951729774475,254.89951729774475,256.22177147865295,1,1.4526240825653076,None,,,,,,,,,,,,,,,,,,93,2,2025-02-24_13h18.19.695,comp,2024.2.4,55.191115321859044,2025-02-24 13h21.36.391811 -0500,
72,72,0,critical,hwd,35.0,1.0,lower,133.0,57.0,57.0,133.0,70.0,70.0,3,2.02699875831604,None,,,,,0,0,0,0,0,72,72,96,256.23784351348877,,,,,,,,,,,,,,,,,,,,,,,,,,,,,,,,,,,,,,,,,,,,,,,,,,,,,,,,,,,,,,,,,,,,,,,,,,,,,,,,,133.0,57.0,57.0,133.0,70.0,70.0,1.0,1.3,289,-272,480,-268,678,-258,256.223473072052,256.2235743999481,256.2268588542938,256.23784351348877,256.381454706192,256.381454706192,256.381454706192,256.381454706192,256.381454706192,256.381454706192,256.381454706192,258.2838091850281,3,2.02699875831604,None,,,,,,,,,,,,,,,,,,93,2,2025-02-24_13h18.19.695,comp,2024.2.4,55.191115321859044,2025-02-24 13h21.36.391811 -0500,
73,73,0,filler_random,None,None,None,None,None,None,None,None,None,None,3,2.067115068435669,None,,,,,0,0,0,0,0,73,73,156,258.3013799190521,,,,,,,,,,,,,,,,,,,,,,,,,,,,,,,,,,,,,,,,,,,,,,,,,,,,,,,,,,,,,,,,,,,,,,,,,,,,,,,,,196.29040409617642,115.50191797075553,144.56866853189877,148.29856070720592,140.39016512778528,72.01723808990732,2.2,2.21,-228,-287,0,262,206,289,258.28564739227295,258.28572630882263,258.28883028030396,258.3013799190521,258.4465720653534,258.4465720653534,258.4465720653534,258.4465720653534,258.4465720653534,258.4465720653534,258.4465720653534,260.38271403312683,3,2.067115068435669,None,,,,,,,,,,,,,,,,,,93,2,2025-02-24_13h18.19.695,comp,2024.2.4,55.191115321859044,2025-02-24 13h21.36.391811 -0500,
74,74,0,filler_random,None,None,None,None,None,None,None,None,None,None,3,1.8977715969085693,None,,,,,0,0,0,0,0,74,74,148,260.3987159729004,,,,,,,,,,,,,,,,,,,,,,,,,,,,,,,,,,,,,,,,,,,,,,,,,,,,,,,,,,,,,,,,,,,,,,,,,,,,,,,,,105.86363792753706,194.27706711114692,183.75907458654513,195.04701372922352,103.37024041562998,66.94184209550856,2.2,2.21,-291,-255,0,277,227,257,260.38467025756836,260.384761095047,260.3881697654724,260.3987159729004,260.5393855571747,260.5393855571747,260.5393855571747,260.5393855571747,260.5393855571747,260.5393855571747,260.5393855571747,262.3009650707245,3,1.8977715969085693,None,,,,,,,,,,,,,,,,,,93,2,2025-02-24_13h18.19.695,comp,2024.2.4,55.191115321859044,2025-02-24 13h21.36.391811 -0500,
75,75,0,filler_square,None,None,None,None,None,None,None,None,None,None,3,9.134273767471313,None,,,,,0,0,0,0,0,75,75,176,262.3222725391388,,,,,,,,,,,,,,,,,,,,,,,,,,,,,,,,,,,,,,,,,,,,,,,,,,,,,,,,,,,,,,,,,,,,,,,,,,,,,,,,,189.4331150737768,115.20974609767251,190.0851697687062,190.0851697687062,98.93432985227244,126.86880669838092,1.0,1.3,231,-286,480,-276,734,-264,262.3030228614807,262.30310320854187,262.3063552379608,262.3222725391388,262.4663574695587,262.4663574695587,262.4663574695587,262.4663574695587,262.4663574695587,262.4663574695587,262.4663574695587,271.47013211250305,3,9.134273767471313,None,,,,,,,,,,,,,,,,,,93,2,2025-02-24_13h18.19.695,comp,2024.2.4,55.191115321859044,2025-02-24 13h21.36.391811 -0500,
76,76,0,filler_random,None,None,None,None,None,None,None,None,None,None,3,6.41775918006897,None,,,,,0,0,0,0,0,76,76,159,271.48681020736694,,,,,,,,,,,,,,,,,,,,,,,,,,,,,,,,,,,,,,,,,,,,,,,,,,,,,,,,,,,,,,,,,,,,,,,,,,,,,,,,,164.99219799537462,108.80179429028222,85.16935584792273,82.87305482260048,147.86806805074812,169.7712046545278,1.0,1.2,-192,5,0,-2,222,3,271.47183060646057,271.47196412086487,271.47569131851196,271.48681020736694,271.6401505470276,271.6401505470276,271.6401505470276,271.6401505470276,271.6401505470276,271.6401505470276,271.6401505470276,277.9210512638092,3,6.41775918006897,None,,,,,,,,,,,,,,,,,,93,2,2025-02-24_13h18.19.695,comp,2024.2.4,55.191115321859044,2025-02-24 13h21.36.391811 -0500,
77,77,0,critical,dwh,20.0,3.0,upper,141.0,141.0,125.0,200.0,200.0,125.0,2,1.8141698837280273,None,,,,,0,0,0,0,0,77,77,69,277.93831992149353,,,,,,,,,,,,,,,,,,,,,,,,,,,,,,,,,,,,,,,,,,,,,,,,,,,,,,,,,,,,,,,,,,,,,,,,,,,,,,,,,141.0,141.0,125.0,200.0,200.0,125.0,3.0,3.2,-266,-263,0,18,258,275,277.9225015640259,277.92257833480835,277.925705909729,277.93831992149353,278.0969524383545,278.0969524383545,278.0969524383545,278.0969524383545,278.0969524383545,278.0969524383545,278.0969524383545,279.7711663246155,2,1.8141698837280273,None,,,,,,,,,,,,,,,,,,93,2,2025-02-24_13h18.19.695,comp,2024.2.4,55.191115321859044,2025-02-24 13h21.36.391811 -0500,
78,78,0,filler_square,None,None,None,None,None,None,None,None,None,None,1,1.4616212844848633,None,,,,,0,0,0,0,0,78,78,201,279.7874369621277,,,,,,,,,,,,,,,,,,,,,,,,,,,,,,,,,,,,,,,,,,,,,,,,,,,,,,,,,,,,,,,,,,,,,,,,,,,,,,,,,99.45154461927021,99.45154461927021,80.3156689114791,90.4799293661872,57.82301493536856,64.05186596541597,1.0,1.1,-671,287,-480,289,-307,266,279.7729914188385,279.77307057380676,279.7761318683624,279.7874369621277,279.9376199245453,279.9376199245453,279.9376199245453,279.9376199245453,279.9376199245453,279.9376199245453,279.9376199245453,281.2559771537781,1,1.4616212844848633,None,,,,,,,,,,,,,,,,,,93,2,2025-02-24_13h18.19.695,comp,2024.2.4,55.191115321859044,2025-02-24 13h21.36.391811 -0500,
79,79,0,filler_square,None,None,None,None,None,None,None,None,None,None,2,1.680729627609253,None,,,,,0,0,0,0,0,79,79,183,281.27200865745544,,,,,,,,,,,,,,,,,,,,,,,,,,,,,,,,,,,,,,,,,,,,,,,,,,,,,,,,,,,,,,,,,,,,,,,,,,,,,,,,,73.72220115809957,61.356820085466566,77.52372826333057,77.52372826333057,76.99031170181604,64.98476838728119,2.1,2.11,-165,288,0,284,167,-280,281.25786566734314,281.2579493522644,281.26121950149536,281.27200865745544,281.4221000671387,281.4221000671387,281.4221000671387,281.4221000671387,281.4221000671387,281.4221000671387,281.4221000671387,282.95645475387573,2,1.680729627609253,None,,,,,,,,,,,,,,,,,,93,2,2025-02-24_13h18.19.695,comp,2024.2.4,55.191115321859044,2025-02-24 13h21.36.391811 -0500,
80,80,0,critical,wdh,20.0,1.0,upper,125.0,200.0,141.0,141.0,200.0,125.0,3,4.920508146286011,None,,,,,0,0,0,0,0,80,80,79,282.9682469367981,,,,,,,,,,,,,,,,,,,,,,,,,,,,,,,,,,,,,,,,,,,,,,,,,,,,,,,,,,,,,,,,,,,,,,,,,,,,,,,,,125.0,200.0,141.0,141.0,200.0,125.0,1.0,1.2,-266,-6,0,9,229,5,282.9569880962372,282.9570143222809,282.95808362960815,282.9682469367981,283.1234464645386,283.1234464645386,283.1234464645386,283.1234464645386,283.1234464645386,283.1234464645386,283.1234464645386,287.8908293247223,3,4.920508146286011,None,,,,,,,,,,,,,,,,,,93,2,2025-02-24_13h18.19.695,comp,2024.2.4,55.191115321859044,2025-02-24 13h21.36.391811 -0500,
81,81,0,filler_square,None,None,None,None,None,None,None,None,None,None,1,1.3294081687927246,None,,,,,0,0,0,0,0,81,81,170,287.9114408493042,,,,,,,,,,,,,,,,,,,,,,,,,,,,,,,,,,,,,,,,,,,,,,,,,,,,,,,,,,,,,,,,,,,,,,,,,,,,,,,,,161.2666202483389,161.2666202483389,118.34496817795188,94.9402916909649,58.336466929921414,127.11696274641999,4.0,4.2,-224,-3,0,-254,207,-3,287.8926303386688,287.8927090167999,287.8958613872528,287.9114408493042,288.0579721927643,288.0579721927643,288.0579721927643,288.0579721927643,288.0579721927643,288.0579721927643,288.0579721927643,289.2477717399597,1,1.3294081687927246,None,,,,,,,,,,,,,,,,,,93,2,2025-02-24_13h18.19.695,comp,2024.2.4,55.191115321859044,2025-02-24 13h21.36.391811 -0500,
82,82,0,critical,dwh,35.0,4.0,lower,70.0,70.0,57.0,133.0,133.0,57.0,2,1.540804147720337,None,,,,,0,0,0,0,0,82,82,64,289.2678732872009,,,,,,,,,,,,,,,,,,,,,,,,,,,,,,,,,,,,,,,,,,,,,,,,,,,,,,,,,,,,,,,,,,,,,,,,,,,,,,,,,70.0,70.0,57.0,133.0,133.0,57.0,4.0,4.1,-198,-262,0,-14,191,-264,289.24925470352173,289.2493546009064,289.2521734237671,289.2678732872009,289.4090564250946,289.4090564250946,289.4090564250946,289.4090564250946,289.4090564250946,289.4090564250946,289.4090564250946,290.8116919994354,2,1.540804147720337,None,,,,,,,,,,,,,,,,,,93,2,2025-02-24_13h18.19.695,comp,2024.2.4,55.191115321859044,2025-02-24 13h21.36.391811 -0500,
83,83,0,filler_square,None,None,None,None,None,None,None,None,None,None,3,1.175464153289795,None,,,,,0,0,0,0,0,83,83,208,290.8274803161621,,,,,,,,,,,,,,,,,,,,,,,,,,,,,,,,,,,,,,,,,,,,,,,,,,,,,,,,,,,,,,,,,,,,,,,,,,,,,,,,,72.68069421707668,84.80833773945159,101.36805858733015,63.24444807244391,149.93827933031162,149.93827933031162,4.0,4.2,-170,16,0,-262,203,14,290.81394481658936,290.81402826309204,290.81689858436584,290.8274803161621,290.9760341644287,290.9760341644287,290.9760341644287,290.9760341644287,290.9760341644287,290.9760341644287,290.9760341644287,292.00619196891785,3,1.175464153289795,None,,,,,,,,,,,,,,,,,,93,2,2025-02-24_13h18.19.695,comp,2024.2.4,55.191115321859044,2025-02-24 13h21.36.391811 -0500,
84,84,0,critical,wdh,35.0,3.0,lower,57.0,133.0,70.0,70.0,133.0,57.0,3,2.0807693004608154,None,,,,,0,0,0,0,0,84,84,74,292.0240001678467,,,,,,,,,,,,,,,,,,,,,,,,,,,,,,,,,,,,,,,,,,,,,,,,,,,,,,,,,,,,,,,,,,,,,,,,,,,,,,,,,57.0,133.0,70.0,70.0,133.0,57.0,3.0,3.2,-198,-277,0,-14,160,270,292.00769782066345,292.00777792930603,292.01065373420715,292.0240001678467,292.1746664047241,292.1746664047241,292.1746664047241,292.1746664047241,292.1746664047241,292.1746664047241,292.1746664047241,294.1103332042694,3,2.0807693004608154,None,,,,,,,,,,,,,,,,,,93,2,2025-02-24_13h18.19.695,comp,2024.2.4,55.191115321859044,2025-02-24 13h21.36.391811 -0500,
85,85,0,critical,hdw,35.0,2.1,upper,200.0,125.0,127.0,127.0,125.0,200.0,3,1.443058729171753,None,,,,,0,0,0,0,0,85,85,21,294.1262376308441,,,,,,,,,,,,,,,,,,,,,,,,,,,,,,,,,,,,,,,,,,,,,,,,,,,,,,,,,,,,,,,,,,,,,,,,,,,,,,,,,200.0,125.0,127.0,127.0,125.0,200.0,2.1,2.12,-222,-258,0,-273,260,289,294.1119165420532,294.1119933128357,294.11510038375854,294.1262376308441,294.27582263946533,294.27582263946533,294.27582263946533,294.27582263946533,294.27582263946533,294.27582263946533,294.27582263946533,295.57597732543945,3,1.443058729171753,None,,,,,,,,,,,,,,,,,,93,2,2025-02-24_13h18.19.695,comp,2024.2.4,55.191115321859044,2025-02-24 13h21.36.391811 -0500,
86,86,0,critical,hdw,35.0,2.1,lower,133.0,57.0,70.0,70.0,57.0,133.0,1,1.4874382019042969,None,,,,,0,0,0,0,0,86,86,20,295.5930767059326,,,,,,,,,,,,,,,,,,,,,,,,,,,,,,,,,,,,,,,,,,,,,,,,,,,,,,,,,,,,,,,,,,,,,,,,,,,,,,,,,133.0,57.0,70.0,70.0,57.0,133.0,2.1,2.11,-160,288,0,283,198,-262,295.5775589942932,295.5776400566101,295.58101868629456,295.5930767059326,295.7479302883148,295.7479302883148,295.7479302883148,295.7479302883148,295.7479302883148,295.7479302883148,295.7479302883148,297.0943887233734,1,1.4874382019042969,None,,,,,,,,,,,,,,,,,,93,2,2025-02-24_13h18.19.695,comp,2024.2.4,55.191115321859044,2025-02-24 13h21.36.391811 -0500,
87,87,0,critical,wdh,20.0,3.0,upper,125.0,200.0,141.0,141.0,200.0,125.0,3,2.130768299102783,None,,,,,0,0,0,0,0,87,87,81,297.1105043888092,,,,,,,,,,,,,,,,,,,,,,,,,,,,,,,,,,,,,,,,,,,,,,,,,,,,,,,,,,,,,,,,,,,,,,,,,,,,,,,,,125.0,200.0,141.0,141.0,200.0,125.0,3.0,3.2,-266,-284,0,7,229,276,297.0959093570709,297.0959849357605,297.1000270843506,297.1105043888092,297.259610414505,297.259610414505,297.259610414505,297.259610414505,297.259610414505,297.259610414505,297.259610414505,299.2504436969757,3,2.130768299102783,None,,,,,,,,,,,,,,,,,,93,2,2025-02-24_13h18.19.695,comp,2024.2.4,55.191115321859044,2025-02-24 13h21.36.391811 -0500,
88,88,0,filler_square,None,None,None,None,None,None,None,None,None,None,3,2.629913806915283,None,,,,,0,0,0,0,0,88,88,199,299.2665464878082,,,,,,,,,,,,,,,,,,,,,,,,,,,,,,,,,,,,,,,,,,,,,,,,,,,,,,,,,,,,,,,,,,,,,,,,,,,,,,,,,66.49485937467533,61.75427852966947,67.31068510543923,58.625934669628,68.74631511929455,68.74631511929455,2.2,2.21,-156,-281,0,258,160,285,299.2523226737976,299.25240683555603,299.2553412914276,299.2665464878082,299.413033246994,299.413033246994,299.413033246994,299.413033246994,299.413033246994,299.413033246994,299.413033246994,301.9123978614807,3,2.629913806915283,None,,,,,,,,,,,,,,,,,,93,2,2025-02-24_13h18.19.695,comp,2024.2.4,55.191115321859044,2025-02-24 13h21.36.391811 -0500,
89,89,0,filler_square,None,None,None,None,None,None,None,None,None,None,3,2.0873281955718994,None,,,,,0,0,0,0,0,89,89,173,301.92919921875,,,,,,,,,,,,,,,,,,,,,,,,,,,,,,,,,,,,,,,,,,,,,,,,,,,,,,,,,,,,,,,,,,,,,,,,,,,,,,,,,166.07815345769086,114.61462945301992,77.80237828729504,87.61658598715908,193.96288523524046,193.96288523524046,4.0,4.1,-197,-267,0,-5,237,-280,301.9144492149353,301.9145288467407,301.91865277290344,301.92919921875,302.0836021900177,302.0836021900177,302.0836021900177,302.0836021900177,302.0836021900177,302.0836021900177,302.0836021900177,304.029709815979,3,2.0873281955718994,None,,,,,,,,,,,,,,,,,,93,2,2025-02-24_13h18.19.695,comp,2024.2.4,55.191115321859044,2025-02-24 13h21.36.391811 -0500,
90,90,0,filler_random,None,None,None,None,None,None,None,None,None,None,2,1.5636684894561768,None,,,,,0,0,0,0,0,90,90,140,304.0459101200104,,,,,,,,,,,,,,,,,,,,,,,,,,,,,,,,,,,,,,,,,,,,,,,,,,,,,,,,,,,,,,,,,,,,,,,,,,,,,,,,,81.17949068114737,188.76763859495233,100.23437275654027,197.04753600209858,96.1851482259764,154.87177657609323,4.0,4.2,-289,5,0,-281,272,12,304.031418800354,304.0314927101135,304.0346040725708,304.0459101200104,304.19751954078674,304.19751954078674,304.19751954078674,304.19751954078674,304.19751954078674,304.19751954078674,304.19751954078674,305.6159188747406,2,1.5636684894561768,None,,,,,,,,,,,,,,,,,,93,2,2025-02-24_13h18.19.695,comp,2024.2.4,55.191115321859044,2025-02-24 13h21.36.391811 -0500,
91,91,0,critical,wdh,20.0,4.0,lower,57.0,133.0,78.0,78.0,133.0,57.0,1,2.8589510917663574,None,,,,,0,0,0,0,0,91,91,82,305.632328748703,,,,,,,,,,,,,,,,,,,,,,,,,,,,,,,,,,,,,,,,,,,,,,,,,,,,,,,,,,,,,,,,,,,,,,,,,,,,,,,,,57.0,133.0,78.0,78.0,133.0,57.0,4.0,4.1,-202,-286,0,-6,164,-285,305.6176669597626,305.61776638031006,305.62076115608215,305.632328748703,305.7790904045105,305.7790904045105,305.7790904045105,305.7790904045105,305.7790904045105,305.7790904045105,305.7790904045105,308.49688625335693,1,2.8589510917663574,None,,,,,,,,,,,,,,,,,,93,2,2025-02-24_13h18.19.695,comp,2024.2.4,55.191115321859044,2025-02-24 13h21.36.391811 -0500,
92,92,0,critical,hdw,35.0,1.0,upper,200.0,125.0,127.0,127.0,125.0,200.0,3,3.0785272121429443,None,,,,,0,0,0,0,0,92,92,109,308.5143733024597,,,,,,,,,,,,,,,,,,,,,,,,,,,,,,,,,,,,,,,,,,,,,,,,,,,,,,,,,,,,,,,,,,,,,,,,,,,,,,,,,200.0,125.0,127.0,127.0,125.0,200.0,1.0,1.3,258,-289,480,-289,740,-251,308.4984176158905,308.4984953403473,308.5015902519226,308.5143733024597,308.66488313674927,308.66488313674927,308.66488313674927,308.66488313674927,308.66488313674927,308.66488313674927,308.66488313674927,311.5990078449249,3,3.0785272121429443,None,,,,,,,,,,,,,,,,,,93,2,2025-02-24_13h18.19.695,comp,2024.2.4,55.191115321859044,2025-02-24 13h21.36.391811 -0500,
93,93,0,filler_random,None,None,None,None,None,None,None,None,None,None,3,2.2956504821777344,None,,,,,0,0,0,0,0,93,93,169,311.6168076992035,,,,,,,,,,,,,,,,,,,,,,,,,,,,,,,,,,,,,,,,,,,,,,,,,,,,,,,,,,,,,,,,,,,,,,,,,,,,,,,,,112.23445919954341,77.46298920109183,144.29440148493848,112.7035490933398,151.62106325499894,97.59980705382762,2.1,2.12,-191,-273,0,-267,201,260,311.6006693840027,311.60074496269226,311.6037566661835,311.6168076992035,311.76687455177307,311.76687455177307,311.76687455177307,311.76687455177307,311.76687455177307,311.76687455177307,311.76687455177307,313.9254627227783,3,2.2956504821777344,None,,,,,,,,,,,,,,,,,,93,2,2025-02-24_13h18.19.695,comp,2024.2.4,55.191115321859044,2025-02-24 13h21.36.391811 -0500,
94,94,0,critical,whd,20.0,3.0,upper,125.0,200.0,200.0,125.0,141.0,141.0,1,2.134115219116211,None,,,,,0,0,0,0,0,94,94,93,313.94630789756775,,,,,,,,,,,,,,,,,,,,,,,,,,,,,,,,,,,,,,,,,,,,,,,,,,,,,,,,,,,,,,,,,,,,,,,,,,,,,,,,,125.0,200.0,200.0,125.0,141.0,141.0,3.0,3.2,-258,-279,0,2,229,290,313.9270746707916,313.9272050857544,313.9305052757263,313.94630789756775,314.0841476917267,314.0841476917267,314.0841476917267,314.0841476917267,314.0841476917267,314.0841476917267,314.0841476917267,316.0831265449524,1,2.134115219116211,None,,,,,,,,,,,,,,,,,,93,2,2025-02-24_13h18.19.695,comp,2024.2.4,55.191115321859044,2025-02-24 13h21.36.391811 -0500,
95,95,0,critical,whd,20.0,4.0,upper,125.0,200.0,200.0,125.0,141.0,141.0,2,1.6553335189819336,None,,,,,0,0,0,0,0,95,95,95,316.09724020957947,,,,,,,,,,,,,,,,,,,,,,,,,,,,,,,,,,,,,,,,,,,,,,,,,,,,,,,,,,,,,,,,,,,,,,,,,,,,,,,,,125.0,200.0,200.0,125.0,141.0,141.0,4.0,4.1,-258,-277,0,4,229,-267,316.08449816703796,316.08456349372864,316.08753204345703,316.09724020957947,316.2514154911041,316.2514154911041,316.2514154911041,316.2514154911041,316.2514154911041,316.2514154911041,316.2514154911041,317.7660720348358,2,1.6553335189819336,None,,,,,,,,,,,,,,,,,,93,2,2025-02-24_13h18.19.695,comp,2024.2.4,55.191115321859044,2025-02-24 13h21.36.391811 -0500,
96,96,0,critical,wdh,35.0,4.0,lower,57.0,133.0,70.0,70.0,133.0,57.0,3,1.203026533126831,None,,,,,0,0,0,0,0,96,96,76,317.7820568084717,,,,,,,,,,,,,,,,,,,,,,,,,,,,,,,,,,,,,,,,,,,,,,,,,,,,,,,,,,,,,,,,,,,,,,,,,,,,,,,,,57.0,133.0,70.0,70.0,133.0,57.0,4.0,4.2,-198,-16,0,-282,160,-7,317.76757764816284,317.76765179634094,317.7707540988922,317.7820568084717,317.9329209327698,317.9329209327698,317.9329209327698,317.9329209327698,317.9329209327698,317.9329209327698,317.9329209327698,318.9957368373871,3,1.203026533126831,None,,,,,,,,,,,,,,,,,,93,2,2025-02-24_13h18.19.695,comp,2024.2.4,55.191115321859044,2025-02-24 13h21.36.391811 -0500,
97,97,0,critical,dwh,20.0,2.1,lower,78.0,78.0,57.0,133.0,133.0,57.0,3,1.451469898223877,None,,,,,0,0,0,0,0,97,97,30,319.01303791999817,,,,,,,,,,,,,,,,,,,,,,,,,,,,,,,,,,,,,,,,,,,,,,,,,,,,,,,,,,,,,,,,,,,,,,,,,,,,,,,,,78.0,78.0,57.0,133.0,133.0,57.0,2.1,2.12,-202,-286,0,-258,191,278,318.9969618320465,318.9970033168793,318.99855041503906,319.01303791999817,319.1510467529297,319.1510467529297,319.1510467529297,319.1510467529297,319.1510467529297,319.1510467529297,319.1510467529297,320.47667026519775,3,1.451469898223877,None,,,,,,,,,,,,,,,,,,93,2,2025-02-24_13h18.19.695,comp,2024.2.4,55.191115321859044,2025-02-24 13h21.36.391811 -0500,
98,98,0,critical,wdh,35.0,1.0,lower,57.0,133.0,70.0,70.0,133.0,57.0,3,1.4249379634857178,None,,,,,0,0,0,0,0,98,98,72,320.49536895751953,,,,,,,,,,,,,,,,,,,,,,,,,,,,,,,,,,,,,,,,,,,,,,,,,,,,,,,,,,,,,,,,,,,,,,,,,,,,,,,,,57.0,133.0,70.0,70.0,133.0,57.0,1.0,1.1,-678,257,-480,260,-320,257,320.4782509803772,320.47834968566895,320.481317281723,320.49536895751953,320.634804725647,320.634804725647,320.634804725647,320.634804725647,320.634804725647,320.634804725647,320.634804725647,321.9246451854706,3,1.4249379634857178,None,,,,,,,,,,,,,,,,,,93,2,2025-02-24_13h18.19.695,comp,2024.2.4,55.191115321859044,2025-02-24 13h21.36.391811 -0500,
99,99,0,critical,hwd,20.0,4.0,lower,133.0,57.0,57.0,133.0,78.0,78.0,2,2.1973977088928223,None,,,,,0,0,0,0,0,99,99,106,321.9392468929291,,,,,,,,,,,,,,,,,,,,,,,,,,,,,,,,,,,,,,,,,,,,,,,,,,,,,,,,,,,,,,,,,,,,,,,,,,,,,,,,,133.0,57.0,57.0,133.0,78.0,78.0,4.0,4.1,-191,-278,0,18,202,-265,321.9252247810364,321.92525267601013,321.92634177207947,321.9392468929291,322.086541891098,322.086541891098,322.086541891098,322.086541891098,322.086541891098,322.086541891098,322.086541891098,324.1529932022095,2,2.1973977088928223,None,,,,,,,,,,,,,,,,,,93,2,2025-02-24_13h18.19.695,comp,2024.2.4,55.191115321859044,2025-02-24 13h21.36.391811 -0500,
100,100,0,critical,dhw,35.0,1.0,upper,127.0,127.0,200.0,125.0,125.0,200.0,3,5.936309814453125,None,,,,,0,0,0,0,0,100,100,49,324.1681544780731,,,,,,,,,,,,,,,,,,,,,,,,,,,,,,,,,,,,,,,,,,,,,,,,,,,,,,,,,,,,,,,,,,,,,,,,,,,,,,,,,127.0,127.0,200.0,125.0,125.0,200.0,1.0,1.1,-702,278,-480,271,-222,283,324.15451312065125,324.15458965301514,324.15792298316956,324.1681544780731,324.3197875022888,324.3197875022888,324.3197875022888,324.3197875022888,324.3197875022888,324.3197875022888,324.3197875022888,330.1160514354706,3,5.936309814453125,None,,,,,,,,,,,,,,,,,,93,2,2025-02-24_13h18.19.695,comp,2024.2.4,55.191115321859044,2025-02-24 13h21.36.391811 -0500,
101,101,0,filler_square,None,None,None,None,None,None,None,None,None,None,2,1.2371582984924316,None,,,,,0,0,0,0,0,101,101,203,330.13222336769104,,,,,,,,,,,,,,,,,,,,,,,,,,,,,,,,,,,,,,,,,,,,,,,,,,,,,,,,,,,,,,,,,,,,,,,,,,,,,,,,,72.0840339446399,83.45294252571476,199.73339782345786,199.73339782345786,139.54847764272844,172.59550813309372,1.0,1.3,242,-253,480,-288,762,-278,330.11792755126953,330.1180064678192,330.1208667755127,330.13222336769104,330.27138233184814,330.27138233184814,330.27138233184814,330.27138233184814,330.27138233184814,330.27138233184814,330.27138233184814,331.37191462516785,2,1.2371582984924316,None,,,,,,,,,,,,,,,,,,93,2,2025-02-24_13h18.19.695,comp,2024.2.4,55.191115321859044,2025-02-24 13h21.36.391811 -0500,
102,102,0,critical,dhw,20.0,2.1,lower,78.0,78.0,133.0,57.0,57.0,133.0,3,2.1310410499572754,None,,,,,0,0,0,0,0,102,102,26,331.3895118236542,,,,,,,,,,,,,,,,,,,,,,,,,,,,,,,,,,,,,,,,,,,,,,,,,,,,,,,,,,,,,,,,,,,,,,,,,,,,,,,,,78.0,78.0,133.0,57.0,57.0,133.0,2.1,2.12,-164,-251,0,-277,191,284,331.37362694740295,331.37373304367065,331.3778872489929,331.3895118236542,331.53814458847046,331.53814458847046,331.53814458847046,331.53814458847046,331.53814458847046,331.53814458847046,331.53814458847046,333.5405795574188,3,2.1310410499572754,None,,,,,,,,,,,,,,,,,,93,2,2025-02-24_13h18.19.695,comp,2024.2.4,55.191115321859044,2025-02-24 13h21.36.391811 -0500,
103,103,0,critical,hwd,35.0,2.1,upper,200.0,125.0,125.0,200.0,127.0,127.0,2,3.3365230560302734,None,,,,,0,0,0,0,0,103,103,41,333.56058406829834,,,,,,,,,,,,,,,,,,,,,,,,,,,,,,,,,,,,,,,,,,,,,,,,,,,,,,,,,,,,,,,,,,,,,,,,,,,,,,,,,200.0,125.0,125.0,200.0,127.0,127.0,2.1,2.12,-258,-254,0,-263,260,286,333.54220604896545,333.54234862327576,333.5452527999878,333.56058406829834,333.70449709892273,333.70449709892273,333.70449709892273,333.70449709892273,333.70449709892273,333.70449709892273,333.70449709892273,336.9002151489258,2,3.3365230560302734,None,,,,,,,,,,,,,,,,,,93,2,2025-02-24_13h18.19.695,comp,2024.2.4,55.191115321859044,2025-02-24 13h21.36.391811 -0500,
104,104,0,catch,None,None,None,None,None,None,None,None,None,None,1,1.0281386375427246,None,,,,,0,0,0,0,0,104,104,128,336.9168064594269,,,,,,,,,,,,,,,,,,,,,,,,,,,,,,,,,,,,,,,,,,,,,,,,,,,,,,,,,,,,,,,,,,,,,,,,,,,,,,,,,157,168,120,70,111,79,3.0,3.2,-215,-250,0,-6,170,255,336.90210485458374,336.9021849632263,336.90510654449463,336.9168064594269,337.05584836006165,337.05584836006165,337.05584836006165,337.05584836006165,337.05584836006165,337.05584836006165,337.05584836006165,337.94725942611694,1,1.0281386375427246,None,,,,,,,,,,,,,,,,,,93,2,2025-02-24_13h18.19.695,comp,2024.2.4,55.191115321859044,2025-02-24 13h21.36.391811 -0500,
105,105,0,critical,hwd,35.0,3.0,upper,200.0,125.0,125.0,200.0,127.0,127.0,2,2.4619486331939697,None,,,,,0,0,0,0,0,105,105,99,337.96305298805237,,,,,,,,,,,,,,,,,,,,,,,,,,,,,,,,,,,,,,,,,,,,,,,,,,,,,,,,,,,,,,,,,,,,,,,,,,,,,,,,,200.0,125.0,125.0,200.0,127.0,127.0,3.0,3.2,-258,-278,0,-5,260,269,337.94887351989746,337.94895100593567,337.95222640037537,337.96305298805237,338.11023902893066,338.11023902893066,338.11023902893066,338.11023902893066,338.11023902893066,338.11023902893066,338.11023902893066,340.44254422187805,2,2.4619486331939697,None,,,,,,,,,,,,,,,,,,93,2,2025-02-24_13h18.19.695,comp,2024.2.4,55.191115321859044,2025-02-24 13h21.36.391811 -0500,
106,106,0,critical,dwh,20.0,1.0,lower,78.0,78.0,57.0,133.0,133.0,57.0,3,2.623008966445923,None,,,,,0,0,0,0,0,106,106,66,340.4576094150543,,,,,,,,,,,,,,,,,,,,,,,,,,,,,,,,,,,,,,,,,,,,,,,,,,,,,,,,,,,,,,,,,,,,,,,,,,,,,,,,,78.0,78.0,57.0,133.0,133.0,57.0,1.0,1.3,278,-256,480,-274,671,-260,340.4440619945526,340.444135427475,340.44737339019775,340.4576094150543,340.60858607292175,340.60858607292175,340.60858607292175,340.60858607292175,340.60858607292175,340.60858607292175,340.60858607292175,343.0901618003845,3,2.623008966445923,None,,,,,,,,,,,,,,,,,,93,2,2025-02-24_13h18.19.695,comp,2024.2.4,55.191115321859044,2025-02-24 13h21.36.391811 -0500,
107,107,0,critical,wdh,20.0,2.1,upper,125.0,200.0,141.0,141.0,200.0,125.0,3,2.3506827354431152,None,,,,,0,0,0,0,0,107,107,35,343.1066110134125,,,,,,,,,,,,,,,,,,,,,,,,,,,,,,,,,,,,,,,,,,,,,,,,,,,,,,,,,,,,,,,,,,,,,,,,,,,,,,,,,125.0,200.0,141.0,141.0,200.0,125.0,2.1,2.11,-266,275,0,256,229,-262,343.09175968170166,343.09183502197266,343.0950915813446,343.1066110134125,343.25480794906616,343.25480794906616,343.25480794906616,343.25480794906616,343.25480794906616,343.25480794906616,343.25480794906616,345.45972323417664,3,2.3506827354431152,None,,,,,,,,,,,,,,,,,,93,2,2025-02-24_13h18.19.695,comp,2024.2.4,55.191115321859044,2025-02-24 13h21.36.391811 -0500,
108,108,0,filler_square,None,None,None,None,None,None,None,None,None,None,3,1.836946964263916,None,,,,,0,0,0,0,0,108,108,178,345.4755856990814,,,,,,,,,,,,,,,,,,,,,,,,,,,,,,,,,,,,,,,,,,,,,,,,,,,,,,,,,,,,,,,,,,,,,,,,,,,,,,,,,93.87320123434273,80.13426579739182,73.85796290986778,91.38507582949836,101.34460344149366,101.34460344149366,3.0,3.2,-182,-272,0,-8,192,286,345.46146988868713,345.461549282074,345.4648425579071,345.4755856990814,345.62683153152466,345.62683153152466,345.62683153152466,345.62683153152466,345.62683153152466,345.62683153152466,345.62683153152466,347.32867312431335,3,1.836946964263916,None,,,,,,,,,,,,,,,,,,93,2,2025-02-24_13h18.19.695,comp,2024.2.4,55.191115321859044,2025-02-24 13h21.36.391811 -0500,
109,109,0,critical,hwd,20.0,4.0,upper,200.0,125.0,125.0,200.0,141.0,141.0,2,2.1232290267944336,None,,,,,0,0,0,0,0,109,109,107,347.3440613746643,,,,,,,,,,,,,,,,,,,,,,,,,,,,,,,,,,,,,,,,,,,,,,,,,,,,,,,,,,,,,,,,,,,,,,,,,,,,,,,,,200.0,125.0,125.0,200.0,141.0,141.0,4.0,4.1,-258,-266,0,14,266,-283,347.3303437232971,347.3304235935211,347.33353781700134,347.3440613746643,347.4944980144501,347.4944980144501,347.4944980144501,347.4944980144501,347.4944980144501,347.4944980144501,347.4944980144501,349.4777121543884,2,2.1232290267944336,None,,,,,,,,,,,,,,,,,,93,2,2025-02-24_13h18.19.695,comp,2024.2.4,55.191115321859044,2025-02-24 13h21.36.391811 -0500,
110,110,0,critical,wdh,20.0,3.0,lower,57.0,133.0,78.0,78.0,133.0,57.0,3,2.301142454147339,None,,,,,0,0,0,0,0,110,110,80,349.492139339447,,,,,,,,,,,,,,,,,,,,,,,,,,,,,,,,,,,,,,,,,,,,,,,,,,,,,,,,,,,,,,,,,,,,,,,,,,,,,,,,,57.0,133.0,78.0,78.0,133.0,57.0,3.0,3.1,-202,261,0,-9,164,-263,349.479195356369,349.47927474975586,349.4825849533081,349.492139339447,349.64543414115906,349.64543414115906,349.64543414115906,349.64543414115906,349.64543414115906,349.64543414115906,349.64543414115906,351.7996892929077,3,2.301142454147339,None,,,,,,,,,,,,,,,,,,93,2,2025-02-24_13h18.19.695,comp,2024.2.4,55.191115321859044,2025-02-24 13h21.36.391811 -0500,
111,111,0,critical,whd,20.0,3.0,lower,57.0,133.0,133.0,57.0,78.0,78.0,2,4.989250659942627,None,,,,,0,0,0,0,0,111,111,92,351.8198997974396,,,,,,,,,,,,,,,,,,,,,,,,,,,,,,,,,,,,,,,,,,,,,,,,,,,,,,,,,,,,,,,,,,,,,,,,,,,,,,,,,57.0,133.0,133.0,57.0,78.0,78.0,3.0,3.2,-191,-256,0,-20,164,272,351.8012316226959,351.80134081840515,351.8041968345642,351.8198997974396,351.96203088760376,351.96203088760376,351.96203088760376,351.96203088760376,351.96203088760376,351.96203088760376,351.96203088760376,356.8149573802948,2,4.989250659942627,None,,,,,,,,,,,,,,,,,,93,2,2025-02-24_13h18.19.695,comp,2024.2.4,55.191115321859044,2025-02-24 13h21.36.391811 -0500,
112,112,0,filler_random,None,None,None,None,None,None,None,None,None,None,3,6.552304267883301,None,,,,,0,0,0,0,0,112,112,138,356.8323459625244,,,,,,,,,,,,,,,,,,,,,,,,,,,,,,,,,,,,,,,,,,,,,,,,,,,,,,,,,,,,,,,,,,,,,,,,,,,,,,,,,76.83850877685893,61.83494856728923,102.31387194635161,172.1931398099818,185.74486319307297,197.82294219855706,1.0,1.2,-213,-18,0,0,281,-16,356.8167760372162,356.8168568611145,356.8198480606079,356.8323459625244,356.98291659355164,356.98291659355164,356.98291659355164,356.98291659355164,356.98291659355164,356.98291659355164,356.98291659355164,363.3987901210785,3,6.552304267883301,None,,,,,,,,,,,,,,,,,,93,2,2025-02-24_13h18.19.695,comp,2024.2.4,55.191115321859044,2025-02-24 13h21.36.391811 -0500,
113,113,0,critical,dhw,35.0,4.0,lower,70.0,70.0,133.0,57.0,57.0,133.0,3,3.1758317947387695,None,,,,,0,0,0,0,0,113,113,52,363.41661286354065,,,,,,,,,,,,,,,,,,,,,,,,,,,,,,,,,,,,,,,,,,,,,,,,,,,,,,,,,,,,,,,,,,,,,,,,,,,,,,,,,70.0,70.0,133.0,57.0,57.0,133.0,4.0,4.2,-160,13,0,-275,191,-16,363.40030813217163,363.4003903865814,363.4035487174988,363.41661286354065,363.5661358833313,363.5661358833313,363.5661358833313,363.5661358833313,363.5661358833313,363.5661358833313,363.5661358833313,366.60667991638184,3,3.1758317947387695,None,,,,,,,,,,,,,,,,,,93,2,2025-02-24_13h18.19.695,comp,2024.2.4,55.191115321859044,2025-02-24 13h21.36.391811 -0500,
114,114,0,filler_random,None,None,None,None,None,None,None,None,None,None,3,1.189673900604248,None,,,,,0,0,0,0,0,114,114,157,366.6270110607147,,,,,,,,,,,,,,,,,,,,,,,,,,,,,,,,,,,,,,,,,,,,,,,,,,,,,,,,,,,,,,,,,,,,,,,,,,,,,,,,,108.37186642952301,131.8330813480833,134.62119170095627,76.87188915060474,180.99777297683698,139.9249722810441,4.0,4.2,-200,-15,0,-264,204,17,366.60832595825195,366.6084098815918,366.6113212108612,366.6270110607147,366.76698327064514,366.76698327064514,366.76698327064514,366.76698327064514,366.76698327064514,366.76698327064514,366.76698327064514,367.83295249938965,3,1.189673900604248,None,,,,,,,,,,,,,,,,,,93,2,2025-02-24_13h18.19.695,comp,2024.2.4,55.191115321859044,2025-02-24 13h21.36.391811 -0500,
115,115,0,critical,wdh,35.0,2.1,lower,57.0,133.0,70.0,70.0,133.0,57.0,3,1.5456717014312744,None,,,,,0,0,0,0,0,115,115,8,367.84841442108154,,,,,,,,,,,,,,,,,,,,,,,,,,,,,,,,,,,,,,,,,,,,,,,,,,,,,,,,,,,,,,,,,,,,,,,,,,,,,,,,,57.0,133.0,70.0,70.0,133.0,57.0,2.1,2.11,-198,269,0,285,160,-283,367.8345606327057,367.83464527130127,367.83806562423706,367.84841442108154,368.0005991458893,368.0005991458893,368.0005991458893,368.0005991458893,368.0005991458893,368.0005991458893,368.0005991458893,369.399382352829,3,1.5456717014312744,None,,,,,,,,,,,,,,,,,,93,2,2025-02-24_13h18.19.695,comp,2024.2.4,55.191115321859044,2025-02-24 13h21.36.391811 -0500,
116,116,0,critical,whd,20.0,2.1,lower,57.0,133.0,133.0,57.0,78.0,78.0,2,2.1330413818359375,None,,,,,0,0,0,0,0,116,116,14,369.4195623397827,,,,,,,,,,,,,,,,,,,,,,,,,,,,,,,,,,,,,,,,,,,,,,,,,,,,,,,,,,,,,,,,,,,,,,,,,,,,,,,,,57.0,133.0,133.0,57.0,78.0,78.0,2.1,2.11,-191,278,0,273,164,-264,369.4008913040161,369.4009692668915,369.40411901474,369.4195623397827,369.5669734477997,369.5669734477997,369.5669734477997,369.5669734477997,369.5669734477997,369.5669734477997,369.5669734477997,371.56889271736145,2,2.1330413818359375,None,,,,,,,,,,,,,,,,,,93,2,2025-02-24_13h18.19.695,comp,2024.2.4,55.191115321859044,2025-02-24 13h21.36.391811 -0500,
117,117,0,critical,dwh,35.0,1.0,lower,70.0,70.0,57.0,133.0,133.0,57.0,2,2.112271785736084,None,,,,,0,0,0,0,0,117,117,60,371.5847280025482,,,,,,,,,,,,,,,,,,,,,,,,,,,,,,,,,,,,,,,,,,,,,,,,,,,,,,,,,,,,,,,,,,,,,,,,,,,,,,,,,70.0,70.0,57.0,133.0,133.0,57.0,1.0,1.1,-678,274,-480,277,-289,285,371.57041692733765,371.57054114341736,371.5744643211365,371.5847280025482,371.7329227924347,371.7329227924347,371.7329227924347,371.7329227924347,371.7329227924347,371.7329227924347,371.7329227924347,373.7006902694702,2,2.112271785736084,None,,,,,,,,,,,,,,,,,,93,2,2025-02-24_13h18.19.695,comp,2024.2.4,55.191115321859044,2025-02-24 13h21.36.391811 -0500,
118,118,0,filler_random,None,None,None,None,None,None,None,None,None,None,1,1.826280117034912,None,,,,,0,0,0,0,0,118,118,135,373.71991753578186,,,,,,,,,,,,,,,,,,,,,,,,,,,,,,,,,,,,,,,,,,,,,,,,,,,,,,,,,,,,,,,,,,,,,,,,,,,,,,,,,181.74209249112053,139.65733848275573,124.9322341664421,159.71856813368896,188.8244336204147,62.35503862659493,4.0,4.1,-246,-261,0,-20,207,-251,373.7023711204529,373.70244669914246,373.70573592185974,373.71991753578186,373.8681011199951,373.8681011199951,373.8681011199951,373.8681011199951,373.8681011199951,373.8681011199951,373.8681011199951,375.54938673973083,1,1.826280117034912,None,,,,,,,,,,,,,,,,,,93,2,2025-02-24_13h18.19.695,comp,2024.2.4,55.191115321859044,2025-02-24 13h21.36.391811 -0500,
119,119,0,critical,dhw,20.0,4.0,upper,141.0,141.0,200.0,125.0,125.0,200.0,3,2.834472894668579,None,,,,,0,0,0,0,0,119,119,59,375.5660984516144,,,,,,,,,,,,,,,,,,,,,,,,,,,,,,,,,,,,,,,,,,,,,,,,,,,,,,,,,,,,,,,,,,,,,,,,,,,,,,,,,141.0,141.0,200.0,125.0,125.0,200.0,4.0,4.1,-229,-250,0,-5,258,-256,375.55087637901306,375.5509524345398,375.55376982688904,375.5660984516144,375.71533274650574,375.71533274650574,375.71533274650574,375.71533274650574,375.71533274650574,375.71533274650574,375.71533274650574,378.41266202926636,3,2.834472894668579,None,,,,,,,,,,,,,,,,,,93,2,2025-02-24_13h18.19.695,comp,2024.2.4,55.191115321859044,2025-02-24 13h21.36.391811 -0500,
120,120,0,critical,dhw,35.0,2.1,lower,70.0,70.0,133.0,57.0,57.0,133.0,2,1.7723817825317383,None,,,,,0,0,0,0,0,120,120,24,378.428190946579,,,,,,,,,,,,,,,,,,,,,,,,,,,,,,,,,,,,,,,,,,,,,,,,,,,,,,,,,,,,,,,,,,,,,,,,,,,,,,,,,70.0,70.0,133.0,57.0,57.0,133.0,2.1,2.11,-160,284,0,254,191,-254,378.41424083709717,378.4143466949463,378.41762614250183,378.428190946579,378.5676620006561,378.5676620006561,378.5676620006561,378.5676620006561,378.5676620006561,378.5676620006561,378.5676620006561,380.2175347805023,2,1.7723817825317383,None,,,,,,,,,,,,,,,,,,93,2,2025-02-24_13h18.19.695,comp,2024.2.4,55.191115321859044,2025-02-24 13h21.36.391811 -0500,
121,121,0,critical,hdw,20.0,2.1,upper,200.0,125.0,141.0,141.0,125.0,200.0,3,1.3934814929962158,None,,,,,0,0,0,0,0,121,121,47,380.23339676856995,,,,,,,,,,,,,,,,,,,,,,,,,,,,,,,,,,,,,,,,,,,,,,,,,,,,,,,,,,,,,,,,,,,,,,,,,,,,,,,,,200.0,125.0,141.0,141.0,125.0,200.0,2.1,2.12,-229,-289,0,-258,266,280,380.21914529800415,380.2192714214325,380.2225785255432,380.23339676856995,380.386403799057,380.386403799057,380.386403799057,380.386403799057,380.386403799057,380.386403799057,380.386403799057,381.64081835746765,3,1.3934814929962158,None,,,,,,,,,,,,,,,,,,93,2,2025-02-24_13h18.19.695,comp,2024.2.4,55.191115321859044,2025-02-24 13h21.36.391811 -0500,
122,122,0,critical,hdw,20.0,3.0,lower,133.0,57.0,78.0,78.0,57.0,133.0,3,1.408031940460205,None,,,,,0,0,0,0,0,122,122,116,381.65653109550476,,,,,,,,,,,,,,,,,,,,,,,,,,,,,,,,,,,,,,,,,,,,,,,,,,,,,,,,,,,,,,,,,,,,,,,,,,,,,,,,,133.0,57.0,78.0,78.0,57.0,133.0,3.0,3.2,-164,-280,0,-10,202,259,381.6427299976349,381.64287972450256,381.64619541168213,381.65653109550476,381.809410572052,381.809410572052,381.809410572052,381.809410572052,381.809410572052,381.809410572052,381.809410572052,383.077397108078,3,1.408031940460205,None,,,,,,,,,,,,,,,,,,93,2,2025-02-24_13h18.19.695,comp,2024.2.4,55.191115321859044,2025-02-24 13h21.36.391811 -0500,
123,123,0,filler_square,None,None,None,None,None,None,None,None,None,None,2,2.3514275550842285,None,,,,,0,0,0,0,0,123,123,202,383.097393989563,,,,,,,,,,,,,,,,,,,,,,,,,,,,,,,,,,,,,,,,,,,,,,,,,,,,,,,,,,,,,,,,,,,,,,,,,,,,,,,,,153.07442379188507,140.6829654024193,155.58415239835676,155.58415239835676,67.9335555211457,128.09827649737866,1.0,1.3,236,-266,480,-268,718,-282,383.0794372558594,383.0795178413391,383.0827534198761,383.097393989563,383.23835253715515,383.23835253715515,383.23835253715515,383.23835253715515,383.23835253715515,383.23835253715515,383.23835253715515,385.45783853530884,2,2.3514275550842285,None,,,,,,,,,,,,,,,,,,93,2,2025-02-24_13h18.19.695,comp,2024.2.4,55.191115321859044,2025-02-24 13h21.36.391811 -0500,
124,124,0,filler_random,None,None,None,None,None,None,None,None,None,None,2,1.9940836429595947,None,,,,,0,0,0,0,0,124,124,153,385.47855854034424,,,,,,,,,,,,,,,,,,,,,,,,,,,,,,,,,,,,,,,,,,,,,,,,,,,,,,,,,,,,,,,,,,,,,,,,,,,,,,,,,114.84952143137556,124.9233898035816,195.73650473380675,150.03682261788964,118.63146724987283,174.44177046866952,3.0,3.1,-233,276,0,-7,258,-284,385.4599266052246,385.46000933647156,385.4629588127136,385.47855854034424,385.62255096435547,385.62255096435547,385.62255096435547,385.62255096435547,385.62255096435547,385.62255096435547,385.62255096435547,387.4886095523834,2,1.9940836429595947,None,,,,,,,,,,,,,,,,,,93,2,2025-02-24_13h18.19.695,comp,2024.2.4,55.191115321859044,2025-02-24 13h21.36.391811 -0500,
125,125,0,filler_random,None,None,None,None,None,None,None,None,None,None,2,1.1087124347686768,None,,,,,0,0,0,0,0,125,125,143,387.5083019733429,,,,,,,,,,,,,,,,,,,,,,,,,,,,,,,,,,,,,,,,,,,,,,,,,,,,,,,,,,,,,,,,,,,,,,,,,,,,,,,,,63.33961634258765,123.07190934171527,116.31118586823553,176.92769406008017,97.34637746565954,106.66219884085402,3.0,3.1,-246,282,0,11,238,-266,387.4902286529541,387.49034786224365,387.4933931827545,387.5083019733429,387.65856194496155,387.65856194496155,387.65856194496155,387.65856194496155,387.65856194496155,387.65856194496155,387.65856194496155,388.61992621421814,2,1.1087124347686768,None,,,,,,,,,,,,,,,,,,93,2,2025-02-24_13h18.19.695,comp,2024.2.4,55.191115321859044,2025-02-24 13h21.36.391811 -0500,
126,126,0,catch,None,None,None,None,None,None,None,None,None,None,1,0.9720492362976074,None,,,,,0,0,0,0,0,126,126,123,388.63676166534424,,,,,,,,,,,,,,,,,,,,,,,,,,,,,,,,,,,,,,,,,,,,,,,,,,,,,,,,,,,,,,,,,,,,,,,,,,,,,,,,,132,193,66,124,123,67,3.0,3.1,-254,264,0,-1,192,-271,388.6218078136444,388.6218855381012,388.62471747398376,388.63676166534424,388.7726323604584,388.7726323604584,388.7726323604584,388.7726323604584,388.7726323604584,388.7726323604584,388.7726323604584,389.6255419254303,1,0.9720492362976074,None,,,,,,,,,,,,,,,,,,93,2,2025-02-24_13h18.19.695,comp,2024.2.4,55.191115321859044,2025-02-24 13h21.36.391811 -0500,
127,127,0,critical,hdw,20.0,3.0,upper,200.0,125.0,141.0,141.0,125.0,200.0,3,1.2554926872253418,None,,,,,0,0,0,0,0,127,127,117,389.64114141464233,,,,,,,,,,,,,,,,,,,,,,,,,,,,,,,,,,,,,,,,,,,,,,,,,,,,,,,,,,,,,,,,,,,,,,,,,,,,,,,,,200.0,125.0,141.0,141.0,125.0,200.0,3.0,3.2,-229,-282,0,15,266,289,389.6273994445801,389.6275453567505,389.63078212738037,389.64114141464233,389.79041624069214,389.79041624069214,389.79041624069214,389.79041624069214,389.79041624069214,389.79041624069214,389.79041624069214,390.90720081329346,3,1.2554926872253418,None,,,,,,,,,,,,,,,,,,93,2,2025-02-24_13h18.19.695,comp,2024.2.4,55.191115321859044,2025-02-24 13h21.36.391811 -0500,
128,128,0,critical,hdw,35.0,2.1,upper,200.0,125.0,127.0,127.0,125.0,200.0,3,1.365635633468628,None,,,,,0,0,0,0,0,128,128,45,390.9233810901642,,,,,,,,,,,,,,,,,,,,,,,,,,,,,,,,,,,,,,,,,,,,,,,,,,,,,,,,,,,,,,,,,,,,,,,,,,,,,,,,,200.0,125.0,127.0,127.0,125.0,200.0,2.1,2.12,-222,-273,0,-254,260,290,390.90877389907837,390.908855676651,390.91235852241516,390.9233810901642,391.0740125179291,391.0740125179291,391.0740125179291,391.0740125179291,391.0740125179291,391.0740125179291,391.0740125179291,392.29133772850037,3,1.365635633468628,None,,,,,,,,,,,,,,,,,,93,2,2025-02-24_13h18.19.695,comp,2024.2.4,55.191115321859044,2025-02-24 13h21.36.391811 -0500,
129,129,0,filler_square,None,None,None,None,None,None,None,None,None,None,1,1.3473577499389648,None,,,,,0,0,0,0,0,129,129,188,392.3092517852783,,,,,,,,,,,,,,,,,,,,,,,,,,,,,,,,,,,,,,,,,,,,,,,,,,,,,,,,,,,,,,,,,,,,,,,,,,,,,,,,,152.2008911118515,152.2008911118515,96.05149128875144,148.0652902729286,102.16160769595712,60.53824738200909,1.0,1.2,-246,-16,0,-15,200,15,392.2931914329529,392.29327297210693,392.2966024875641,392.3092517852783,392.45714807510376,392.45714807510376,392.45714807510376,392.45714807510376,392.45714807510376,392.45714807510376,392.45714807510376,393.67810559272766,1,1.3473577499389648,None,,,,,,,,,,,,,,,,,,93,2,2025-02-24_13h18.19.695,comp,2024.2.4,55.191115321859044,2025-02-24 13h21.36.391811 -0500,
130,130,0,critical,dhw,20.0,4.0,lower,78.0,78.0,133.0,57.0,57.0,133.0,2,3.2544307708740234,None,,,,,0,0,0,0,0,130,130,58,393.6988437175751,,,,,,,,,,,,,,,,,,,,,,,,,,,,,,,,,,,,,,,,,,,,,,,,,,,,,,,,,,,,,,,,,,,,,,,,,,,,,,,,,78.0,78.0,133.0,57.0,57.0,133.0,4.0,4.1,-164,-275,0,0,191,-276,393.67974615097046,393.6798720359802,393.6835401058197,393.6988437175751,393.86079359054565,393.86079359054565,393.86079359054565,393.86079359054565,393.86079359054565,393.86079359054565,393.86079359054565,396.9616119861603,2,3.2544307708740234,None,,,,,,,,,,,,,,,,,,93,2,2025-02-24_13h18.19.695,comp,2024.2.4,55.191115321859044,2025-02-24 13h21.36.391811 -0500,
131,131,0,critical,hdw,35.0,3.0,upper,200.0,125.0,127.0,127.0,125.0,200.0,1,1.3990318775177002,None,,,,,0,0,0,0,0,131,131,111,396.9779963493347,,,,,,,,,,,,,,,,,,,,,,,,,,,,,,,,,,,,,,,,,,,,,,,,,,,,,,,,,,,,,,,,,,,,,,,,,,,,,,,,,200.0,125.0,127.0,127.0,125.0,200.0,3.0,3.1,-222,273,0,-16,260,-258,396.96349453926086,396.96363377571106,396.96717071533203,396.9779963493347,397.1283175945282,397.1283175945282,397.1283175945282,397.1283175945282,397.1283175945282,397.1283175945282,397.1283175945282,398.3845760822296,1,1.3990318775177002,None,,,,,,,,,,,,,,,,,,93,2,2025-02-24_13h18.19.695,comp,2024.2.4,55.191115321859044,2025-02-24 13h21.36.391811 -0500,
132,132,0,critical,hwd,35.0,4.0,upper,200.0,125.0,125.0,200.0,127.0,127.0,2,1.7398455142974854,None,,,,,0,0,0,0,0,132,132,101,398.4047975540161,,,,,,,,,,,,,,,,,,,,,,,,,,,,,,,,,,,,,,,,,,,,,,,,,,,,,,,,,,,,,,,,,,,,,,,,,,,,,,,,,200.0,125.0,125.0,200.0,127.0,127.0,4.0,4.2,-258,10,0,-263,260,-11,398.3860533237457,398.3861382007599,398.38907980918884,398.4047975540161,398.5397524833679,398.5397524833679,398.5397524833679,398.5397524833679,398.5397524833679,398.5397524833679,398.5397524833679,400.15944361686707,2,1.7398455142974854,None,,,,,,,,,,,,,,,,,,93,2,2025-02-24_13h18.19.695,comp,2024.2.4,55.191115321859044,2025-02-24 13h21.36.391811 -0500,
133,133,0,filler_random,None,None,None,None,None,None,None,None,None,None,3,2.2652628421783447,None,,,,,0,0,0,0,0,133,133,142,400.17587637901306,,,,,,,,,,,,,,,,,,,,,,,,,,,,,,,,,,,,,,,,,,,,,,,,,,,,,,,,,,,,,,,,,,,,,,,,,,,,,,,,,160.9257280053818,115.49909030928606,174.11220651914704,61.98548987587199,86.51759307919784,184.35360354848305,2.1,2.12,-185,-290,0,-271,219,284,400.1610186100006,400.161092042923,400.1642994880676,400.17587637901306,400.32849526405334,400.32849526405334,400.32849526405334,400.32849526405334,400.32849526405334,400.32849526405334,400.32849526405334,402.44333148002625,3,2.2652628421783447,None,,,,,,,,,,,,,,,,,,93,2,2025-02-24_13h18.19.695,comp,2024.2.4,55.191115321859044,2025-02-24 13h21.36.391811 -0500,
134,134,0,critical,whd,35.0,3.0,lower,57.0,133.0,133.0,57.0,70.0,70.0,1,1.667006254196167,None,,,,,0,0,0,0,0,134,134,86,402.46162462234497,,,,,,,,,,,,,,,,,,,,,,,,,,,,,,,,,,,,,,,,,,,,,,,,,,,,,,,,,,,,,,,,,,,,,,,,,,,,,,,,,57.0,133.0,133.0,57.0,70.0,70.0,3.0,3.1,-191,286,0,-15,160,-274,402.4447994232178,402.44487833976746,402.44800186157227,402.46162462234497,402.61173939704895,402.61173939704895,402.61173939704895,402.61173939704895,402.61173939704895,402.61173939704895,402.61173939704895,404.14520359039307,1,1.667006254196167,None,,,,,,,,,,,,,,,,,,93,2,2025-02-24_13h18.19.695,comp,2024.2.4,55.191115321859044,2025-02-24 13h21.36.391811 -0500,
135,135,0,critical,hdw,35.0,2.1,lower,133.0,57.0,70.0,70.0,57.0,133.0,3,1.7011303901672363,None,,,,,0,0,0,0,0,135,135,44,404.16375708580017,,,,,,,,,,,,,,,,,,,,,,,,,,,,,,,,,,,,,,,,,,,,,,,,,,,,,,,,,,,,,,,,,,,,,,,,,,,,,,,,,133.0,57.0,70.0,70.0,57.0,133.0,2.1,2.11,-160,257,0,275,198,-262,404.1467196941376,404.1467938423157,404.1499125957489,404.16375708580017,404.31712102890015,404.31712102890015,404.31712102890015,404.31712102890015,404.31712102890015,404.31712102890015,404.31712102890015,405.87665581703186,3,1.7011303901672363,None,,,,,,,,,,,,,,,,,,93,2,2025-02-24_13h18.19.695,comp,2024.2.4,55.191115321859044,2025-02-24 13h21.36.391811 -0500,
136,136,0,filler_random,None,None,None,None,None,None,None,None,None,None,1,0.9549789428710938,None,,,,,0,0,0,0,0,136,136,151,405.89340925216675,,,,,,,,,,,,,,,,,,,,,,,,,,,,,,,,,,,,,,,,,,,,,,,,,,,,,,,,,,,,,,,,,,,,,,,,,,,,,,,,,152.79817107194887,197.06889838012165,138.35486584127432,104.57020653248708,157.2379591927845,79.52894213319733,1.0,1.2,-247,-15,0,-2,188,13,405.8783175945282,405.87839937210083,405.88125562667847,405.89340925216675,406.0432462692261,406.0432462692261,406.0432462692261,406.0432462692261,406.0432462692261,406.0432462692261,406.0432462692261,406.86165714263916,1,0.9549789428710938,None,,,,,,,,,,,,,,,,,,93,2,2025-02-24_13h18.19.695,comp,2024.2.4,55.191115321859044,2025-02-24 13h21.36.391811 -0500,
137,137,0,critical,whd,35.0,4.0,upper,125.0,200.0,200.0,125.0,127.0,127.0,1,1.5080034732818604,None,,,,,0,0,0,0,0,137,137,89,406.8768103122711,,,,,,,,,,,,,,,,,,,,,,,,,,,,,,,,,,,,,,,,,,,,,,,,,,,,,,,,,,,,,,,,,,,,,,,,,,,,,,,,,125.0,200.0,200.0,125.0,127.0,127.0,4.0,4.1,-258,-273,0,10,222,-266,406.862673997879,406.86272072792053,406.86464071273804,406.8768103122711,407.0314874649048,407.0314874649048,407.0314874649048,407.0314874649048,407.0314874649048,407.0314874649048,407.0314874649048,408.38688492774963,1,1.5080034732818604,None,,,,,,,,,,,,,,,,,,93,2,2025-02-24_13h18.19.695,comp,2024.2.4,55.191115321859044,2025-02-24 13h21.36.391811 -0500,
138,138,0,critical,whd,35.0,4.0,lower,57.0,133.0,133.0,57.0,70.0,70.0,2,1.5222251415252686,None,,,,,0,0,0,0,0,138,138,88,408.4063937664032,,,,,,,,,,,,,,,,,,,,,,,,,,,,,,,,,,,,,,,,,,,,,,,,,,,,,,,,,,,,,,,,,,,,,,,,,,,,,,,,,57.0,133.0,133.0,57.0,70.0,70.0,4.0,4.1,-191,-285,0,13,160,-284,408.38845658302307,408.38853430747986,408.39147329330444,408.4063937664032,408.54659032821655,408.54659032821655,408.54659032821655,408.54659032821655,408.54659032821655,408.54659032821655,408.54659032821655,409.94791293144226,2,1.5222251415252686,None,,,,,,,,,,,,,,,,,,93,2,2025-02-24_13h18.19.695,comp,2024.2.4,55.191115321859044,2025-02-24 13h21.36.391811 -0500,
139,139,0,critical,hdw,20.0,2.1,lower,133.0,57.0,78.0,78.0,57.0,133.0,1,2.0722885131835938,None,,,,,0,0,0,0,0,139,139,46,409.96848940849304,,,,,,,,,,,,,,,,,,,,,,,,,,,,,,,,,,,,,,,,,,,,,,,,,,,,,,,,,,,,,,,,,,,,,,,,,,,,,,,,,133.0,57.0,78.0,78.0,57.0,133.0,2.1,2.11,-164,264,0,288,202,-254,409.9496030807495,409.94973707199097,409.9530780315399,409.96848940849304,410.1126117706299,410.1126117706299,410.1126117706299,410.1126117706299,410.1126117706299,410.1126117706299,410.1126117706299,412.04992866516113,1,2.0722885131835938,None,,,,,,,,,,,,,,,,,,93,2,2025-02-24_13h18.19.695,comp,2024.2.4,55.191115321859044,2025-02-24 13h21.36.391811 -0500,
