thisN,thisTrialN,thisRepN,effect,order,distance,config,diag,h_1,w_1,h_2,w_2,h_3,w_3,rect_choice.keys,rect_choice.rt,rect_choice.duration,instructions_loop.thisRepN,instructions_loop.thisTrialN,instructions_loop.thisN,instructions_loop.thisIndex,blocks.thisRepN,blocks.thisTrialN,blocks.thisN,blocks.thisIndex,trials.thisRepN,trials.thisTrialN,trials.thisN,trials.thisIndex,thisRow.t,notes,consent.started,agree_button.started,decline_button.started,consent_img.started,mouse.started,consent.stopped,agree_button.numClicks,agree_button.timesOn,agree_button.timesOff,decline_button.numClicks,decline_button.timesOn,decline_button.timesOff,mouse.x,mouse.y,mouse.leftButton,mouse.midButton,mouse.rightButton,mouse.time,mouse.clicked_name,exp_params.started,exp_params.stopped,welcome.started,welcome_text.started,welcome.stopped,instructions_1.started,instructions_1_text_1.started,instructions_1_text_2.started,key_resp.started,instructions_1.stopped,instructions_loop.key_resp.keys,instructions_loop.key_resp.rt,instructions_loop.key_resp.duration,instructions_2.started,instructions_2_text_1.started,instructions_2_text_2.started,key_resp_2.started,instructions_2.stopped,instructions_loop.key_resp_2.keys,instructions_loop.key_resp_2.rt,instructions_loop.key_resp_2.duration,instructions_3.started,instructions_3_text_1.started,r1_instr3.started,r2_instr3.started,r3_instr3.started,r1_instr3_label.started,r2_instr3_label.started,r3_instr3_label.started,instructions_3_text_3.started,instructions_3_text_4.started,key_resp_3.started,instructions_3.stopped,instructions_loop.key_resp_3.keys,instructions_loop.key_resp_3.rt,instructions_loop.key_resp_3.duration,instructions_4.started,instructions_4_text_1.started,instructions_4_text_3.started,instructions_4_text_2.started,key_resp_4.started,instructions_4.stopped,instructions_loop.key_resp_4.keys,instructions_loop.key_resp_4.rt,instructions_loop.key_resp_4.duration,instructions_5.started,instructions_5_text_1.started,instructions_5_text_2.started,key_resp_5.started,instructions_5.stopped,instructions_loop.key_resp_5.keys,instructions_loop.key_resp_5.rt,instructions_loop.key_resp_5.duration,start_exp.started,start_exp_text.started,key_resp_6.started,start_exp.stopped,key_resp_6.keys,key_resp_6.rt,key_resp_6.duration,h_1_tmp,w_1_tmp,h_2_tmp,w_2_tmp,h_3_tmp,w_3_tmp,config_tmp,config_tmp_1,r_1_x,r_1_y,r_2_x,r_2_y,r_3_x,r_3_y,pre_trial.started,pre_trial.stopped,choice_trial.started,rect_choice.started,r_1.started,r_2.started,r_3.started,r_1_label.started,r_2_label.started,r_3_label.started,prompt.started,choice_trial.stopped,trials.rect_choice.keys,trials.rect_choice.rt,trials.rect_choice.duration,end_block.started,end_block_text.started,end_block.stopped,end.started,end_text.started,key_resp_7.started,end.stopped,key_resp_7.keys,key_resp_7.rt,key_resp_7.duration,debriefing.started,debrief_form.started,end_debrief.started,debriefing.stopped,end_debrief.keys,end_debrief.rt,end_debrief.duration,participant,computer,date,expName,psychopyVersion,frameRate,expStart,
,,,,,,,,,,,,,,,,,,,,,,,,,,,,,,,0.018617868423461914,0.035858869552612305,0.035858869552612305,0.035858869552612305,0.01842331886291504,4.789368391036987,1,[4.750691652297974],[4.750748634338379],0,,,[-95.0],[-498.0],[1],[0],[0],[4.770324945449829],['agree_button'],,,,,,,,,,,,,,,,,,,,,,,,,,,,,,,,,,,,,,,,,,,,,,,,,,,,,,,,,,,,,,,,,,,,,,,,,,,,,,,,,,,,,,,,,,,,,,,,,,,,,,,,,,,95,4,2025-02-24_13h18.48.238,comp,2024.2.4,56.36679572481989,2025-02-24 13h21.57.185092 -0500,
,,,,,,,,,,,,,,,,,,,,,,,,,,,,,,,,,,,,,,,,,,,,,,,,,,4.789915323257446,4.7899863719940186,,,,,,,,,,,,,,,,,,,,,,,,,,,,,,,,,,,,,,,,,,,,,,,,,,,,,,,,,,,,,,,,,,,,,,,,,,,,,,,,,,,,,,,,,,,,,,,,,,,,,,,,,95,4,2025-02-24_13h18.48.238,comp,2024.2.4,56.36679572481989,2025-02-24 13h21.57.185092 -0500,
,,,,,,,,,,,,,,,,,,,,,,,,,,,,,,,,,,,,,,,,,,,,,,,,,,,,4.79003119468689,4.803491592407227,6.798398733139038,,,,,,,,,,,,,,,,,,,,,,,,,,,,,,,,,,,,,,,,,,,,,,,,,,,,,,,,,,,,,,,,,,,,,,,,,,,,,,,,,,,,,,,,,,,,,,,,,,,,,,95,4,2025-02-24_13h18.48.238,comp,2024.2.4,56.36679572481989,2025-02-24 13h21.57.185092 -0500,
0,0,0,,,,,,,,,,,,,,,0,0,0,0,,,,,,,,,6.816013813018799,,,,,,,,,,,,,,,,,,,,,,,,,,6.7993323802948,6.816013813018799,6.816013813018799,8.300786972045898,12.102992296218872,space,3.78147554397583,None,12.10314655303955,12.11876916885376,12.11876916885376,13.602534532546997,20.30439019203186,space,6.697203159332275,None,20.304547548294067,20.33832597732544,20.33832597732544,20.33832597732544,20.33832597732544,20.33832597732544,20.33832597732544,20.33832597732544,20.33832597732544,20.33832597732544,21.80524516105652,31.439756870269775,space,9.628841876983643,None,31.43992304801941,31.459845781326294,31.459845781326294,31.459845781326294,32.94070887565613,48.66622495651245,space,15.709208011627197,None,48.66638779640198,48.68105101585388,48.68105101585388,50.1690878868103,51.515562772750854,space,1.3372881412506104,None,51.51578974723816,51.530972719192505,51.530972719192505,53.015960693359375,space,1.4708337783813477,None,,,,,,,,,,,,,,,,,,,,,,,,,,,,,,,,,,,,,,,,,,,,,,,95,4,2025-02-24_13h18.48.238,comp,2024.2.4,56.36679572481989,2025-02-24 13h21.57.185092 -0500,
0,0,0,critical,dwh,20.0,3.0,lower,78.0,78.0,57.0,133.0,133.0,57.0,2,4.270035266876221,None,,,,,0,0,0,0,0,0,0,68,53.09212279319763,,,,,,,,,,,,,,,,,,,,,,,,,,,,,,,,,,,,,,,,,,,,,,,,,,,,,,,,,,,,,,,,,,,,,,,,,,,,,,,,,78.0,78.0,57.0,133.0,133.0,57.0,3.0,3.2,-202,-261,0,16,191,269,53.07620978355408,53.076239585876465,53.07730412483215,53.09212279319763,53.24242544174194,53.24242544174194,53.24242544174194,53.24242544174194,53.24242544174194,53.24242544174194,53.24242544174194,57.36554670333862,2,4.270035266876221,None,,,,,,,,,,,,,,,,,,95,4,2025-02-24_13h18.48.238,comp,2024.2.4,56.36679572481989,2025-02-24 13h21.57.185092 -0500,
1,1,0,filler_random,None,None,None,None,None,None,None,None,None,None,2,2.3801541328430176,None,,,,,0,0,0,0,0,1,1,161,57.382349491119385,,,,,,,,,,,,,,,,,,,,,,,,,,,,,,,,,,,,,,,,,,,,,,,,,,,,,,,,,,,,,,,,,,,,,,,,,,,,,,,,,128.31125714768345,88.31689295757079,171.2654709277619,185.89803638400713,133.00555400991576,164.41674455183,1.0,1.1,-713,275,-480,286,-209,270,57.367284536361694,57.3673620223999,57.37026858329773,57.382349491119385,57.523221254348755,57.523221254348755,57.523221254348755,57.523221254348755,57.523221254348755,57.523221254348755,57.523221254348755,59.76943254470825,2,2.3801541328430176,None,,,,,,,,,,,,,,,,,,95,4,2025-02-24_13h18.48.238,comp,2024.2.4,56.36679572481989,2025-02-24 13h21.57.185092 -0500,
2,2,0,filler_random,None,None,None,None,None,None,None,None,None,None,1,2.816014289855957,None,,,,,0,0,0,0,0,2,2,133,59.78579020500183,,,,,,,,,,,,,,,,,,,,,,,,,,,,,,,,,,,,,,,,,,,,,,,,,,,,,,,,,,,,,,,,,,,,,,,,,,,,,,,,,181.06146070205702,177.62056575474173,112.50492867035769,107.55419862550542,166.6429163844246,57.79748806897526,1.0,1.2,-239,-2,0,-10,179,5,59.77132558822632,59.77140831947327,59.774821758270264,59.78579020500183,59.935574531555176,59.935574531555176,59.935574531555176,59.935574531555176,59.935574531555176,59.935574531555176,59.935574531555176,62.61877655982971,1,2.816014289855957,None,,,,,,,,,,,,,,,,,,95,4,2025-02-24_13h18.48.238,comp,2024.2.4,56.36679572481989,2025-02-24 13h21.57.185092 -0500,
3,3,0,critical,whd,20.0,2.1,lower,57.0,133.0,133.0,57.0,78.0,78.0,1,6.010186672210693,None,,,,,0,0,0,0,0,3,3,14,62.63448524475098,,,,,,,,,,,,,,,,,,,,,,,,,,,,,,,,,,,,,,,,,,,,,,,,,,,,,,,,,,,,,,,,,,,,,,,,,,,,,,,,,57.0,133.0,133.0,57.0,78.0,78.0,2.1,2.11,-191,263,0,270,164,-257,62.62024521827698,62.62032341957092,62.623536348342896,62.63448524475098,62.78315830230713,62.78315830230713,62.78315830230713,62.78315830230713,62.78315830230713,62.78315830230713,62.78315830230713,68.64694714546204,1,6.010186672210693,None,,,,,,,,,,,,,,,,,,95,4,2025-02-24_13h18.48.238,comp,2024.2.4,56.36679572481989,2025-02-24 13h21.57.185092 -0500,
4,4,0,filler_random,None,None,None,None,None,None,None,None,None,None,2,1.7386434078216553,None,,,,,0,0,0,0,0,4,4,132,68.66343331336975,,,,,,,,,,,,,,,,,,,,,,,,,,,,,,,,,,,,,,,,,,,,,,,,,,,,,,,,,,,,,,,,,,,,,,,,,,,,,,,,,86.93612426047324,192.2874207350886,188.3602047307112,166.57874770672535,96.01188159159697,170.52641414751577,2.1,2.12,-275,-256,0,-271,265,264,68.64888453483582,68.64896392822266,68.65219640731812,68.66343331336975,68.80607986450195,68.80607986450195,68.80607986450195,68.80607986450195,68.80607986450195,68.80607986450195,68.80607986450195,70.42113208770752,2,1.7386434078216553,None,,,,,,,,,,,,,,,,,,95,4,2025-02-24_13h18.48.238,comp,2024.2.4,56.36679572481989,2025-02-24 13h21.57.185092 -0500,
5,5,0,critical,hwd,20.0,4.0,upper,200.0,125.0,125.0,200.0,141.0,141.0,2,10.716132164001465,None,,,,,0,0,0,0,0,5,5,107,70.43878531455994,,,,,,,,,,,,,,,,,,,,,,,,,,,,,,,,,,,,,,,,,,,,,,,,,,,,,,,,,,,,,,,,,,,,,,,,,,,,,,,,,200.0,125.0,125.0,200.0,141.0,141.0,4.0,4.2,-258,-13,0,-273,266,-9,70.42268180847168,70.42275953292847,70.42587542533875,70.43878531455994,70.59006571769714,70.59006571769714,70.59006571769714,70.59006571769714,70.59006571769714,70.59006571769714,70.59006571769714,81.16107249259949,2,10.716132164001465,None,,,,,,,,,,,,,,,,,,95,4,2025-02-24_13h18.48.238,comp,2024.2.4,56.36679572481989,2025-02-24 13h21.57.185092 -0500,
6,6,0,critical,hwd,20.0,2.1,upper,200.0,125.0,125.0,200.0,141.0,141.0,3,5.064809560775757,None,,,,,0,0,0,0,0,6,6,43,81.17724847793579,,,,,,,,,,,,,,,,,,,,,,,,,,,,,,,,,,,,,,,,,,,,,,,,,,,,,,,,,,,,,,,,,,,,,,,,,,,,,,,,,200.0,125.0,125.0,200.0,141.0,141.0,2.1,2.11,-258,256,0,269,266,-276,81.16269993782043,81.16279697418213,81.16627502441406,81.17724847793579,81.32574033737183,81.32574033737183,81.32574033737183,81.32574033737183,81.32574033737183,81.32574033737183,81.32574033737183,86.24742770195007,3,5.064809560775757,None,,,,,,,,,,,,,,,,,,95,4,2025-02-24_13h18.48.238,comp,2024.2.4,56.36679572481989,2025-02-24 13h21.57.185092 -0500,
7,7,0,filler_square,None,None,None,None,None,None,None,None,None,None,3,1.8890798091888428,None,,,,,0,0,0,0,0,7,7,180,86.26467728614807,,,,,,,,,,,,,,,,,,,,,,,,,,,,,,,,,,,,,,,,,,,,,,,,,,,,,,,,,,,,,,,,,,,,,,,,,,,,,,,,,129.49472643087907,81.48110626639864,88.9184774477759,165.33732413348787,179.33796919358906,179.33796919358906,2.1,2.11,-219,290,0,256,268,-265,86.24920630455017,86.24928522109985,86.25301218032837,86.26467728614807,86.41253089904785,86.41253089904785,86.41253089904785,86.41253089904785,86.41253089904785,86.41253089904785,86.41253089904785,88.17176008224487,3,1.8890798091888428,None,,,,,,,,,,,,,,,,,,95,4,2025-02-24_13h18.48.238,comp,2024.2.4,56.36679572481989,2025-02-24 13h21.57.185092 -0500,
8,8,0,filler_random,None,None,None,None,None,None,None,None,None,None,3,1.8640401363372803,None,,,,,0,0,0,0,0,8,8,167,88.18887662887573,,,,,,,,,,,,,,,,,,,,,,,,,,,,,,,,,,,,,,,,,,,,,,,,,,,,,,,,,,,,,,,,,,,,,,,,,,,,,,,,,59.61750582051311,99.33430107928157,70.7217023881491,63.59916980695463,96.94415920602756,154.8592659165094,3.0,3.1,-177,256,0,-5,205,-288,88.17347145080566,88.17354893684387,88.17642951011658,88.18887662887573,88.32636594772339,88.32636594772339,88.32636594772339,88.32636594772339,88.32636594772339,88.32636594772339,88.32636594772339,90.05806612968445,3,1.8640401363372803,None,,,,,,,,,,,,,,,,,,95,4,2025-02-24_13h18.48.238,comp,2024.2.4,56.36679572481989,2025-02-24 13h21.57.185092 -0500,
9,9,0,filler_random,None,None,None,None,None,None,None,None,None,None,2,2.18941593170166,None,,,,,0,0,0,0,0,9,9,148,90.0763053894043,,,,,,,,,,,,,,,,,,,,,,,,,,,,,,,,,,,,,,,,,,,,,,,,,,,,,,,,,,,,,,,,,,,,,,,,,,,,,,,,,96.49893722832525,119.00528009956822,152.6192265404717,99.11415745537923,113.57012411654624,111.40664489814675,4.0,4.2,-205,-3,0,-287,201,18,90.05974864959717,90.05982804298401,90.06274461746216,90.0763053894043,90.22720193862915,90.22720193862915,90.22720193862915,90.22720193862915,90.22720193862915,90.22720193862915,90.22720193862915,92.28381609916687,2,2.18941593170166,None,,,,,,,,,,,,,,,,,,95,4,2025-02-24_13h18.48.238,comp,2024.2.4,56.36679572481989,2025-02-24 13h21.57.185092 -0500,
10,10,0,filler_random,None,None,None,None,None,None,None,None,None,None,1,3.6504011154174805,None,,,,,0,0,0,0,0,10,10,141,92.3043429851532,,,,,,,,,,,,,,,,,,,,,,,,,,,,,,,,,,,,,,,,,,,,,,,,,,,,,,,,,,,,,,,,,,,,,,,,,,,,,,,,,155.01092869987417,140.3983912547714,98.91192105267592,169.84549073345784,129.65502728930392,141.9589089156714,4.0,4.1,-251,-282,0,-9,252,-288,92.28574419021606,92.28582167625427,92.28901743888855,92.3043429851532,92.4448139667511,92.4448139667511,92.4448139667511,92.4448139667511,92.4448139667511,92.4448139667511,92.4448139667511,95.96339774131775,1,3.6504011154174805,None,,,,,,,,,,,,,,,,,,95,4,2025-02-24_13h18.48.238,comp,2024.2.4,56.36679572481989,2025-02-24 13h21.57.185092 -0500,
11,11,0,filler_random,None,None,None,None,None,None,None,None,None,None,2,4.230494976043701,None,,,,,0,0,0,0,0,11,11,166,95.97948861122131,,,,,,,,,,,,,,,,,,,,,,,,,,,,,,,,,,,,,,,,,,,,,,,,,,,,,,,,,,,,,,,,,,,,,,,,,,,,,,,,,67.48160776460148,132.80416192445657,120.56900269343132,97.83171553454133,76.05653870913416,110.32411457459156,4.0,4.1,-211,-263,0,-11,200,-260,95.96522450447083,95.96530175209045,95.96866536140442,95.97948861122131,96.129399061203,96.129399061203,96.129399061203,96.129399061203,96.129399061203,96.129399061203,96.129399061203,100.21530818939209,2,4.230494976043701,None,,,,,,,,,,,,,,,,,,95,4,2025-02-24_13h18.48.238,comp,2024.2.4,56.36679572481989,2025-02-24 13h21.57.185092 -0500,
12,12,0,critical,whd,35.0,2.1,upper,125.0,200.0,200.0,125.0,127.0,127.0,2,2.7369256019592285,None,,,,,0,0,0,0,0,12,12,37,100.23347616195679,,,,,,,,,,,,,,,,,,,,,,,,,,,,,,,,,,,,,,,,,,,,,,,,,,,,,,,,,,,,,,,,,,,,,,,,,,,,,,,,,125.0,200.0,200.0,125.0,127.0,127.0,2.1,2.12,-258,-252,0,-287,222,254,100.21685743331909,100.21693515777588,100.22012448310852,100.23347616195679,100.38012266159058,100.38012266159058,100.38012266159058,100.38012266159058,100.38012266159058,100.38012266159058,100.38012266159058,102.9754490852356,2,2.7369256019592285,None,,,,,,,,,,,,,,,,,,95,4,2025-02-24_13h18.48.238,comp,2024.2.4,56.36679572481989,2025-02-24 13h21.57.185092 -0500,
13,13,0,catch,None,None,None,None,None,None,None,None,None,None,2,1.6456177234649658,None,,,,,0,0,0,0,0,13,13,125,102.99696254730225,,,,,,,,,,,,,,,,,,,,,,,,,,,,,,,,,,,,,,,,,,,,,,,,,,,,,,,,,,,,,,,,,,,,,,,,,,,,,,,,,100,90,167,158,58,132,2.2,2.21,-220,-281,0,263,241,255,102.97770142555237,102.97777986526489,102.98104453086853,102.99696254730225,103.13155364990234,103.13155364990234,103.13155364990234,103.13155364990234,103.13155364990234,103.13155364990234,103.13155364990234,104.65031003952026,2,1.6456177234649658,None,,,,,,,,,,,,,,,,,,95,4,2025-02-24_13h18.48.238,comp,2024.2.4,56.36679572481989,2025-02-24 13h21.57.185092 -0500,
14,14,0,filler_square,None,None,None,None,None,None,None,None,None,None,1,2.383624792098999,None,,,,,0,0,0,0,0,14,14,175,104.66626977920532,,,,,,,,,,,,,,,,,,,,,,,,,,,,,,,,,,,,,,,,,,,,,,,,,,,,,,,,,,,,,,,,,,,,,,,,,,,,,,,,,70.8133188037246,75.85065494704855,78.36531154446308,78.36531154446308,66.14310911736005,69.88360703354772,4.0,4.2,-173,1,0,-269,170,-13,104.65220904350281,104.65233778953552,104.65557837486267,104.66626977920532,104.81449770927429,104.81449770927429,104.81449770927429,104.81449770927429,104.81449770927429,104.81449770927429,104.81449770927429,107.06454873085022,1,2.383624792098999,None,,,,,,,,,,,,,,,,,,95,4,2025-02-24_13h18.48.238,comp,2024.2.4,56.36679572481989,2025-02-24 13h21.57.185092 -0500,
15,15,0,critical,wdh,20.0,3.0,upper,125.0,200.0,141.0,141.0,200.0,125.0,3,1.8892848491668701,None,,,,,0,0,0,0,0,15,15,81,107.08059573173523,,,,,,,,,,,,,,,,,,,,,,,,,,,,,,,,,,,,,,,,,,,,,,,,,,,,,,,,,,,,,,,,,,,,,,,,,,,,,,,,,125.0,200.0,141.0,141.0,200.0,125.0,3.0,3.1,-266,277,0,19,229,-259,107.06621503829956,107.06632733345032,107.06974363327026,107.08059573173523,107.23573541641235,107.23573541641235,107.23573541641235,107.23573541641235,107.23573541641235,107.23573541641235,107.23573541641235,108.98621249198914,3,1.8892848491668701,None,,,,,,,,,,,,,,,,,,95,4,2025-02-24_13h18.48.238,comp,2024.2.4,56.36679572481989,2025-02-24 13h21.57.185092 -0500,
16,16,0,filler_square,None,None,None,None,None,None,None,None,None,None,1,4.149855136871338,None,,,,,0,0,0,0,0,16,16,173,109.00405383110046,,,,,,,,,,,,,,,,,,,,,,,,,,,,,,,,,,,,,,,,,,,,,,,,,,,,,,,,,,,,,,,,,,,,,,,,,,,,,,,,,66.15665103616163,66.15665103616163,61.673485091254676,59.13479246370176,58.55511640335604,65.12418732506478,2.1,2.12,-159,-289,0,-268,158,279,108.98813915252686,108.98822021484375,108.99138402938843,109.00405383110046,109.15337705612183,109.15337705612183,109.15337705612183,109.15337705612183,109.15337705612183,109.15337705612183,109.15337705612183,113.17056083679199,1,4.149855136871338,None,,,,,,,,,,,,,,,,,,95,4,2025-02-24_13h18.48.238,comp,2024.2.4,56.36679572481989,2025-02-24 13h21.57.185092 -0500,
17,17,0,critical,dwh,35.0,4.0,lower,70.0,70.0,57.0,133.0,133.0,57.0,3,2.9511587619781494,None,,,,,0,0,0,0,0,17,17,64,113.18685460090637,,,,,,,,,,,,,,,,,,,,,,,,,,,,,,,,,,,,,,,,,,,,,,,,,,,,,,,,,,,,,,,,,,,,,,,,,,,,,,,,,70.0,70.0,57.0,133.0,133.0,57.0,4.0,4.1,-198,-258,0,-4,191,-285,113.17224955558777,113.17233061790466,113.17618751525879,113.18685460090637,113.33523511886597,113.33523511886597,113.33523511886597,113.33523511886597,113.33523511886597,113.33523511886597,113.33523511886597,116.14865636825562,3,2.9511587619781494,None,,,,,,,,,,,,,,,,,,95,4,2025-02-24_13h18.48.238,comp,2024.2.4,56.36679572481989,2025-02-24 13h21.57.185092 -0500,
18,18,0,catch,None,None,None,None,None,None,None,None,None,None,3,1.917426586151123,None,,,,,0,0,0,0,0,18,18,127,116.16537308692932,,,,,,,,,,,,,,,,,,,,,,,,,,,,,,,,,,,,,,,,,,,,,,,,,,,,,,,,,,,,,,,,,,,,,,,,,,,,,,,,,93,97,70,120,144,181,2.1,2.12,-204,-279,0,-286,246,251,116.15057229995728,116.15069150924683,116.15356612205505,116.16537308692932,116.30511450767517,116.30511450767517,116.30511450767517,116.30511450767517,116.30511450767517,116.30511450767517,116.30511450767517,118.08928680419922,3,1.917426586151123,None,,,,,,,,,,,,,,,,,,95,4,2025-02-24_13h18.48.238,comp,2024.2.4,56.36679572481989,2025-02-24 13h21.57.185092 -0500,
19,19,0,filler_square,None,None,None,None,None,None,None,None,None,None,3,1.6872546672821045,None,,,,,0,0,0,0,0,19,19,198,118.10654711723328,,,,,,,,,,,,,,,,,,,,,,,,,,,,,,,,,,,,,,,,,,,,,,,,,,,,,,,,,,,,,,,,,,,,,,,,,,,,,,,,,76.93091172407239,59.599215650770645,89.75518566139364,60.150765040781515,112.337886391309,112.337886391309,2.2,2.22,-156,261,0,-277,182,-253,118.09146523475647,118.09154534339905,118.09479784965515,118.10654711723328,118.25225901603699,118.25225901603699,118.25225901603699,118.25225901603699,118.25225901603699,118.25225901603699,118.25225901603699,119.80903267860413,3,1.6872546672821045,None,,,,,,,,,,,,,,,,,,95,4,2025-02-24_13h18.48.238,comp,2024.2.4,56.36679572481989,2025-02-24 13h21.57.185092 -0500,
20,20,0,critical,dhw,35.0,3.0,upper,127.0,127.0,200.0,125.0,125.0,200.0,3,2.68123459815979,None,,,,,0,0,0,0,0,20,20,51,119.82471060752869,,,,,,,,,,,,,,,,,,,,,,,,,,,,,,,,,,,,,,,,,,,,,,,,,,,,,,,,,,,,,,,,,,,,,,,,,,,,,,,,,127.0,127.0,200.0,125.0,125.0,200.0,3.0,3.2,-222,-257,0,20,258,270,119.81051659584045,119.81059336662292,119.81348967552185,119.82471060752869,119.96830725669861,119.96830725669861,119.96830725669861,119.96830725669861,119.96830725669861,119.96830725669861,119.96830725669861,122.52123761177063,3,2.68123459815979,None,,,,,,,,,,,,,,,,,,95,4,2025-02-24_13h18.48.238,comp,2024.2.4,56.36679572481989,2025-02-24 13h21.57.185092 -0500,
21,21,0,critical,wdh,20.0,2.1,lower,57.0,133.0,78.0,78.0,133.0,57.0,3,2.0801048278808594,None,,,,,0,0,0,0,0,21,21,10,122.53784084320068,,,,,,,,,,,,,,,,,,,,,,,,,,,,,,,,,,,,,,,,,,,,,,,,,,,,,,,,,,,,,,,,,,,,,,,,,,,,,,,,,57.0,133.0,78.0,78.0,133.0,57.0,2.1,2.12,-202,-257,0,-261,164,252,122.52294874191284,122.52308201789856,122.52652215957642,122.53784084320068,122.68692994117737,122.68692994117737,122.68692994117737,122.68692994117737,122.68692994117737,122.68692994117737,122.68692994117737,124.62229776382446,3,2.0801048278808594,None,,,,,,,,,,,,,,,,,,95,4,2025-02-24_13h18.48.238,comp,2024.2.4,56.36679572481989,2025-02-24 13h21.57.185092 -0500,
22,22,0,filler_square,None,None,None,None,None,None,None,None,None,None,1,1.6864686012268066,None,,,,,0,0,0,0,0,22,22,182,124.6434497833252,,,,,,,,,,,,,,,,,,,,,,,,,,,,,,,,,,,,,,,,,,,,,,,,,,,,,,,,,,,,,,,,,,,,,,,,,,,,,,,,,115.56390210514246,115.56390210514246,66.96137918976954,100.58774580756638,104.40562414492213,97.35162056839184,1.0,1.2,-204,16,0,17,195,19,124.62420296669006,124.62433338165283,124.62755632400513,124.6434497833252,124.78876686096191,124.78876686096191,124.78876686096191,124.78876686096191,124.78876686096191,124.78876686096191,124.78876686096191,126.34308505058289,1,1.6864686012268066,None,,,,,,,,,,,,,,,,,,95,4,2025-02-24_13h18.48.238,comp,2024.2.4,56.36679572481989,2025-02-24 13h21.57.185092 -0500,
23,23,0,critical,wdh,35.0,4.0,upper,125.0,200.0,127.0,127.0,200.0,125.0,3,1.8429276943206787,None,,,,,0,0,0,0,0,23,23,77,126.35958170890808,,,,,,,,,,,,,,,,,,,,,,,,,,,,,,,,,,,,,,,,,,,,,,,,,,,,,,,,,,,,,,,,,,,,,,,,,,,,,,,,,125.0,200.0,127.0,127.0,200.0,125.0,4.0,4.1,-260,-260,0,12,222,-269,126.34483933448792,126.34496736526489,126.34842205047607,126.35958170890808,126.50529789924622,126.50529789924622,126.50529789924622,126.50529789924622,126.50529789924622,126.50529789924622,126.50529789924622,128.20547747612,3,1.8429276943206787,None,,,,,,,,,,,,,,,,,,95,4,2025-02-24_13h18.48.238,comp,2024.2.4,56.36679572481989,2025-02-24 13h21.57.185092 -0500,
24,24,0,filler_square,None,None,None,None,None,None,None,None,None,None,3,1.9727444648742676,None,,,,,0,0,0,0,0,24,24,193,128.22202277183533,,,,,,,,,,,,,,,,,,,,,,,,,,,,,,,,,,,,,,,,,,,,,,,,,,,,,,,,,,,,,,,,,,,,,,,,,,,,,,,,,93.6693978256516,61.89935773727849,83.29272885992543,64.79300680781832,97.85500853472413,97.85500853472413,3.0,3.1,-159,270,0,-5,177,-285,128.20721292495728,128.20729207992554,128.21038055419922,128.22202277183533,128.37203669548035,128.37203669548035,128.37203669548035,128.37203669548035,128.37203669548035,128.37203669548035,128.37203669548035,130.20048093795776,3,1.9727444648742676,None,,,,,,,,,,,,,,,,,,95,4,2025-02-24_13h18.48.238,comp,2024.2.4,56.36679572481989,2025-02-24 13h21.57.185092 -0500,
25,25,0,critical,hdw,35.0,4.0,lower,133.0,57.0,70.0,70.0,57.0,133.0,1,2.0508666038513184,None,,,,,0,0,0,0,0,25,25,112,130.21698474884033,,,,,,,,,,,,,,,,,,,,,,,,,,,,,,,,,,,,,,,,,,,,,,,,,,,,,,,,,,,,,,,,,,,,,,,,,,,,,,,,,133.0,57.0,70.0,70.0,57.0,133.0,4.0,4.1,-160,-264,0,8,198,-254,130.2020559310913,130.2021358013153,130.20514559745789,130.21698474884033,130.35738444328308,130.35738444328308,130.35738444328308,130.35738444328308,130.35738444328308,130.35738444328308,130.35738444328308,132.27280521392822,1,2.0508666038513184,None,,,,,,,,,,,,,,,,,,95,4,2025-02-24_13h18.48.238,comp,2024.2.4,56.36679572481989,2025-02-24 13h21.57.185092 -0500,
26,26,0,critical,dhw,20.0,2.1,upper,141.0,141.0,200.0,125.0,125.0,200.0,2,2.9217777252197266,None,,,,,0,0,0,0,0,26,26,3,132.28904008865356,,,,,,,,,,,,,,,,,,,,,,,,,,,,,,,,,,,,,,,,,,,,,,,,,,,,,,,,,,,,,,,,,,,,,,,,,,,,,,,,,141.0,141.0,200.0,125.0,125.0,200.0,2.1,2.12,-229,-290,0,-279,258,268,132.2744677066803,132.27456140518188,132.2779881954193,132.28904008865356,132.42781734466553,132.42781734466553,132.42781734466553,132.42781734466553,132.42781734466553,132.42781734466553,132.42781734466553,135.21552801132202,2,2.9217777252197266,None,,,,,,,,,,,,,,,,,,95,4,2025-02-24_13h18.48.238,comp,2024.2.4,56.36679572481989,2025-02-24 13h21.57.185092 -0500,
27,27,0,critical,hdw,35.0,1.0,lower,133.0,57.0,70.0,70.0,57.0,133.0,3,4.3339149951934814,None,,,,,0,0,0,0,0,27,27,108,135.2360601425171,,,,,,,,,,,,,,,,,,,,,,,,,,,,,,,,,,,,,,,,,,,,,,,,,,,,,,,,,,,,,,,,,,,,,,,,,,,,,,,,,133.0,57.0,70.0,70.0,57.0,133.0,1.0,1.2,-160,-3,0,-10,198,-20,135.21713590621948,135.21724128723145,135.2207751274109,135.2360601425171,135.3806869983673,135.3806869983673,135.3806869983673,135.3806869983673,135.3806869983673,135.3806869983673,135.3806869983673,139.57981419563293,3,4.3339149951934814,None,,,,,,,,,,,,,,,,,,95,4,2025-02-24_13h18.48.238,comp,2024.2.4,56.36679572481989,2025-02-24 13h21.57.185092 -0500,
28,28,0,filler_random,None,None,None,None,None,None,None,None,None,None,3,2.462850332260132,None,,,,,0,0,0,0,0,28,28,144,139.5958275794983,,,,,,,,,,,,,,,,,,,,,,,,,,,,,,,,,,,,,,,,,,,,,,,,,,,,,,,,,,,,,,,,,,,,,,,,,,,,,,,,,165.04288192508022,156.64944624874352,163.6320643993733,99.21359692735984,174.5771384555074,184.6433001105247,4.0,4.2,-224,-18,0,-254,238,-15,139.58168601989746,139.58176517486572,139.58501529693604,139.5958275794983,139.7426953315735,139.7426953315735,139.7426953315735,139.7426953315735,139.7426953315735,139.7426953315735,139.7426953315735,142.06573486328125,3,2.462850332260132,None,,,,,,,,,,,,,,,,,,95,4,2025-02-24_13h18.48.238,comp,2024.2.4,56.36679572481989,2025-02-24 13h21.57.185092 -0500,
29,29,0,filler_square,None,None,None,None,None,None,None,None,None,None,1,2.248741865158081,None,,,,,0,0,0,0,0,29,29,174,142.08168959617615,,,,,,,,,,,,,,,,,,,,,,,,,,,,,,,,,,,,,,,,,,,,,,,,,,,,,,,,,,,,,,,,,,,,,,,,,,,,,,,,,124.74181581797384,124.74181581797384,79.19372879405093,96.4855400395279,66.85471643448551,62.31614044360911,1.0,1.2,-207,-12,0,-2,175,-17,142.06746435165405,142.06754207611084,142.07087874412537,142.08168959617615,142.2291464805603,142.2291464805603,142.2291464805603,142.2291464805603,142.2291464805603,142.2291464805603,142.2291464805603,144.33318781852722,1,2.248741865158081,None,,,,,,,,,,,,,,,,,,95,4,2025-02-24_13h18.48.238,comp,2024.2.4,56.36679572481989,2025-02-24 13h21.57.185092 -0500,
30,30,0,filler_square,None,None,None,None,None,None,None,None,None,None,2,5.2447669506073,None,,,,,0,0,0,0,0,30,30,171,144.34971833229065,,,,,,,,,,,,,,,,,,,,,,,,,,,,,,,,,,,,,,,,,,,,,,,,,,,,,,,,,,,,,,,,,,,,,,,,,,,,,,,,,73.24368875434547,83.93092152336163,181.5043293139492,181.5043293139492,57.07100802964875,75.21496500032697,3.0,3.1,-229,281,0,11,224,-281,144.3350043296814,144.33510518074036,144.33799362182617,144.34971833229065,144.5005326271057,144.5005326271057,144.5005326271057,144.5005326271057,144.5005326271057,144.5005326271057,144.5005326271057,149.60203051567078,2,5.2447669506073,None,,,,,,,,,,,,,,,,,,95,4,2025-02-24_13h18.48.238,comp,2024.2.4,56.36679572481989,2025-02-24 13h21.57.185092 -0500,
31,31,0,catch,None,None,None,None,None,None,None,None,None,None,1,1.7499632835388184,None,,,,,0,0,0,0,0,31,31,123,149.6201455593109,,,,,,,,,,,,,,,,,,,,,,,,,,,,,,,,,,,,,,,,,,,,,,,,,,,,,,,,,,,,,,,,,,,,,,,,,,,,,,,,,142,183,105,85,127,63,2.2,2.21,-230,-256,0,260,170,254,149.60399198532104,149.6040699481964,149.6069540977478,149.6201455593109,149.7672951221466,149.7672951221466,149.7672951221466,149.7672951221466,149.7672951221466,149.7672951221466,149.7672951221466,151.38752913475037,1,1.7499632835388184,None,,,,,,,,,,,,,,,,,,95,4,2025-02-24_13h18.48.238,comp,2024.2.4,56.36679572481989,2025-02-24 13h21.57.185092 -0500,
32,32,0,filler_random,None,None,None,None,None,None,None,None,None,None,3,3.4376325607299805,None,,,,,0,0,0,0,0,32,32,152,151.40484833717346,,,,,,,,,,,,,,,,,,,,,,,,,,,,,,,,,,,,,,,,,,,,,,,,,,,,,,,,,,,,,,,,,,,,,,,,,,,,,,,,,115.54310585600285,83.08863782921962,64.5495645945521,183.54833392892863,136.50272630994607,150.10446505301508,1.0,1.1,-709,262,-480,289,-217,268,151.38928079605103,151.38935708999634,151.3922574520111,151.40484833717346,151.55112147331238,151.55112147331238,151.55112147331238,151.55112147331238,151.55112147331238,151.55112147331238,151.55112147331238,154.85755515098572,3,3.4376325607299805,None,,,,,,,,,,,,,,,,,,95,4,2025-02-24_13h18.48.238,comp,2024.2.4,56.36679572481989,2025-02-24 13h21.57.185092 -0500,
33,33,0,critical,whd,20.0,2.1,upper,125.0,200.0,200.0,125.0,141.0,141.0,1,1.9695873260498047,None,,,,,0,0,0,0,0,33,33,15,154.87328052520752,,,,,,,,,,,,,,,,,,,,,,,,,,,,,,,,,,,,,,,,,,,,,,,,,,,,,,,,,,,,,,,,,,,,,,,,,,,,,,,,,125.0,200.0,200.0,125.0,141.0,141.0,2.1,2.11,-258,269,0,254,229,-289,154.8591387271881,154.85921907424927,154.86214303970337,154.87328052520752,155.01500272750854,155.01500272750854,155.01500272750854,155.01500272750854,155.01500272750854,155.01500272750854,155.01500272750854,156.84929156303406,1,1.9695873260498047,None,,,,,,,,,,,,,,,,,,95,4,2025-02-24_13h18.48.238,comp,2024.2.4,56.36679572481989,2025-02-24 13h21.57.185092 -0500,
34,34,0,filler_square,None,None,None,None,None,None,None,None,None,None,3,4.783985614776611,None,,,,,0,0,0,0,0,34,34,207,156.86626982688904,,,,,,,,,,,,,,,,,,,,,,,,,,,,,,,,,,,,,,,,,,,,,,,,,,,,,,,,,,,,,,,,,,,,,,,,,,,,,,,,,59.801910367632416,75.70672728127461,75.45270474201155,65.67595653232355,80.30108772652322,80.30108772652322,2.2,2.22,-167,280,0,-267,169,-272,156.85118579864502,156.85126614570618,156.85535144805908,156.86626982688904,157.0203423500061,157.0203423500061,157.0203423500061,157.0203423500061,157.0203423500061,157.0203423500061,157.0203423500061,161.66795754432678,3,4.783985614776611,None,,,,,,,,,,,,,,,,,,95,4,2025-02-24_13h18.48.238,comp,2024.2.4,56.36679572481989,2025-02-24 13h21.57.185092 -0500,
35,35,0,filler_square,None,None,None,None,None,None,None,None,None,None,2,1.639042854309082,None,,,,,0,0,0,0,0,35,35,176,161.6836655139923,,,,,,,,,,,,,,,,,,,,,,,,,,,,,,,,,,,,,,,,,,,,,,,,,,,,,,,,,,,,,,,,,,,,,,,,,,,,,,,,,113.34720093853588,113.34720093853588,96.782704372572,103.30921206999568,99.90212305828369,78.84278639395394,4.0,4.1,-204,-260,0,-1,187,-278,161.66982126235962,161.66989970207214,161.67320561408997,161.6836655139923,161.83433747291565,161.83433747291565,161.83433747291565,161.83433747291565,161.83433747291565,161.83433747291565,161.83433747291565,163.33421683311462,2,1.639042854309082,None,,,,,,,,,,,,,,,,,,95,4,2025-02-24_13h18.48.238,comp,2024.2.4,56.36679572481989,2025-02-24 13h21.57.185092 -0500,
36,36,0,critical,wdh,20.0,1.0,lower,57.0,133.0,78.0,78.0,133.0,57.0,1,1.4512574672698975,None,,,,,0,0,0,0,0,36,36,78,163.35079383850098,,,,,,,,,,,,,,,,,,,,,,,,,,,,,,,,,,,,,,,,,,,,,,,,,,,,,,,,,,,,,,,,,,,,,,,,,,,,,,,,,57.0,133.0,78.0,78.0,133.0,57.0,1.0,1.2,-202,8,0,-4,164,19,163.33578038215637,163.33586072921753,163.33997225761414,163.35079383850098,163.50145292282104,163.50145292282104,163.50145292282104,163.50145292282104,163.50145292282104,163.50145292282104,163.50145292282104,164.80692100524902,1,1.4512574672698975,None,,,,,,,,,,,,,,,,,,95,4,2025-02-24_13h18.48.238,comp,2024.2.4,56.36679572481989,2025-02-24 13h21.57.185092 -0500,
37,37,0,filler_random,None,None,None,None,None,None,None,None,None,None,2,1.990694284439087,None,,,,,0,0,0,0,0,37,37,157,164.82726407051086,,,,,,,,,,,,,,,,,,,,,,,,,,,,,,,,,,,,,,,,,,,,,,,,,,,,,,,,,,,,,,,,,,,,,,,,,,,,,,,,,196.99294106899373,70.87349195672125,193.3711824390044,180.62935903274996,156.2232218257293,159.29232798596934,1.0,1.3,258,-282,480,-270,746,-263,164.8086576461792,164.80873918533325,164.81159234046936,164.82726407051086,164.96998572349548,164.96998572349548,164.96998572349548,164.96998572349548,164.96998572349548,164.96998572349548,164.96998572349548,166.83524560928345,2,1.990694284439087,None,,,,,,,,,,,,,,,,,,95,4,2025-02-24_13h18.48.238,comp,2024.2.4,56.36679572481989,2025-02-24 13h21.57.185092 -0500,
38,38,0,critical,dwh,35.0,1.0,lower,70.0,70.0,57.0,133.0,133.0,57.0,2,5.130536079406738,None,,,,,0,0,0,0,0,38,38,60,166.85572171211243,,,,,,,,,,,,,,,,,,,,,,,,,,,,,,,,,,,,,,,,,,,,,,,,,,,,,,,,,,,,,,,,,,,,,,,,,,,,,,,,,70.0,70.0,57.0,133.0,133.0,57.0,1.0,1.3,282,-256,480,-286,671,-258,166.83695268630981,166.83708095550537,166.84038186073303,166.85572171211243,167.00213408470154,167.00213408470154,167.00213408470154,167.00213408470154,167.00213408470154,167.00213408470154,167.00213408470154,171.98862862586975,2,5.130536079406738,None,,,,,,,,,,,,,,,,,,95,4,2025-02-24_13h18.48.238,comp,2024.2.4,56.36679572481989,2025-02-24 13h21.57.185092 -0500,
39,39,0,critical,hwd,35.0,4.0,lower,133.0,57.0,57.0,133.0,70.0,70.0,1,2.3572938442230225,None,,,,,0,0,0,0,0,39,39,100,172.00549960136414,,,,,,,,,,,,,,,,,,,,,,,,,,,,,,,,,,,,,,,,,,,,,,,,,,,,,,,,,,,,,,,,,,,,,,,,,,,,,,,,,133.0,57.0,57.0,133.0,70.0,70.0,4.0,4.2,-191,2,0,-273,198,10,171.99022030830383,171.99032330513,171.9936547279358,172.00549960136414,172.15369582176208,172.15369582176208,172.15369582176208,172.15369582176208,172.15369582176208,172.15369582176208,172.15369582176208,174.37123441696167,1,2.3572938442230225,None,,,,,,,,,,,,,,,,,,95,4,2025-02-24_13h18.48.238,comp,2024.2.4,56.36679572481989,2025-02-24 13h21.57.185092 -0500,
40,40,0,critical,whd,20.0,1.0,upper,125.0,200.0,200.0,125.0,141.0,141.0,1,6.358510732650757,None,,,,,0,0,0,0,0,40,40,91,174.38730478286743,,,,,,,,,,,,,,,,,,,,,,,,,,,,,,,,,,,,,,,,,,,,,,,,,,,,,,,,,,,,,,,,,,,,,,,,,,,,,,,,,125.0,200.0,200.0,125.0,141.0,141.0,1.0,1.3,222,-269,480,-256,709,-264,174.37282180786133,174.37293195724487,174.37645173072815,174.38730478286743,174.53385615348816,174.53385615348816,174.53385615348816,174.53385615348816,174.53385615348816,174.53385615348816,174.53385615348816,180.75625777244568,1,6.358510732650757,None,,,,,,,,,,,,,,,,,,95,4,2025-02-24_13h18.48.238,comp,2024.2.4,56.36679572481989,2025-02-24 13h21.57.185092 -0500,
41,41,0,critical,dwh,20.0,4.0,lower,78.0,78.0,57.0,133.0,133.0,57.0,2,2.455997943878174,None,,,,,0,0,0,0,0,41,41,70,180.77071142196655,,,,,,,,,,,,,,,,,,,,,,,,,,,,,,,,,,,,,,,,,,,,,,,,,,,,,,,,,,,,,,,,,,,,,,,,,,,,,,,,,78.0,78.0,57.0,133.0,133.0,57.0,4.0,4.2,-202,-16,0,-252,191,-1,180.7577531337738,180.7578535079956,180.7610569000244,180.77071142196655,180.92319536209106,180.92319536209106,180.92319536209106,180.92319536209106,180.92319536209106,180.92319536209106,180.92319536209106,183.23406219482422,2,2.455997943878174,None,,,,,,,,,,,,,,,,,,95,4,2025-02-24_13h18.48.238,comp,2024.2.4,56.36679572481989,2025-02-24 13h21.57.185092 -0500,
42,42,0,critical,dwh,35.0,1.0,upper,127.0,127.0,125.0,200.0,200.0,125.0,3,2.607119560241699,None,,,,,0,0,0,0,0,42,42,61,183.2517647743225,,,,,,,,,,,,,,,,,,,,,,,,,,,,,,,,,,,,,,,,,,,,,,,,,,,,,,,,,,,,,,,,,,,,,,,,,,,,,,,,,127.0,127.0,125.0,200.0,200.0,125.0,1.0,1.1,-740,256,-480,266,-222,263,183.2355945110321,183.23569464683533,183.23856568336487,183.2517647743225,183.39176321029663,183.39176321029663,183.39176321029663,183.39176321029663,183.39176321029663,183.39176321029663,183.39176321029663,185.87656021118164,3,2.607119560241699,None,,,,,,,,,,,,,,,,,,95,4,2025-02-24_13h18.48.238,comp,2024.2.4,56.36679572481989,2025-02-24 13h21.57.185092 -0500,
43,43,0,critical,hwd,35.0,1.0,lower,133.0,57.0,57.0,133.0,70.0,70.0,2,2.010657787322998,None,,,,,0,0,0,0,0,43,43,96,185.8960416316986,,,,,,,,,,,,,,,,,,,,,,,,,,,,,,,,,,,,,,,,,,,,,,,,,,,,,,,,,,,,,,,,,,,,,,,,,,,,,,,,,133.0,57.0,57.0,133.0,70.0,70.0,1.0,1.2,-191,14,0,-5,198,6,185.87815260887146,185.87823843955994,185.8812484741211,185.8960416316986,186.04083395004272,186.04083395004272,186.04083395004272,186.04083395004272,186.04083395004272,186.04083395004272,186.04083395004272,187.90990686416626,2,2.010657787322998,None,,,,,,,,,,,,,,,,,,95,4,2025-02-24_13h18.48.238,comp,2024.2.4,56.36679572481989,2025-02-24 13h21.57.185092 -0500,
44,44,0,critical,dhw,20.0,2.1,lower,78.0,78.0,133.0,57.0,57.0,133.0,3,4.132021188735962,None,,,,,0,0,0,0,0,44,44,2,187.926753282547,,,,,,,,,,,,,,,,,,,,,,,,,,,,,,,,,,,,,,,,,,,,,,,,,,,,,,,,,,,,,,,,,,,,,,,,,,,,,,,,,78.0,78.0,133.0,57.0,57.0,133.0,2.1,2.11,-164,280,0,266,191,-261,187.91164183616638,187.911785364151,187.91573333740234,187.926753282547,188.0758867263794,188.0758867263794,188.0758867263794,188.0758867263794,188.0758867263794,188.0758867263794,188.0758867263794,192.06569600105286,3,4.132021188735962,None,,,,,,,,,,,,,,,,,,95,4,2025-02-24_13h18.48.238,comp,2024.2.4,56.36679572481989,2025-02-24 13h21.57.185092 -0500,
45,45,0,filler_square,None,None,None,None,None,None,None,None,None,None,3,1.8085379600524902,None,,,,,0,0,0,0,0,45,45,209,192.08215880393982,,,,,,,,,,,,,,,,,,,,,,,,,,,,,,,,,,,,,,,,,,,,,,,,,,,,,,,,,,,,,,,,,,,,,,,,,,,,,,,,,115.19005115086432,91.16318980067264,69.33350785979562,88.47891789406748,132.9974322586067,132.9974322586067,2.2,2.22,-186,275,0,-275,207,-289,192.0677592754364,192.0678412914276,192.0711030960083,192.08215880393982,192.22653698921204,192.22653698921204,192.22653698921204,192.22653698921204,192.22653698921204,192.22653698921204,192.22653698921204,193.8942265510559,3,1.8085379600524902,None,,,,,,,,,,,,,,,,,,95,4,2025-02-24_13h18.48.238,comp,2024.2.4,56.36679572481989,2025-02-24 13h21.57.185092 -0500,
46,46,0,catch,None,None,None,None,None,None,None,None,None,None,2,1.8443286418914795,None,,,,,0,0,0,0,0,46,46,124,193.91039371490479,,,,,,,,,,,,,,,,,,,,,,,,,,,,,,,,,,,,,,,,,,,,,,,,,,,,,,,,,,,,,,,,,,,,,,,,,,,,,,,,,97,93,170,155,110,80,2.1,2.12,-220,-268,0,-281,214,265,193.89621257781982,193.89629364013672,193.8995954990387,193.91039371490479,194.0600929260254,194.0600929260254,194.0600929260254,194.0600929260254,194.0600929260254,194.0600929260254,194.0600929260254,195.75944185256958,2,1.8443286418914795,None,,,,,,,,,,,,,,,,,,95,4,2025-02-24_13h18.48.238,comp,2024.2.4,56.36679572481989,2025-02-24 13h21.57.185092 -0500,
47,47,0,critical,wdh,20.0,3.0,lower,57.0,133.0,78.0,78.0,133.0,57.0,1,5.40083909034729,None,,,,,0,0,0,0,0,47,47,80,195.7778491973877,,,,,,,,,,,,,,,,,,,,,,,,,,,,,,,,,,,,,,,,,,,,,,,,,,,,,,,,,,,,,,,,,,,,,,,,,,,,,,,,,57.0,133.0,78.0,78.0,133.0,57.0,3.0,3.2,-202,-265,0,-15,164,263,195.76112842559814,195.76125717163086,195.76457285881042,195.7778491973877,195.9122610092163,195.9122610092163,195.9122610092163,195.9122610092163,195.9122610092163,195.9122610092163,195.9122610092163,201.18090796470642,1,5.40083909034729,None,,,,,,,,,,,,,,,,,,95,4,2025-02-24_13h18.48.238,comp,2024.2.4,56.36679572481989,2025-02-24 13h21.57.185092 -0500,
48,48,0,filler_square,None,None,None,None,None,None,None,None,None,None,3,2.252035617828369,None,,,,,0,0,0,0,0,48,48,178,201.19799900054932,,,,,,,,,,,,,,,,,,,,,,,,,,,,,,,,,,,,,,,,,,,,,,,,,,,,,,,,,,,,,,,,,,,,,,,,,,,,,,,,,80.43901822319593,131.20763937092207,132.04878979993495,106.15538729087088,134.31542540167487,134.31542540167487,4.0,4.2,-215,15,0,-260,216,19,201.18292880058289,201.18301153182983,201.18629121780396,201.19799900054932,201.3460774421692,201.3460774421692,201.3460774421692,201.3460774421692,201.3460774421692,201.3460774421692,201.3460774421692,203.46681213378906,3,2.252035617828369,None,,,,,,,,,,,,,,,,,,95,4,2025-02-24_13h18.48.238,comp,2024.2.4,56.36679572481989,2025-02-24 13h21.57.185092 -0500,
49,49,0,critical,hdw,35.0,2.1,lower,133.0,57.0,70.0,70.0,57.0,133.0,3,2.163665771484375,None,,,,,0,0,0,0,0,49,49,44,203.48664259910583,,,,,,,,,,,,,,,,,,,,,,,,,,,,,,,,,,,,,,,,,,,,,,,,,,,,,,,,,,,,,,,,,,,,,,,,,,,,,,,,,133.0,57.0,70.0,70.0,57.0,133.0,2.1,2.11,-160,279,0,253,198,-277,203.46847534179688,203.46855425834656,203.4714434146881,203.48664259910583,203.6295838356018,203.6295838356018,203.6295838356018,203.6295838356018,203.6295838356018,203.6295838356018,203.6295838356018,205.6551275253296,3,2.163665771484375,None,,,,,,,,,,,,,,,,,,95,4,2025-02-24_13h18.48.238,comp,2024.2.4,56.36679572481989,2025-02-24 13h21.57.185092 -0500,
50,50,0,critical,hdw,20.0,2.1,lower,133.0,57.0,78.0,78.0,57.0,133.0,3,3.225790023803711,None,,,,,0,0,0,0,0,50,50,46,205.67283296585083,,,,,,,,,,,,,,,,,,,,,,,,,,,,,,,,,,,,,,,,,,,,,,,,,,,,,,,,,,,,,,,,,,,,,,,,,,,,,,,,,133.0,57.0,78.0,78.0,57.0,133.0,2.1,2.12,-164,-253,0,-288,202,277,205.6566867828369,205.65676641464233,205.6596484184265,205.67283296585083,205.81072092056274,205.81072092056274,205.81072092056274,205.81072092056274,205.81072092056274,205.81072092056274,205.81072092056274,208.91488409042358,3,3.225790023803711,None,,,,,,,,,,,,,,,,,,95,4,2025-02-24_13h18.48.238,comp,2024.2.4,56.36679572481989,2025-02-24 13h21.57.185092 -0500,
51,51,0,critical,hdw,20.0,2.1,lower,133.0,57.0,78.0,78.0,57.0,133.0,1,3.040834903717041,None,,,,,0,0,0,0,0,51,51,22,208.93164467811584,,,,,,,,,,,,,,,,,,,,,,,,,,,,,,,,,,,,,,,,,,,,,,,,,,,,,,,,,,,,,,,,,,,,,,,,,,,,,,,,,133.0,57.0,78.0,78.0,57.0,133.0,2.1,2.12,-164,-290,0,-270,202,272,208.9165871143341,208.91674280166626,208.920325756073,208.93164467811584,209.07304763793945,209.07304763793945,209.07304763793945,209.07304763793945,209.07304763793945,209.07304763793945,209.07304763793945,211.9783971309662,1,3.040834903717041,None,,,,,,,,,,,,,,,,,,95,4,2025-02-24_13h18.48.238,comp,2024.2.4,56.36679572481989,2025-02-24 13h21.57.185092 -0500,
52,52,0,critical,wdh,20.0,4.0,upper,125.0,200.0,141.0,141.0,200.0,125.0,1,5.8859405517578125,None,,,,,0,0,0,0,0,52,52,83,211.99602389335632,,,,,,,,,,,,,,,,,,,,,,,,,,,,,,,,,,,,,,,,,,,,,,,,,,,,,,,,,,,,,,,,,,,,,,,,,,,,,,,,,125.0,200.0,141.0,141.0,200.0,125.0,4.0,4.1,-266,-257,0,-15,229,-268,211.97994184494019,211.98002099990845,211.98300004005432,211.99602389335632,212.1327555179596,212.1327555179596,212.1327555179596,212.1327555179596,212.1327555179596,212.1327555179596,212.1327555179596,217.90134286880493,1,5.8859405517578125,None,,,,,,,,,,,,,,,,,,95,4,2025-02-24_13h18.48.238,comp,2024.2.4,56.36679572481989,2025-02-24 13h21.57.185092 -0500,
53,53,0,filler_square,None,None,None,None,None,None,None,None,None,None,1,2.0678727626800537,None,,,,,0,0,0,0,0,53,53,197,217.91830158233643,,,,,,,,,,,,,,,,,,,,,,,,,,,,,,,,,,,,,,,,,,,,,,,,,,,,,,,,,,,,,,,,,,,,,,,,,,,,,,,,,150.055575517199,150.055575517199,141.2133532206572,71.07436746696006,137.88741165188185,85.3862958085285,2.1,2.12,-207,-252,0,-275,174,273,217.90338897705078,217.9034674167633,217.90682816505432,217.91830158233643,218.0730426311493,218.0730426311493,218.0730426311493,218.0730426311493,218.0730426311493,218.0730426311493,218.0730426311493,219.9907786846161,1,2.0678727626800537,None,,,,,,,,,,,,,,,,,,95,4,2025-02-24_13h18.48.238,comp,2024.2.4,56.36679572481989,2025-02-24 13h21.57.185092 -0500,
54,54,0,critical,wdh,35.0,1.0,lower,57.0,133.0,70.0,70.0,133.0,57.0,3,2.623112678527832,None,,,,,0,0,0,0,0,54,54,72,220.01169991493225,,,,,,,,,,,,,,,,,,,,,,,,,,,,,,,,,,,,,,,,,,,,,,,,,,,,,,,,,,,,,,,,,,,,,,,,,,,,,,,,,57.0,133.0,70.0,70.0,133.0,57.0,1.0,1.1,-678,261,-480,272,-320,260,219.99232959747314,219.99240970611572,219.9953122138977,220.01169991493225,220.14756846427917,220.14756846427917,220.14756846427917,220.14756846427917,220.14756846427917,220.14756846427917,220.14756846427917,222.6384563446045,3,2.623112678527832,None,,,,,,,,,,,,,,,,,,95,4,2025-02-24_13h18.48.238,comp,2024.2.4,56.36679572481989,2025-02-24 13h21.57.185092 -0500,
55,55,0,critical,dhw,35.0,4.0,lower,70.0,70.0,133.0,57.0,57.0,133.0,3,6.660247802734375,None,,,,,0,0,0,0,0,55,55,52,222.65468645095825,,,,,,,,,,,,,,,,,,,,,,,,,,,,,,,,,,,,,,,,,,,,,,,,,,,,,,,,,,,,,,,,,,,,,,,,,,,,,,,,,70.0,70.0,133.0,57.0,57.0,133.0,4.0,4.2,-160,-8,0,-275,191,-1,222.64017486572266,222.6403136253357,222.64374256134033,222.65468645095825,222.80007648468018,222.80007648468018,222.80007648468018,222.80007648468018,222.80007648468018,222.80007648468018,222.80007648468018,229.32171249389648,3,6.660247802734375,None,,,,,,,,,,,,,,,,,,95,4,2025-02-24_13h18.48.238,comp,2024.2.4,56.36679572481989,2025-02-24 13h21.57.185092 -0500,
56,56,0,filler_square,None,None,None,None,None,None,None,None,None,None,3,3.6807143688201904,None,,,,,0,0,0,0,0,56,56,186,229.3377025127411,,,,,,,,,,,,,,,,,,,,,,,,,,,,,,,,,,,,,,,,,,,,,,,,,,,,,,,,,,,,,,,,,,,,,,,,,,,,,,,,,134.70943893137377,82.87935166220251,153.57935225395448,153.57935225395448,118.53077832786623,127.55993023168466,2.1,2.11,-214,255,0,288,237,-263,229.32353973388672,229.32364630699158,229.32690572738647,229.3377025127411,229.489075422287,229.489075422287,229.489075422287,229.489075422287,229.489075422287,229.489075422287,229.489075422287,233.0217034816742,3,3.6807143688201904,None,,,,,,,,,,,,,,,,,,95,4,2025-02-24_13h18.48.238,comp,2024.2.4,56.36679572481989,2025-02-24 13h21.57.185092 -0500,
57,57,0,critical,dwh,20.0,2.1,upper,141.0,141.0,125.0,200.0,200.0,125.0,3,2.2036750316619873,None,,,,,0,0,0,0,0,57,57,7,233.03830671310425,,,,,,,,,,,,,,,,,,,,,,,,,,,,,,,,,,,,,,,,,,,,,,,,,,,,,,,,,,,,,,,,,,,,,,,,,,,,,,,,,141.0,141.0,125.0,200.0,200.0,125.0,2.1,2.12,-266,-283,0,-289,258,256,233.02318334579468,233.0232639312744,233.02642965316772,233.03830671310425,233.1922163963318,233.1922163963318,233.1922163963318,233.1922163963318,233.1922163963318,233.1922163963318,233.1922163963318,235.25627732276917,3,2.2036750316619873,None,,,,,,,,,,,,,,,,,,95,4,2025-02-24_13h18.48.238,comp,2024.2.4,56.36679572481989,2025-02-24 13h21.57.185092 -0500,
58,58,0,filler_square,None,None,None,None,None,None,None,None,None,None,1,2.6575913429260254,None,,,,,0,0,0,0,0,58,58,200,235.2724950313568,,,,,,,,,,,,,,,,,,,,,,,,,,,,,,,,,,,,,,,,,,,,,,,,,,,,,,,,,,,,,,,,,,,,,,,,,,,,,,,,,58.49295941844125,59.11937272312035,57.12613641774783,58.596105049603636,59.43820524346467,59.43820524346467,2.2,2.21,-155,-278,0,252,155,261,235.25807285308838,235.25814819335938,235.26123118400574,235.2724950313568,235.422119140625,235.422119140625,235.422119140625,235.422119140625,235.422119140625,235.422119140625,235.422119140625,237.94450783729553,1,2.6575913429260254,None,,,,,,,,,,,,,,,,,,95,4,2025-02-24_13h18.48.238,comp,2024.2.4,56.36679572481989,2025-02-24 13h21.57.185092 -0500,
59,59,0,critical,dwh,20.0,4.0,upper,141.0,141.0,125.0,200.0,200.0,125.0,2,4.081631660461426,None,,,,,0,0,0,0,0,59,59,71,237.9604024887085,,,,,,,,,,,,,,,,,,,,,,,,,,,,,,,,,,,,,,,,,,,,,,,,,,,,,,,,,,,,,,,,,,,,,,,,,,,,,,,,,141.0,141.0,125.0,200.0,200.0,125.0,4.0,4.1,-266,-270,0,-14,258,-263,237.94602274894714,237.94610333442688,237.95001792907715,237.9604024887085,238.11148858070374,238.11148858070374,238.11148858070374,238.11148858070374,238.11148858070374,238.11148858070374,238.11148858070374,242.0581557750702,2,4.081631660461426,None,,,,,,,,,,,,,,,,,,95,4,2025-02-24_13h18.48.238,comp,2024.2.4,56.36679572481989,2025-02-24 13h21.57.185092 -0500,
60,60,0,critical,wdh,20.0,1.0,upper,125.0,200.0,141.0,141.0,200.0,125.0,1,7.703226089477539,None,,,,,0,0,0,0,0,60,60,79,242.07571697235107,,,,,,,,,,,,,,,,,,,,,,,,,,,,,,,,,,,,,,,,,,,,,,,,,,,,,,,,,,,,,,,,,,,,,,,,,,,,,,,,,125.0,200.0,141.0,141.0,200.0,125.0,1.0,1.3,214,-251,480,-281,709,-284,242.05982303619385,242.05990195274353,242.06324362754822,242.07571697235107,242.22644782066345,242.22644782066345,242.22644782066345,242.22644782066345,242.22644782066345,242.22644782066345,242.22644782066345,249.7834596633911,1,7.703226089477539,None,,,,,,,,,,,,,,,,,,95,4,2025-02-24_13h18.48.238,comp,2024.2.4,56.36679572481989,2025-02-24 13h21.57.185092 -0500,
61,61,0,filler_random,None,None,None,None,None,None,None,None,None,None,1,5.7073750495910645,None,,,,,0,0,0,0,0,61,61,147,249.8005678653717,,,,,,,,,,,,,,,,,,,,,,,,,,,,,,,,,,,,,,,,,,,,,,,,,,,,,,,,,,,,,,,,,,,,,,,,,,,,,,,,,141.39399084524408,172.22889468908517,94.02744417453324,169.02323558467177,70.43180010941445,90.65049667697113,3.0,3.2,-267,-271,0,-9,226,287,249.78542685508728,249.78552627563477,249.78876161575317,249.8005678653717,249.95642757415771,249.95642757415771,249.95642757415771,249.95642757415771,249.95642757415771,249.95642757415771,249.95642757415771,255.5121932029724,1,5.7073750495910645,None,,,,,,,,,,,,,,,,,,95,4,2025-02-24_13h18.48.238,comp,2024.2.4,56.36679572481989,2025-02-24 13h21.57.185092 -0500,
62,62,0,critical,hwd,20.0,3.0,lower,133.0,57.0,57.0,133.0,78.0,78.0,1,3.1693098545074463,None,,,,,0,0,0,0,0,62,62,104,255.52892398834229,,,,,,,,,,,,,,,,,,,,,,,,,,,,,,,,,,,,,,,,,,,,,,,,,,,,,,,,,,,,,,,,,,,,,,,,,,,,,,,,,133.0,57.0,57.0,133.0,78.0,78.0,3.0,3.2,-191,-282,0,-17,202,264,255.5137233734131,255.5138053894043,255.51698565483093,255.52892398834229,255.68069005012512,255.68069005012512,255.68069005012512,255.68069005012512,255.68069005012512,255.68069005012512,255.68069005012512,258.7168424129486,1,3.1693098545074463,None,,,,,,,,,,,,,,,,,,95,4,2025-02-24_13h18.48.238,comp,2024.2.4,56.36679572481989,2025-02-24 13h21.57.185092 -0500,
63,63,0,critical,dhw,20.0,3.0,upper,141.0,141.0,200.0,125.0,125.0,200.0,2,1.4055466651916504,None,,,,,0,0,0,0,0,63,63,57,258.73259687423706,,,,,,,,,,,,,,,,,,,,,,,,,,,,,,,,,,,,,,,,,,,,,,,,,,,,,,,,,,,,,,,,,,,,,,,,,,,,,,,,,141.0,141.0,200.0,125.0,125.0,200.0,3.0,3.2,-229,-275,0,-10,258,256,258.71858501434326,258.7187397480011,258.72211050987244,258.73259687423706,258.8816936016083,258.8816936016083,258.8816936016083,258.8816936016083,258.8816936016083,258.8816936016083,258.8816936016083,260.154408454895,2,1.4055466651916504,None,,,,,,,,,,,,,,,,,,95,4,2025-02-24_13h18.48.238,comp,2024.2.4,56.36679572481989,2025-02-24 13h21.57.185092 -0500,
64,64,0,filler_random,None,None,None,None,None,None,None,None,None,None,1,3.6488454341888428,None,,,,,0,0,0,0,0,64,64,135,260.1700050830841,,,,,,,,,,,,,,,,,,,,,,,,,,,,,,,,,,,,,,,,,,,,,,,,,,,,,,,,,,,,,,,,,,,,,,,,,,,,,,,,,172.9217270131213,163.7292789637953,86.53834955204732,193.01328472847038,129.829929285672,185.26840427408266,3.0,3.2,-274,-263,0,10,285,284,260.1561584472656,260.15623807907104,260.15911054611206,260.1700050830841,260.3146948814392,260.3146948814392,260.3146948814392,260.3146948814392,260.3146948814392,260.3146948814392,260.3146948814392,263.82367277145386,1,3.6488454341888428,None,,,,,,,,,,,,,,,,,,95,4,2025-02-24_13h18.48.238,comp,2024.2.4,56.36679572481989,2025-02-24 13h21.57.185092 -0500,
65,65,0,filler_random,None,None,None,None,None,None,None,None,None,None,1,1.786623477935791,None,,,,,0,0,0,0,0,65,65,154,263.84029269218445,,,,,,,,,,,,,,,,,,,,,,,,,,,,,,,,,,,,,,,,,,,,,,,,,,,,,,,,,,,,,,,,,,,,,,,,,,,,,,,,,149.93879246346677,191.77677066092946,62.042197043106114,71.9671712674849,98.43143976312618,142.72588783327035,3.0,3.2,-228,-283,0,-11,203,276,263.82539105415344,263.82547092437744,263.8284809589386,263.84029269218445,263.9859642982483,263.9859642982483,263.9859642982483,263.9859642982483,263.9859642982483,263.9859642982483,263.9859642982483,265.6345434188843,1,1.786623477935791,None,,,,,,,,,,,,,,,,,,95,4,2025-02-24_13h18.48.238,comp,2024.2.4,56.36679572481989,2025-02-24 13h21.57.185092 -0500,
66,66,0,critical,dhw,35.0,1.0,lower,70.0,70.0,133.0,57.0,57.0,133.0,2,2.8230085372924805,None,,,,,0,0,0,0,0,66,66,48,265.65169501304626,,,,,,,,,,,,,,,,,,,,,,,,,,,,,,,,,,,,,,,,,,,,,,,,,,,,,,,,,,,,,,,,,,,,,,,,,,,,,,,,,70.0,70.0,133.0,57.0,57.0,133.0,1.0,1.1,-640,282,-480,250,-289,269,265.63641691207886,265.6365222930908,265.64043259620667,265.65169501304626,265.8022313117981,265.8022313117981,265.8022313117981,265.8022313117981,265.8022313117981,265.8022313117981,265.8022313117981,268.485960483551,2,2.8230085372924805,None,,,,,,,,,,,,,,,,,,95,4,2025-02-24_13h18.48.238,comp,2024.2.4,56.36679572481989,2025-02-24 13h21.57.185092 -0500,
67,67,0,critical,dwh,35.0,3.0,upper,127.0,127.0,125.0,200.0,200.0,125.0,2,3.666205406188965,None,,,,,0,0,0,0,0,67,67,63,268.5038661956787,,,,,,,,,,,,,,,,,,,,,,,,,,,,,,,,,,,,,,,,,,,,,,,,,,,,,,,,,,,,,,,,,,,,,,,,,,,,,,,,,127.0,127.0,125.0,200.0,200.0,125.0,3.0,3.2,-260,-290,0,11,258,263,268.487596988678,268.48772072792053,268.49081444740295,268.5038661956787,268.6504557132721,268.6504557132721,268.6504557132721,268.6504557132721,268.6504557132721,268.6504557132721,268.6504557132721,272.1726932525635,2,3.666205406188965,None,,,,,,,,,,,,,,,,,,95,4,2025-02-24_13h18.48.238,comp,2024.2.4,56.36679572481989,2025-02-24 13h21.57.185092 -0500,
68,68,0,critical,wdh,35.0,1.0,upper,125.0,200.0,127.0,127.0,200.0,125.0,1,2.0547006130218506,None,,,,,0,0,0,0,0,68,68,73,272.1881673336029,,,,,,,,,,,,,,,,,,,,,,,,,,,,,,,,,,,,,,,,,,,,,,,,,,,,,,,,,,,,,,,,,,,,,,,,,,,,,,,,,125.0,200.0,127.0,127.0,200.0,125.0,1.0,1.2,-260,18,0,2,222,7,272.17418384552,272.1742663383484,272.1772847175598,272.1881673336029,272.33667755126953,272.33667755126953,272.33667755126953,272.33667755126953,272.33667755126953,272.33667755126953,272.33667755126953,274.2493917942047,1,2.0547006130218506,None,,,,,,,,,,,,,,,,,,95,4,2025-02-24_13h18.48.238,comp,2024.2.4,56.36679572481989,2025-02-24 13h21.57.185092 -0500,
69,69,0,critical,dwh,20.0,1.0,upper,141.0,141.0,125.0,200.0,200.0,125.0,2,2.2791452407836914,None,,,,,0,0,0,0,0,69,69,67,274.26686334609985,,,,,,,,,,,,,,,,,,,,,,,,,,,,,,,,,,,,,,,,,,,,,,,,,,,,,,,,,,,,,,,,,,,,,,,,,,,,,,,,,141.0,141.0,125.0,200.0,200.0,125.0,1.0,1.1,-746,256,-480,284,-222,275,274.25106596946716,274.25119376182556,274.25445890426636,274.26686334609985,274.4036774635315,274.4036774635315,274.4036774635315,274.4036774635315,274.4036774635315,274.4036774635315,274.4036774635315,276.5553162097931,2,2.2791452407836914,None,,,,,,,,,,,,,,,,,,95,4,2025-02-24_13h18.48.238,comp,2024.2.4,56.36679572481989,2025-02-24 13h21.57.185092 -0500,
70,70,0,filler_random,None,None,None,None,None,None,None,None,None,None,2,4.117356300354004,None,,,,,0,0,0,0,0,70,70,156,276.572772026062,,,,,,,,,,,,,,,,,,,,,,,,,,,,,,,,,,,,,,,,,,,,,,,,,,,,,,,,,,,,,,,,,,,,,,,,,,,,,,,,,84.06891683097024,75.35061196828312,95.9997340155181,105.8093704104063,98.2224350921034,70.35951355468468,1.0,1.3,293,-261,480,-252,664,-283,276.55724263191223,276.5573239326477,276.5604121685028,276.572772026062,276.7227020263672,276.7227020263672,276.7227020263672,276.7227020263672,276.7227020263672,276.7227020263672,276.7227020263672,280.7073173522949,2,4.117356300354004,None,,,,,,,,,,,,,,,,,,95,4,2025-02-24_13h18.48.238,comp,2024.2.4,56.36679572481989,2025-02-24 13h21.57.185092 -0500,
71,71,0,critical,hdw,20.0,1.0,upper,200.0,125.0,141.0,141.0,125.0,200.0,1,4.13536810874939,None,,,,,0,0,0,0,0,71,71,115,280.7233672142029,,,,,,,,,,,,,,,,,,,,,,,,,,,,,,,,,,,,,,,,,,,,,,,,,,,,,,,,,,,,,,,,,,,,,,,,,,,,,,,,,200.0,125.0,141.0,141.0,125.0,200.0,1.0,1.1,-709,276,-480,250,-214,268,280.70901679992676,280.70909547805786,280.7130265235901,280.7233672142029,280.8732719421387,280.8732719421387,280.8732719421387,280.8732719421387,280.8732719421387,280.8732719421387,280.8732719421387,284.8674147129059,1,4.13536810874939,None,,,,,,,,,,,,,,,,,,95,4,2025-02-24_13h18.48.238,comp,2024.2.4,56.36679572481989,2025-02-24 13h21.57.185092 -0500,
72,72,0,filler_random,None,None,None,None,None,None,None,None,None,None,3,2.6421940326690674,None,,,,,0,0,0,0,0,72,72,158,284.88776087760925,,,,,,,,,,,,,,,,,,,,,,,,,,,,,,,,,,,,,,,,,,,,,,,,,,,,,,,,,,,,,,,,,,,,,,,,,,,,,,,,,148.41539996944647,149.50337420411574,73.36901294422267,107.8632277903732,130.4276117843413,184.64884634805105,3.0,3.1,-225,285,0,-3,242,-284,284.8691346645355,284.8692135810852,284.8721058368683,284.88776087760925,285.0222656726837,285.0222656726837,285.0222656726837,285.0222656726837,285.0222656726837,285.0222656726837,285.0222656726837,287.5413200855255,3,2.6421940326690674,None,,,,,,,,,,,,,,,,,,95,4,2025-02-24_13h18.48.238,comp,2024.2.4,56.36679572481989,2025-02-24 13h21.57.185092 -0500,
73,73,0,filler_square,None,None,None,None,None,None,None,None,None,None,2,6.124255418777466,None,,,,,0,0,0,0,0,73,73,201,287.5584843158722,,,,,,,,,,,,,,,,,,,,,,,,,,,,,,,,,,,,,,,,,,,,,,,,,,,,,,,,,,,,,,,,,,,,,,,,,,,,,,,,,122.09866535022446,156.5697270300871,188.7470439976026,188.7470439976026,173.20947322920102,154.9303404321647,1.0,1.3,211,-268,480,-277,748,-281,287.54330229759216,287.5433831214905,287.54708790779114,287.5584843158722,287.7075002193451,287.7075002193451,287.7075002193451,287.7075002193451,287.7075002193451,287.7075002193451,287.7075002193451,293.6910490989685,2,6.124255418777466,None,,,,,,,,,,,,,,,,,,95,4,2025-02-24_13h18.48.238,comp,2024.2.4,56.36679572481989,2025-02-24 13h21.57.185092 -0500,
74,74,0,critical,hwd,20.0,2.1,lower,133.0,57.0,57.0,133.0,78.0,78.0,1,29.918567180633545,None,,,,,0,0,0,0,0,74,74,42,293.7076807022095,,,,,,,,,,,,,,,,,,,,,,,,,,,,,,,,,,,,,,,,,,,,,,,,,,,,,,,,,,,,,,,,,,,,,,,,,,,,,,,,,133.0,57.0,57.0,133.0,78.0,78.0,2.1,2.11,-191,263,0,273,202,-274,293.6926338672638,293.69271540641785,293.69584608078003,293.7076807022095,293.8575019836426,293.8575019836426,293.8575019836426,293.8575019836426,293.8575019836426,293.8575019836426,293.8575019836426,323.64306378364563,1,29.918567180633545,None,,,,,,,,,,,,,,,,,,95,4,2025-02-24_13h18.48.238,comp,2024.2.4,56.36679572481989,2025-02-24 13h21.57.185092 -0500,
75,75,0,critical,dwh,35.0,2.1,lower,70.0,70.0,57.0,133.0,133.0,57.0,3,1.7830562591552734,None,,,,,0,0,0,0,0,75,75,4,323.6617965698242,,,,,,,,,,,,,,,,,,,,,,,,,,,,,,,,,,,,,,,,,,,,,,,,,,,,,,,,,,,,,,,,,,,,,,,,,,,,,,,,,70.0,70.0,57.0,133.0,133.0,57.0,2.1,2.11,-198,257,0,257,191,-264,323.6446375846863,323.6447174549103,323.6476149559021,323.6617965698242,323.80047082901,323.80047082901,323.80047082901,323.80047082901,323.80047082901,323.80047082901,323.80047082901,325.450626373291,3,1.7830562591552734,None,,,,,,,,,,,,,,,,,,95,4,2025-02-24_13h18.48.238,comp,2024.2.4,56.36679572481989,2025-02-24 13h21.57.185092 -0500,
76,76,0,critical,dhw,20.0,1.0,upper,141.0,141.0,200.0,125.0,125.0,200.0,3,2.907702684402466,None,,,,,0,0,0,0,0,76,76,55,325.4711937904358,,,,,,,,,,,,,,,,,,,,,,,,,,,,,,,,,,,,,,,,,,,,,,,,,,,,,,,,,,,,,,,,,,,,,,,,,,,,,,,,,141.0,141.0,200.0,125.0,125.0,200.0,1.0,1.3,251,-290,480,-284,738,-286,325.45210242271423,325.4521939754486,325.45539903640747,325.4711937904358,325.6193492412567,325.6193492412567,325.6193492412567,325.6193492412567,325.6193492412567,325.6193492412567,325.6193492412567,328.38506865501404,3,2.907702684402466,None,,,,,,,,,,,,,,,,,,95,4,2025-02-24_13h18.48.238,comp,2024.2.4,56.36679572481989,2025-02-24 13h21.57.185092 -0500,
77,77,0,filler_random,None,None,None,None,None,None,None,None,None,None,2,2.3311994075775146,None,,,,,0,0,0,0,0,77,77,155,328.407274723053,,,,,,,,,,,,,,,,,,,,,,,,,,,,,,,,,,,,,,,,,,,,,,,,,,,,,,,,,,,,,,,,,,,,,,,,,,,,,,,,,189.82994174830043,118.70846286552596,135.82190659400868,195.9169502730714,67.67293786762392,74.60375372416603,1.0,1.3,227,-258,480,-276,711,-271,328.38671040534973,328.38678908348083,328.39024686813354,328.407274723053,328.5423743724823,328.5423743724823,328.5423743724823,328.5423743724823,328.5423743724823,328.5423743724823,328.5423743724823,330.7410924434662,2,2.3311994075775146,None,,,,,,,,,,,,,,,,,,95,4,2025-02-24_13h18.48.238,comp,2024.2.4,56.36679572481989,2025-02-24 13h21.57.185092 -0500,
78,78,0,filler_square,None,None,None,None,None,None,None,None,None,None,3,1.5607993602752686,None,,,,,0,0,0,0,0,78,78,203,330.7613043785095,,,,,,,,,,,,,,,,,,,,,,,,,,,,,,,,,,,,,,,,,,,,,,,,,,,,,,,,,,,,,,,,,,,,,,,,,,,,,,,,,90.70736587095715,118.96610601157451,89.05993873805237,120.02477867664402,120.39787154604353,120.39787154604353,1.0,1.3,265,-268,480,-265,696,-273,330.7429757118225,330.7430565357208,330.74600410461426,330.7613043785095,330.9042944908142,330.9042944908142,330.9042944908142,330.9042944908142,330.9042944908142,330.9042944908142,330.9042944908142,332.33810329437256,3,1.5607993602752686,None,,,,,,,,,,,,,,,,,,95,4,2025-02-24_13h18.48.238,comp,2024.2.4,56.36679572481989,2025-02-24 13h21.57.185092 -0500,
79,79,0,critical,dhw,20.0,2.1,upper,141.0,141.0,200.0,125.0,125.0,200.0,3,4.664792060852051,None,,,,,0,0,0,0,0,79,79,27,332.35418486595154,,,,,,,,,,,,,,,,,,,,,,,,,,,,,,,,,,,,,,,,,,,,,,,,,,,,,,,,,,,,,,,,,,,,,,,,,,,,,,,,,141.0,141.0,200.0,125.0,125.0,200.0,2.1,2.11,-229,253,0,264,258,-290,332.3396580219269,332.33973598480225,332.34387016296387,332.35418486595154,332.5025305747986,332.5025305747986,332.5025305747986,332.5025305747986,332.5025305747986,332.5025305747986,332.5025305747986,337.0245158672333,3,4.664792060852051,None,,,,,,,,,,,,,,,,,,95,4,2025-02-24_13h18.48.238,comp,2024.2.4,56.36679572481989,2025-02-24 13h21.57.185092 -0500,
80,80,0,critical,hwd,20.0,1.0,lower,133.0,57.0,57.0,133.0,78.0,78.0,2,2.5527853965759277,None,,,,,0,0,0,0,0,80,80,102,337.0413701534271,,,,,,,,,,,,,,,,,,,,,,,,,,,,,,,,,,,,,,,,,,,,,,,,,,,,,,,,,,,,,,,,,,,,,,,,,,,,,,,,,133.0,57.0,57.0,133.0,78.0,78.0,1.0,1.3,289,-256,480,-267,682,-268,337.0262677669525,337.0263476371765,337.02968192100525,337.0413701534271,337.1897826194763,337.1897826194763,337.1897826194763,337.1897826194763,337.1897826194763,337.1897826194763,337.1897826194763,339.60513281822205,2,2.5527853965759277,None,,,,,,,,,,,,,,,,,,95,4,2025-02-24_13h18.48.238,comp,2024.2.4,56.36679572481989,2025-02-24 13h21.57.185092 -0500,
81,81,0,catch,None,None,None,None,None,None,None,None,None,None,3,1.5936226844787598,None,,,,,0,0,0,0,0,81,81,121,339.62525510787964,,,,,,,,,,,,,,,,,,,,,,,,,,,,,,,,,,,,,,,,,,,,,,,,,,,,,,,,,,,,,,,,,,,,,,,,,,,,,,,,,77,113,76,114,134,191,4.0,4.2,-210,-9,0,-252,248,10,339.60699820518494,339.6070775985718,339.61026644706726,339.62525510787964,339.77276730537415,339.77276730537415,339.77276730537415,339.77276730537415,339.77276730537415,339.77276730537415,339.77276730537415,341.2291543483734,3,1.5936226844787598,None,,,,,,,,,,,,,,,,,,95,4,2025-02-24_13h18.48.238,comp,2024.2.4,56.36679572481989,2025-02-24 13h21.57.185092 -0500,
82,82,0,critical,dwh,20.0,2.1,lower,78.0,78.0,57.0,133.0,133.0,57.0,2,3.243330478668213,None,,,,,0,0,0,0,0,82,82,30,341.2467348575592,,,,,,,,,,,,,,,,,,,,,,,,,,,,,,,,,,,,,,,,,,,,,,,,,,,,,,,,,,,,,,,,,,,,,,,,,,,,,,,,,78.0,78.0,57.0,133.0,133.0,57.0,2.1,2.12,-202,-278,0,-255,191,283,341.23073649406433,341.2308156490326,341.2337284088135,341.2467348575592,341.3907046318054,341.3907046318054,341.3907046318054,341.3907046318054,341.3907046318054,341.3907046318054,341.3907046318054,344.50695991516113,2,3.243330478668213,None,,,,,,,,,,,,,,,,,,95,4,2025-02-24_13h18.48.238,comp,2024.2.4,56.36679572481989,2025-02-24 13h21.57.185092 -0500,
83,83,0,critical,dhw,35.0,3.0,lower,70.0,70.0,133.0,57.0,57.0,133.0,3,1.8324995040893555,None,,,,,0,0,0,0,0,83,83,50,344.5227720737457,,,,,,,,,,,,,,,,,,,,,,,,,,,,,,,,,,,,,,,,,,,,,,,,,,,,,,,,,,,,,,,,,,,,,,,,,,,,,,,,,70.0,70.0,133.0,57.0,57.0,133.0,3.0,3.1,-160,287,0,16,191,-255,344.50844621658325,344.5085241794586,344.51152181625366,344.5227720737457,344.6705160140991,344.6705160140991,344.6705160140991,344.6705160140991,344.6705160140991,344.6705160140991,344.6705160140991,346.35979175567627,3,1.8324995040893555,None,,,,,,,,,,,,,,,,,,95,4,2025-02-24_13h18.48.238,comp,2024.2.4,56.36679572481989,2025-02-24 13h21.57.185092 -0500,
84,84,0,filler_square,None,None,None,None,None,None,None,None,None,None,1,2.2974367141723633,None,,,,,0,0,0,0,0,84,84,190,346.37673926353455,,,,,,,,,,,,,,,,,,,,,,,,,,,,,,,,,,,,,,,,,,,,,,,,,,,,,,,,,,,,,,,,,,,,,,,,,,,,,,,,,133.87193582360572,133.87193582360572,123.53141838874242,92.11392543269842,89.329341924262,117.11821508991008,1.0,1.2,-209,-2,0,-1,201,14,346.3619430065155,346.3620262145996,346.36593890190125,346.37673926353455,346.52892684936523,346.52892684936523,346.52892684936523,346.52892684936523,346.52892684936523,346.52892684936523,346.52892684936523,348.67629528045654,1,2.2974367141723633,None,,,,,,,,,,,,,,,,,,95,4,2025-02-24_13h18.48.238,comp,2024.2.4,56.36679572481989,2025-02-24 13h21.57.185092 -0500,
85,85,0,filler_square,None,None,None,None,None,None,None,None,None,None,3,1.8139798641204834,None,,,,,0,0,0,0,0,85,85,177,348.6922881603241,,,,,,,,,,,,,,,,,,,,,,,,,,,,,,,,,,,,,,,,,,,,,,,,,,,,,,,,,,,,,,,,,,,,,,,,,,,,,,,,,77.52245683401232,58.70167033782922,72.36689955805076,60.631564607338575,79.01112151514096,79.01112151514096,4.0,4.1,-156,-256,0,-20,166,-267,348.67811942100525,348.6781988143921,348.68149185180664,348.6922881603241,348.8427939414978,348.8427939414978,348.8427939414978,348.8427939414978,348.8427939414978,348.8427939414978,348.8427939414978,350.50998759269714,3,1.8139798641204834,None,,,,,,,,,,,,,,,,,,95,4,2025-02-24_13h18.48.238,comp,2024.2.4,56.36679572481989,2025-02-24 13h21.57.185092 -0500,
86,86,0,filler_square,None,None,None,None,None,None,None,None,None,None,3,7.051977634429932,None,,,,,0,0,0,0,0,86,86,204,350.5261721611023,,,,,,,,,,,,,,,,,,,,,,,,,,,,,,,,,,,,,,,,,,,,,,,,,,,,,,,,,,,,,,,,,,,,,,,,,,,,,,,,,59.97386225778423,59.97386225778423,58.080595419621616,57.98383683189929,57.59195602810817,59.9626086490994,2.2,2.22,-155,282,0,-268,155,-262,350.51185369491577,350.51193594932556,350.51533818244934,350.5261721611023,350.6783719062805,350.6783719062805,350.6783719062805,350.6783719062805,350.6783719062805,350.6783719062805,350.6783719062805,357.5807604789734,3,7.051977634429932,None,,,,,,,,,,,,,,,,,,95,4,2025-02-24_13h18.48.238,comp,2024.2.4,56.36679572481989,2025-02-24 13h21.57.185092 -0500,
87,87,0,critical,whd,20.0,2.1,upper,125.0,200.0,200.0,125.0,141.0,141.0,2,3.285797119140625,None,,,,,0,0,0,0,0,87,87,39,357.5973072052002,,,,,,,,,,,,,,,,,,,,,,,,,,,,,,,,,,,,,,,,,,,,,,,,,,,,,,,,,,,,,,,,,,,,,,,,,,,,,,,,,125.0,200.0,200.0,125.0,141.0,141.0,2.1,2.12,-258,-284,0,-257,229,262,357.58255219459534,357.58269214630127,357.5864727497101,357.5973072052002,357.74504828453064,357.74504828453064,357.74504828453064,357.74504828453064,357.74504828453064,357.74504828453064,357.74504828453064,360.89108872413635,2,3.285797119140625,None,,,,,,,,,,,,,,,,,,95,4,2025-02-24_13h18.48.238,comp,2024.2.4,56.36679572481989,2025-02-24 13h21.57.185092 -0500,
88,88,0,filler_square,None,None,None,None,None,None,None,None,None,None,2,2.6777870655059814,None,,,,,0,0,0,0,0,88,88,195,360.9083368778229,,,,,,,,,,,,,,,,,,,,,,,,,,,,,,,,,,,,,,,,,,,,,,,,,,,,,,,,,,,,,,,,,,,,,,,,,,,,,,,,,70.61925846266874,74.37101743082466,78.26705602842044,78.26705602842044,72.3569255656266,74.54061078240872,2.2,2.21,-172,-255,0,266,172,256,360.89313077926636,360.8932101726532,360.8964157104492,360.9083368778229,361.0449912548065,361.0449912548065,361.0449912548065,361.0449912548065,361.0449912548065,361.0449912548065,361.0449912548065,363.59658694267273,2,2.6777870655059814,None,,,,,,,,,,,,,,,,,,95,4,2025-02-24_13h18.48.238,comp,2024.2.4,56.36679572481989,2025-02-24 13h21.57.185092 -0500,
89,89,0,filler_square,None,None,None,None,None,None,None,None,None,None,1,4.364303350448608,None,,,,,0,0,0,0,0,89,89,192,363.6140296459198,,,,,,,,,,,,,,,,,,,,,,,,,,,,,,,,,,,,,,,,,,,,,,,,,,,,,,,,,,,,,,,,,,,,,,,,,,,,,,,,,176.63335129311565,176.63335129311565,147.97634087853484,129.17295661709832,162.85706706217644,118.96118064305881,1.0,1.2,-249,-1,0,-18,220,-2,363.59869933128357,363.5987799167633,363.60253977775574,363.6140296459198,363.7641999721527,363.7641999721527,363.7641999721527,363.7641999721527,363.7641999721527,363.7641999721527,363.7641999721527,367.99102306365967,1,4.364303350448608,None,,,,,,,,,,,,,,,,,,95,4,2025-02-24_13h18.48.238,comp,2024.2.4,56.36679572481989,2025-02-24 13h21.57.185092 -0500,
90,90,0,critical,whd,35.0,3.0,upper,125.0,200.0,200.0,125.0,127.0,127.0,1,3.3908371925354004,None,,,,,0,0,0,0,0,90,90,87,368.01184153556824,,,,,,,,,,,,,,,,,,,,,,,,,,,,,,,,,,,,,,,,,,,,,,,,,,,,,,,,,,,,,,,,,,,,,,,,,,,,,,,,,125.0,200.0,200.0,125.0,127.0,127.0,3.0,3.1,-258,283,0,1,222,-284,367.9925880432129,367.9927077293396,367.996057510376,368.01184153556824,368.1538655757904,368.1538655757904,368.1538655757904,368.1538655757904,368.1538655757904,368.1538655757904,368.1538655757904,371.4083149433136,1,3.3908371925354004,None,,,,,,,,,,,,,,,,,,95,4,2025-02-24_13h18.48.238,comp,2024.2.4,56.36679572481989,2025-02-24 13h21.57.185092 -0500,
91,91,0,filler_random,None,None,None,None,None,None,None,None,None,None,2,1.674163579940796,None,,,,,0,0,0,0,0,91,91,163,371.4240229129791,,,,,,,,,,,,,,,,,,,,,,,,,,,,,,,,,,,,,,,,,,,,,,,,,,,,,,,,,,,,,,,,,,,,,,,,,,,,,,,,,86.63149376686945,70.25060715223663,181.80782726777954,151.58376596352258,124.81796183780503,171.39430831895353,2.2,2.21,-207,-272,0,279,257,282,371.41002464294434,371.4101052284241,371.4130392074585,371.4240229129791,371.56743597984314,371.56743597984314,371.56743597984314,371.56743597984314,371.56743597984314,371.56743597984314,371.56743597984314,373.11728954315186,2,1.674163579940796,None,,,,,,,,,,,,,,,,,,95,4,2025-02-24_13h18.48.238,comp,2024.2.4,56.36679572481989,2025-02-24 13h21.57.185092 -0500,
92,92,0,filler_square,None,None,None,None,None,None,None,None,None,None,1,4.979640245437622,None,,,,,0,0,0,0,0,92,92,170,373.13530445098877,,,,,,,,,,,,,,,,,,,,,,,,,,,,,,,,,,,,,,,,,,,,,,,,,,,,,,,,,,,,,,,,,,,,,,,,,,,,,,,,,72.04242947580505,72.04242947580505,68.93102938740537,58.36076664334668,66.09868391519414,65.92666144801467,3.0,3.2,-161,-268,0,12,158,256,373.11920738220215,373.11928510665894,373.12248253822327,373.13530445098877,373.2717046737671,373.2717046737671,373.2717046737671,373.2717046737671,373.2717046737671,373.2717046737671,373.2717046737671,378.11926317214966,1,4.979640245437622,None,,,,,,,,,,,,,,,,,,95,4,2025-02-24_13h18.48.238,comp,2024.2.4,56.36679572481989,2025-02-24 13h21.57.185092 -0500,
93,93,0,filler_square,None,None,None,None,None,None,None,None,None,None,1,3.97841739654541,None,,,,,0,0,0,0,0,93,93,172,378.1357157230377,,,,,,,,,,,,,,,,,,,,,,,,,,,,,,,,,,,,,,,,,,,,,,,,,,,,,,,,,,,,,,,,,,,,,,,,,,,,,,,,,132.75392435793017,132.75392435793017,75.97791512444809,95.62736540960401,101.7001854650398,63.871921446899805,4.0,4.1,-210,-250,0,1,176,-280,378.12122797966003,378.12131214141846,378.12476444244385,378.1357157230377,378.2851610183716,378.2851610183716,378.2851610183716,378.2851610183716,378.2851610183716,378.2851610183716,378.2851610183716,382.13065481185913,1,3.97841739654541,None,,,,,,,,,,,,,,,,,,95,4,2025-02-24_13h18.48.238,comp,2024.2.4,56.36679572481989,2025-02-24 13h21.57.185092 -0500,
94,94,0,critical,hdw,35.0,2.1,lower,133.0,57.0,70.0,70.0,57.0,133.0,3,4.82918381690979,None,,,,,0,0,0,0,0,94,94,20,382.14956498146057,,,,,,,,,,,,,,,,,,,,,,,,,,,,,,,,,,,,,,,,,,,,,,,,,,,,,,,,,,,,,,,,,,,,,,,,,,,,,,,,,133.0,57.0,70.0,70.0,57.0,133.0,2.1,2.12,-160,-255,0,-253,198,266,382.1321575641632,382.1322329044342,382.13512682914734,382.14956498146057,382.28868865966797,382.28868865966797,382.28868865966797,382.28868865966797,382.28868865966797,382.28868865966797,382.28868865966797,386.9964048862457,3,4.82918381690979,None,,,,,,,,,,,,,,,,,,95,4,2025-02-24_13h18.48.238,comp,2024.2.4,56.36679572481989,2025-02-24 13h21.57.185092 -0500,
95,95,0,critical,dwh,20.0,3.0,upper,141.0,141.0,125.0,200.0,200.0,125.0,3,4.381990671157837,None,,,,,0,0,0,0,0,95,95,69,387.012184381485,,,,,,,,,,,,,,,,,,,,,,,,,,,,,,,,,,,,,,,,,,,,,,,,,,,,,,,,,,,,,,,,,,,,,,,,,,,,,,,,,141.0,141.0,125.0,200.0,200.0,125.0,3.0,3.1,-266,281,0,-11,258,-279,386.99793767929077,386.9980139732361,387.00091528892517,387.012184381485,387.15591073036194,387.15591073036194,387.15591073036194,387.15591073036194,387.15591073036194,387.15591073036194,387.15591073036194,391.4086883068085,3,4.381990671157837,None,,,,,,,,,,,,,,,,,,95,4,2025-02-24_13h18.48.238,comp,2024.2.4,56.36679572481989,2025-02-24 13h21.57.185092 -0500,
96,96,0,critical,hwd,20.0,2.1,upper,200.0,125.0,125.0,200.0,141.0,141.0,1,2.2498369216918945,None,,,,,0,0,0,0,0,96,96,19,391.4242446422577,,,,,,,,,,,,,,,,,,,,,,,,,,,,,,,,,,,,,,,,,,,,,,,,,,,,,,,,,,,,,,,,,,,,,,,,,,,,,,,,,200.0,125.0,125.0,200.0,141.0,141.0,2.1,2.12,-258,-275,0,-265,266,260,391.4103002548218,391.4103813171387,391.413626909256,391.4242446422577,391.579594373703,391.579594373703,391.579594373703,391.579594373703,391.579594373703,391.579594373703,391.579594373703,393.68918466567993,1,2.2498369216918945,None,,,,,,,,,,,,,,,,,,95,4,2025-02-24_13h18.48.238,comp,2024.2.4,56.36679572481989,2025-02-24 13h21.57.185092 -0500,
97,97,0,critical,wdh,20.0,2.1,lower,57.0,133.0,78.0,78.0,133.0,57.0,3,8.610692024230957,None,,,,,0,0,0,0,0,97,97,34,393.70488262176514,,,,,,,,,,,,,,,,,,,,,,,,,,,,,,,,,,,,,,,,,,,,,,,,,,,,,,,,,,,,,,,,,,,,,,,,,,,,,,,,,57.0,133.0,78.0,78.0,133.0,57.0,2.1,2.11,-202,271,0,262,164,-277,393.69068336486816,393.6907596588135,393.69388341903687,393.70488262176514,393.85947728157043,393.85947728157043,393.85947728157043,393.85947728157043,393.85947728157043,393.85947728157043,393.85947728157043,402.3207628726959,3,8.610692024230957,None,,,,,,,,,,,,,,,,,,95,4,2025-02-24_13h18.48.238,comp,2024.2.4,56.36679572481989,2025-02-24 13h21.57.185092 -0500,
98,98,0,critical,whd,35.0,4.0,upper,125.0,200.0,200.0,125.0,127.0,127.0,2,2.0013110637664795,None,,,,,0,0,0,0,0,98,98,89,402.33763790130615,,,,,,,,,,,,,,,,,,,,,,,,,,,,,,,,,,,,,,,,,,,,,,,,,,,,,,,,,,,,,,,,,,,,,,,,,,,,,,,,,125.0,200.0,200.0,125.0,127.0,127.0,4.0,4.2,-258,12,0,-268,222,-15,402.32238936424255,402.3224711418152,402.32586121559143,402.33763790130615,402.47697353363037,402.47697353363037,402.47697353363037,402.47697353363037,402.47697353363037,402.47697353363037,402.47697353363037,404.3440942764282,2,2.0013110637664795,None,,,,,,,,,,,,,,,,,,95,4,2025-02-24_13h18.48.238,comp,2024.2.4,56.36679572481989,2025-02-24 13h21.57.185092 -0500,
99,99,0,critical,hwd,35.0,2.1,upper,200.0,125.0,125.0,200.0,127.0,127.0,1,4.025542259216309,None,,,,,0,0,0,0,0,99,99,41,404.3605799674988,,,,,,,,,,,,,,,,,,,,,,,,,,,,,,,,,,,,,,,,,,,,,,,,,,,,,,,,,,,,,,,,,,,,,,,,,,,,,,,,,200.0,125.0,125.0,200.0,127.0,127.0,2.1,2.12,-258,-262,0,-271,260,257,404.3456554412842,404.34574270248413,404.3497669696808,404.3605799674988,404.50991463661194,404.50991463661194,404.50991463661194,404.50991463661194,404.50991463661194,404.50991463661194,404.50991463661194,408.4010570049286,1,4.025542259216309,None,,,,,,,,,,,,,,,,,,95,4,2025-02-24_13h18.48.238,comp,2024.2.4,56.36679572481989,2025-02-24 13h21.57.185092 -0500,
100,100,0,filler_random,None,None,None,None,None,None,None,None,None,None,3,3.128959894180298,None,,,,,0,0,0,0,0,100,100,149,408.4174768924713,,,,,,,,,,,,,,,,,,,,,,,,,,,,,,,,,,,,,,,,,,,,,,,,,,,,,,,,,,,,,,,,,,,,,,,,,,,,,,,,,156.81819892965467,147.09312895313278,71.48868352057131,108.83554788691649,140.42258650469907,177.2840011883588,2.1,2.11,-224,261,0,280,239,-264,408.4029788970947,408.40308117866516,408.4063513278961,408.4174768924713,408.56352376937866,408.56352376937866,408.56352376937866,408.56352376937866,408.56352376937866,408.56352376937866,408.56352376937866,411.56702041625977,3,3.128959894180298,None,,,,,,,,,,,,,,,,,,95,4,2025-02-24_13h18.48.238,comp,2024.2.4,56.36679572481989,2025-02-24 13h21.57.185092 -0500,
101,101,0,critical,hdw,20.0,2.1,upper,200.0,125.0,141.0,141.0,125.0,200.0,1,2.2343130111694336,None,,,,,0,0,0,0,0,101,101,23,411.583943605423,,,,,,,,,,,,,,,,,,,,,,,,,,,,,,,,,,,,,,,,,,,,,,,,,,,,,,,,,,,,,,,,,,,,,,,,,,,,,,,,,200.0,125.0,141.0,141.0,125.0,200.0,2.1,2.12,-229,-267,0,-256,266,257,411.56849217414856,411.5685694217682,411.5714328289032,411.583943605423,411.7291486263275,411.7291486263275,411.7291486263275,411.7291486263275,411.7291486263275,411.7291486263275,411.7291486263275,413.83197689056396,1,2.2343130111694336,None,,,,,,,,,,,,,,,,,,95,4,2025-02-24_13h18.48.238,comp,2024.2.4,56.36679572481989,2025-02-24 13h21.57.185092 -0500,
102,102,0,critical,hdw,35.0,2.1,upper,200.0,125.0,127.0,127.0,125.0,200.0,1,2.3618786334991455,None,,,,,0,0,0,0,0,102,102,45,413.8489098548889,,,,,,,,,,,,,,,,,,,,,,,,,,,,,,,,,,,,,,,,,,,,,,,,,,,,,,,,,,,,,,,,,,,,,,,,,,,,,,,,,200.0,125.0,127.0,127.0,125.0,200.0,2.1,2.11,-222,262,0,266,260,-273,413.83378076553345,413.8338623046875,413.8377401828766,413.8489098548889,413.98465394973755,413.98465394973755,413.98465394973755,413.98465394973755,413.98465394973755,413.98465394973755,413.98465394973755,416.2173376083374,1,2.3618786334991455,None,,,,,,,,,,,,,,,,,,95,4,2025-02-24_13h18.48.238,comp,2024.2.4,56.36679572481989,2025-02-24 13h21.57.185092 -0500,
103,103,0,critical,hdw,20.0,3.0,upper,200.0,125.0,141.0,141.0,125.0,200.0,3,2.0717544555664062,None,,,,,0,0,0,0,0,103,103,117,416.2357406616211,,,,,,,,,,,,,,,,,,,,,,,,,,,,,,,,,,,,,,,,,,,,,,,,,,,,,,,,,,,,,,,,,,,,,,,,,,,,,,,,,200.0,125.0,141.0,141.0,125.0,200.0,3.0,3.1,-229,284,0,7,266,-258,416.2190001010895,416.2190809249878,416.2224202156067,416.2357406616211,416.38041591644287,416.38041591644287,416.38041591644287,416.38041591644287,416.38041591644287,416.38041591644287,416.38041591644287,418.3132338523865,3,2.0717544555664062,None,,,,,,,,,,,,,,,,,,95,4,2025-02-24_13h18.48.238,comp,2024.2.4,56.36679572481989,2025-02-24 13h21.57.185092 -0500,
104,104,0,filler_random,None,None,None,None,None,None,None,None,None,None,3,1.5038337707519531,None,,,,,0,0,0,0,0,104,104,131,418.3303451538086,,,,,,,,,,,,,,,,,,,,,,,,,,,,,,,,,,,,,,,,,,,,,,,,,,,,,,,,,,,,,,,,,,,,,,,,,,,,,,,,,67.42795659671843,62.85664939256387,69.20619725258194,79.1541330529426,112.4062905068134,192.02936084996594,1.0,1.1,-647,250,-480,254,-248,275,418.3150370121002,418.31517267227173,418.31854033470154,418.3303451538086,418.48082184791565,418.48082184791565,418.48082184791565,418.48082184791565,418.48082184791565,418.48082184791565,418.48082184791565,419.84698462486267,3,1.5038337707519531,None,,,,,,,,,,,,,,,,,,95,4,2025-02-24_13h18.48.238,comp,2024.2.4,56.36679572481989,2025-02-24 13h21.57.185092 -0500,
105,105,0,critical,hdw,20.0,1.0,lower,133.0,57.0,78.0,78.0,57.0,133.0,3,3.819636583328247,None,,,,,0,0,0,0,0,105,105,114,419.8627872467041,,,,,,,,,,,,,,,,,,,,,,,,,,,,,,,,,,,,,,,,,,,,,,,,,,,,,,,,,,,,,,,,,,,,,,,,,,,,,,,,,133.0,57.0,78.0,78.0,57.0,133.0,1.0,1.1,-644,287,-480,258,-278,259,419.84848499298096,419.8485622406006,419.85144662857056,419.8627872467041,420.0025563240051,420.0025563240051,420.0025563240051,420.0025563240051,420.0025563240051,420.0025563240051,420.0025563240051,423.6848113536835,3,3.819636583328247,None,,,,,,,,,,,,,,,,,,95,4,2025-02-24_13h18.48.238,comp,2024.2.4,56.36679572481989,2025-02-24 13h21.57.185092 -0500,
106,106,0,critical,hdw,35.0,2.1,upper,200.0,125.0,127.0,127.0,125.0,200.0,3,2.5330939292907715,None,,,,,0,0,0,0,0,106,106,21,423.70109581947327,,,,,,,,,,,,,,,,,,,,,,,,,,,,,,,,,,,,,,,,,,,,,,,,,,,,,,,,,,,,,,,,,,,,,,,,,,,,,,,,,200.0,125.0,127.0,127.0,125.0,200.0,2.1,2.11,-222,261,0,286,260,-258,423.68644165992737,423.6865231990814,423.68951749801636,423.70109581947327,423.85148668289185,423.85148668289185,423.85148668289185,423.85148668289185,423.85148668289185,423.85148668289185,423.85148668289185,426.2483584880829,3,2.5330939292907715,None,,,,,,,,,,,,,,,,,,95,4,2025-02-24_13h18.48.238,comp,2024.2.4,56.36679572481989,2025-02-24 13h21.57.185092 -0500,
107,107,0,critical,hwd,35.0,2.1,lower,133.0,57.0,57.0,133.0,70.0,70.0,2,2.7309975624084473,None,,,,,0,0,0,0,0,107,107,40,426.26390647888184,,,,,,,,,,,,,,,,,,,,,,,,,,,,,,,,,,,,,,,,,,,,,,,,,,,,,,,,,,,,,,,,,,,,,,,,,,,,,,,,,133.0,57.0,57.0,133.0,70.0,70.0,2.1,2.12,-191,-262,0,-261,198,266,426.2500340938568,426.2501621246338,426.25346541404724,426.26390647888184,426.40655851364136,426.40655851364136,426.40655851364136,426.40655851364136,426.40655851364136,426.40655851364136,426.40655851364136,429.0028030872345,2,2.7309975624084473,None,,,,,,,,,,,,,,,,,,95,4,2025-02-24_13h18.48.238,comp,2024.2.4,56.36679572481989,2025-02-24 13h21.57.185092 -0500,
108,108,0,critical,wdh,35.0,3.0,upper,125.0,200.0,127.0,127.0,200.0,125.0,3,1.9282379150390625,None,,,,,0,0,0,0,0,108,108,75,429.0183560848236,,,,,,,,,,,,,,,,,,,,,,,,,,,,,,,,,,,,,,,,,,,,,,,,,,,,,,,,,,,,,,,,,,,,,,,,,,,,,,,,,125.0,200.0,127.0,127.0,200.0,125.0,3.0,3.2,-260,-263,0,6,222,253,429.00441789627075,429.00449872016907,429.0075795650482,429.0183560848236,429.16757321357727,429.16757321357727,429.16757321357727,429.16757321357727,429.16757321357727,429.16757321357727,429.16757321357727,430.9506878852844,3,1.9282379150390625,None,,,,,,,,,,,,,,,,,,95,4,2025-02-24_13h18.48.238,comp,2024.2.4,56.36679572481989,2025-02-24 13h21.57.185092 -0500,
109,109,0,filler_square,None,None,None,None,None,None,None,None,None,None,2,1.7513339519500732,None,,,,,0,0,0,0,0,109,109,185,430.9709885120392,,,,,,,,,,,,,,,,,,,,,,,,,,,,,,,,,,,,,,,,,,,,,,,,,,,,,,,,,,,,,,,,,,,,,,,,,,,,,,,,,67.99410839425138,64.00224515803424,102.96057488768759,102.96057488768759,83.53860640916416,75.47503257216617,2.2,2.21,-179,-267,0,275,185,286,430.9524772167206,430.952556848526,430.9554228782654,430.9709885120392,431.1183388233185,431.1183388233185,431.1183388233185,431.1183388233185,431.1183388233185,431.1183388233185,431.1183388233185,432.7392201423645,2,1.7513339519500732,None,,,,,,,,,,,,,,,,,,95,4,2025-02-24_13h18.48.238,comp,2024.2.4,56.36679572481989,2025-02-24 13h21.57.185092 -0500,
110,110,0,critical,dwh,20.0,2.1,upper,141.0,141.0,125.0,200.0,200.0,125.0,2,2.8090133666992188,None,,,,,0,0,0,0,0,110,110,31,432.7554590702057,,,,,,,,,,,,,,,,,,,,,,,,,,,,,,,,,,,,,,,,,,,,,,,,,,,,,,,,,,,,,,,,,,,,,,,,,,,,,,,,,141.0,141.0,125.0,200.0,200.0,125.0,2.1,2.12,-266,-253,0,-286,258,262,432.7409927845001,432.74107217788696,432.74399757385254,432.7554590702057,432.9024877548218,432.9024877548218,432.9024877548218,432.9024877548218,432.9024877548218,432.9024877548218,432.9024877548218,435.57007360458374,2,2.8090133666992188,None,,,,,,,,,,,,,,,,,,95,4,2025-02-24_13h18.48.238,comp,2024.2.4,56.36679572481989,2025-02-24 13h21.57.185092 -0500,
111,111,0,filler_random,None,None,None,None,None,None,None,None,None,None,1,2.502560615539551,None,,,,,0,0,0,0,0,111,111,143,435.58766651153564,,,,,,,,,,,,,,,,,,,,,,,,,,,,,,,,,,,,,,,,,,,,,,,,,,,,,,,,,,,,,,,,,,,,,,,,,,,,,,,,,167.97500329731363,175.57396361401413,139.24179966917256,86.92243800366155,127.58937948387987,142.7685392705509,2.1,2.12,-227,-260,0,-279,211,287,435.57183933258057,435.5719201564789,435.5751140117645,435.58766651153564,435.74126839637756,435.74126839637756,435.74126839637756,435.74126839637756,435.74126839637756,435.74126839637756,435.74126839637756,438.1046721935272,1,2.502560615539551,None,,,,,,,,,,,,,,,,,,95,4,2025-02-24_13h18.48.238,comp,2024.2.4,56.36679572481989,2025-02-24 13h21.57.185092 -0500,
112,112,0,critical,dwh,35.0,2.1,upper,127.0,127.0,125.0,200.0,200.0,125.0,3,2.5503578186035156,None,,,,,0,0,0,0,0,112,112,5,438.12415885925293,,,,,,,,,,,,,,,,,,,,,,,,,,,,,,,,,,,,,,,,,,,,,,,,,,,,,,,,,,,,,,,,,,,,,,,,,,,,,,,,,127.0,127.0,125.0,200.0,200.0,125.0,2.1,2.12,-260,-272,0,-259,258,269,438.1062333583832,438.10631108283997,438.11014556884766,438.12415885925293,438.27227330207825,438.27227330207825,438.27227330207825,438.27227330207825,438.27227330207825,438.27227330207825,438.27227330207825,440.68904519081116,3,2.5503578186035156,None,,,,,,,,,,,,,,,,,,95,4,2025-02-24_13h18.48.238,comp,2024.2.4,56.36679572481989,2025-02-24 13h21.57.185092 -0500,
113,113,0,filler_square,None,None,None,None,None,None,None,None,None,None,1,5.412383317947388,None,,,,,0,0,0,0,0,113,113,205,440.7044939994812,,,,,,,,,,,,,,,,,,,,,,,,,,,,,,,,,,,,,,,,,,,,,,,,,,,,,,,,,,,,,,,,,,,,,,,,,,,,,,,,,109.9021047016563,109.9021047016563,70.13134596497878,73.82271298502606,65.14795420962953,89.6543494217982,1.0,1.3,292,-269,480,-262,658,-261,440.6908655166626,440.6910033226013,440.6941907405853,440.7044939994812,440.85449409484863,440.85449409484863,440.85449409484863,440.85449409484863,440.85449409484863,440.85449409484863,440.85449409484863,446.1214952468872,1,5.412383317947388,None,,,,,,,,,,,,,,,,,,95,4,2025-02-24_13h18.48.238,comp,2024.2.4,56.36679572481989,2025-02-24 13h21.57.185092 -0500,
114,114,0,critical,hwd,35.0,2.1,lower,133.0,57.0,57.0,133.0,70.0,70.0,1,5.752269983291626,None,,,,,0,0,0,0,0,114,114,16,446.13798093795776,,,,,,,,,,,,,,,,,,,,,,,,,,,,,,,,,,,,,,,,,,,,,,,,,,,,,,,,,,,,,,,,,,,,,,,,,,,,,,,,,133.0,57.0,57.0,133.0,70.0,70.0,2.1,2.12,-191,-275,0,-254,198,265,446.12297010421753,446.1230499744415,446.1260929107666,446.13798093795776,446.27865767478943,446.27865767478943,446.27865767478943,446.27865767478943,446.27865767478943,446.27865767478943,446.27865767478943,451.91137766838074,1,5.752269983291626,None,,,,,,,,,,,,,,,,,,95,4,2025-02-24_13h18.48.238,comp,2024.2.4,56.36679572481989,2025-02-24 13h21.57.185092 -0500,
115,115,0,critical,wdh,35.0,3.0,lower,57.0,133.0,70.0,70.0,133.0,57.0,3,1.9284086227416992,None,,,,,0,0,0,0,0,115,115,74,451.9297585487366,,,,,,,,,,,,,,,,,,,,,,,,,,,,,,,,,,,,,,,,,,,,,,,,,,,,,,,,,,,,,,,,,,,,,,,,,,,,,,,,,57.0,133.0,70.0,70.0,133.0,57.0,3.0,3.1,-198,273,0,-12,160,-273,451.91319131851196,451.9133219718933,451.9166476726532,451.9297585487366,452.07828879356384,452.07828879356384,452.07828879356384,452.07828879356384,452.07828879356384,452.07828879356384,452.07828879356384,453.8710722923279,3,1.9284086227416992,None,,,,,,,,,,,,,,,,,,95,4,2025-02-24_13h18.48.238,comp,2024.2.4,56.36679572481989,2025-02-24 13h21.57.185092 -0500,
116,116,0,catch,None,None,None,None,None,None,None,None,None,None,1,1.320056676864624,None,,,,,0,0,0,0,0,116,116,122,453.8901674747467,,,,,,,,,,,,,,,,,,,,,,,,,,,,,,,,,,,,,,,,,,,,,,,,,,,,,,,,,,,,,,,,,,,,,,,,,,,,,,,,,177,148,89,101,95,95,3.0,3.1,-220,287,0,10,194,-278,453.87314534187317,453.8732249736786,453.8764555454254,453.8901674747467,454.0261812210083,454.0261812210083,454.0261812210083,454.0261812210083,454.0261812210083,454.0261812210083,454.0261812210083,455.22507524490356,1,1.320056676864624,None,,,,,,,,,,,,,,,,,,95,4,2025-02-24_13h18.48.238,comp,2024.2.4,56.36679572481989,2025-02-24 13h21.57.185092 -0500,
117,117,0,critical,hdw,35.0,3.0,upper,200.0,125.0,127.0,127.0,125.0,200.0,3,1.8015072345733643,None,,,,,0,0,0,0,0,117,117,111,455.2412097454071,,,,,,,,,,,,,,,,,,,,,,,,,,,,,,,,,,,,,,,,,,,,,,,,,,,,,,,,,,,,,,,,,,,,,,,,,,,,,,,,,200.0,125.0,127.0,127.0,125.0,200.0,3.0,3.2,-222,-277,0,6,260,276,455.22668743133545,455.2267882823944,455.2301480770111,455.2412097454071,455.3973379135132,455.3973379135132,455.3973379135132,455.3973379135132,455.3973379135132,455.3973379135132,455.3973379135132,457.0457863807678,3,1.8015072345733643,None,,,,,,,,,,,,,,,,,,95,4,2025-02-24_13h18.48.238,comp,2024.2.4,56.36679572481989,2025-02-24 13h21.57.185092 -0500,
118,118,0,critical,hdw,20.0,3.0,lower,133.0,57.0,78.0,78.0,57.0,133.0,1,2.4769201278686523,None,,,,,0,0,0,0,0,118,118,116,457.06190276145935,,,,,,,,,,,,,,,,,,,,,,,,,,,,,,,,,,,,,,,,,,,,,,,,,,,,,,,,,,,,,,,,,,,,,,,,,,,,,,,,,133.0,57.0,78.0,78.0,57.0,133.0,3.0,3.1,-164,262,0,18,202,-277,457.0474147796631,457.04754662513733,457.0509796142578,457.06190276145935,457.2132751941681,457.2132751941681,457.2132751941681,457.2132751941681,457.2132751941681,457.2132751941681,457.2132751941681,459.54197096824646,1,2.4769201278686523,None,,,,,,,,,,,,,,,,,,95,4,2025-02-24_13h18.48.238,comp,2024.2.4,56.36679572481989,2025-02-24 13h21.57.185092 -0500,
119,119,0,critical,dhw,20.0,3.0,lower,78.0,78.0,133.0,57.0,57.0,133.0,3,1.6759545803070068,None,,,,,0,0,0,0,0,119,119,56,459.55850100517273,,,,,,,,,,,,,,,,,,,,,,,,,,,,,,,,,,,,,,,,,,,,,,,,,,,,,,,,,,,,,,,,,,,,,,,,,,,,,,,,,78.0,78.0,133.0,57.0,57.0,133.0,3.0,3.2,-164,-254,0,-14,191,290,459.54342794418335,459.5435039997101,459.54644799232483,459.55850100517273,459.69678807258606,459.69678807258606,459.69678807258606,459.69678807258606,459.69678807258606,459.69678807258606,459.69678807258606,461.2509136199951,3,1.6759545803070068,None,,,,,,,,,,,,,,,,,,95,4,2025-02-24_13h18.48.238,comp,2024.2.4,56.36679572481989,2025-02-24 13h21.57.185092 -0500,
120,120,0,filler_square,None,None,None,None,None,None,None,None,None,None,2,1.8868918418884277,None,,,,,0,0,0,0,0,120,120,208,461.2674708366394,,,,,,,,,,,,,,,,,,,,,,,,,,,,,,,,,,,,,,,,,,,,,,,,,,,,,,,,,,,,,,,,,,,,,,,,,,,,,,,,,89.65520376684113,89.65520376684113,83.35393502636691,88.1408332988926,67.23773410991137,77.52164295550914,2.2,2.22,-185,275,0,-260,179,-269,461.2529146671295,461.25300121307373,461.256206035614,461.2674708366394,461.40930247306824,461.40930247306824,461.40930247306824,461.40930247306824,461.40930247306824,461.40930247306824,461.40930247306824,463.16554498672485,2,1.8868918418884277,None,,,,,,,,,,,,,,,,,,95,4,2025-02-24_13h18.48.238,comp,2024.2.4,56.36679572481989,2025-02-24 13h21.57.185092 -0500,
121,121,0,filler_square,None,None,None,None,None,None,None,None,None,None,1,1.8207340240478516,None,,,,,0,0,0,0,0,121,121,206,463.18156838417053,,,,,,,,,,,,,,,,,,,,,,,,,,,,,,,,,,,,,,,,,,,,,,,,,,,,,,,,,,,,,,,,,,,,,,,,,,,,,,,,,89.93640839049814,89.93640839049814,80.29415878113741,58.28554714849375,79.57030009795703,58.75116729939521,2.1,2.12,-170,-252,0,-253,155,264,463.1673917770386,463.1674726009369,463.17074036598206,463.18156838417053,463.32687306404114,463.32687306404114,463.32687306404114,463.32687306404114,463.32687306404114,463.32687306404114,463.32687306404114,465.0157079696655,1,1.8207340240478516,None,,,,,,,,,,,,,,,,,,95,4,2025-02-24_13h18.48.238,comp,2024.2.4,56.36679572481989,2025-02-24 13h21.57.185092 -0500,
122,122,0,critical,dwh,20.0,2.1,lower,78.0,78.0,57.0,133.0,133.0,57.0,3,1.7314300537109375,None,,,,,0,0,0,0,0,122,122,6,465.03157019615173,,,,,,,,,,,,,,,,,,,,,,,,,,,,,,,,,,,,,,,,,,,,,,,,,,,,,,,,,,,,,,,,,,,,,,,,,,,,,,,,,78.0,78.0,57.0,133.0,133.0,57.0,2.1,2.12,-202,-279,0,-266,191,286,465.01727652549744,465.01735830307007,465.02123498916626,465.03157019615173,465.1810665130615,465.1810665130615,465.1810665130615,465.1810665130615,465.1810665130615,465.1810665130615,465.1810665130615,466.7651870250702,3,1.7314300537109375,None,,,,,,,,,,,,,,,,,,95,4,2025-02-24_13h18.48.238,comp,2024.2.4,56.36679572481989,2025-02-24 13h21.57.185092 -0500,
123,123,0,critical,dhw,35.0,2.1,upper,127.0,127.0,200.0,125.0,125.0,200.0,2,1.3965497016906738,None,,,,,0,0,0,0,0,123,123,1,466.78165102005005,,,,,,,,,,,,,,,,,,,,,,,,,,,,,,,,,,,,,,,,,,,,,,,,,,,,,,,,,,,,,,,,,,,,,,,,,,,,,,,,,127.0,127.0,200.0,125.0,125.0,200.0,2.1,2.11,-222,283,0,280,258,-257,466.7669425010681,466.76708006858826,466.77006912231445,466.78165102005005,466.92976427078247,466.92976427078247,466.92976427078247,466.92976427078247,466.92976427078247,466.92976427078247,466.92976427078247,468.1907391548157,2,1.3965497016906738,None,,,,,,,,,,,,,,,,,,95,4,2025-02-24_13h18.48.238,comp,2024.2.4,56.36679572481989,2025-02-24 13h21.57.185092 -0500,
124,124,0,critical,whd,35.0,2.1,lower,57.0,133.0,133.0,57.0,70.0,70.0,1,2.611574649810791,None,,,,,0,0,0,0,0,124,124,12,468.2068200111389,,,,,,,,,,,,,,,,,,,,,,,,,,,,,,,,,,,,,,,,,,,,,,,,,,,,,,,,,,,,,,,,,,,,,,,,,,,,,,,,,57.0,133.0,133.0,57.0,70.0,70.0,2.1,2.11,-191,266,0,272,160,-266,468.1924409866333,468.19252371788025,468.1958849430084,468.2068200111389,468.34545159339905,468.34545159339905,468.34545159339905,468.34545159339905,468.34545159339905,468.34545159339905,468.34545159339905,470.8324816226959,1,2.611574649810791,None,,,,,,,,,,,,,,,,,,95,4,2025-02-24_13h18.48.238,comp,2024.2.4,56.36679572481989,2025-02-24 13h21.57.185092 -0500,
125,125,0,critical,whd,35.0,2.1,lower,57.0,133.0,133.0,57.0,70.0,70.0,2,2.4422178268432617,None,,,,,0,0,0,0,0,125,125,36,470.8485324382782,,,,,,,,,,,,,,,,,,,,,,,,,,,,,,,,,,,,,,,,,,,,,,,,,,,,,,,,,,,,,,,,,,,,,,,,,,,,,,,,,57.0,133.0,133.0,57.0,70.0,70.0,2.1,2.11,-191,270,0,290,160,-265,470.8343713283539,470.8344542980194,470.8379211425781,470.8485324382782,470.999276638031,470.999276638031,470.999276638031,470.999276638031,470.999276638031,470.999276638031,470.999276638031,473.2996428012848,2,2.4422178268432617,None,,,,,,,,,,,,,,,,,,95,4,2025-02-24_13h18.48.238,comp,2024.2.4,56.36679572481989,2025-02-24 13h21.57.185092 -0500,
126,126,0,filler_random,None,None,None,None,None,None,None,None,None,None,3,1.7507843971252441,None,,,,,0,0,0,0,0,126,126,136,473.31545186042786,,,,,,,,,,,,,,,,,,,,,,,,,,,,,,,,,,,,,,,,,,,,,,,,,,,,,,,,,,,,,,,,,,,,,,,,,,,,,,,,,126.69279974422616,151.20476875865887,132.6243240427135,111.72724282298094,155.78990943280292,132.23452572697465,2.1,2.11,-227,275,0,266,218,-288,473.3014278411865,473.3015077114105,473.30461740493774,473.31545186042786,473.4690275192261,473.4690275192261,473.4690275192261,473.4690275192261,473.4690275192261,473.4690275192261,473.4690275192261,475.0817029476166,3,1.7507843971252441,None,,,,,,,,,,,,,,,,,,95,4,2025-02-24_13h18.48.238,comp,2024.2.4,56.36679572481989,2025-02-24 13h21.57.185092 -0500,
127,127,0,critical,dhw,20.0,4.0,upper,141.0,141.0,200.0,125.0,125.0,200.0,3,0.8980660438537598,None,,,,,0,0,0,0,0,127,127,59,475.097069978714,,,,,,,,,,,,,,,,,,,,,,,,,,,,,,,,,,,,,,,,,,,,,,,,,,,,,,,,,,,,,,,,,,,,,,,,,,,,,,,,,141.0,141.0,200.0,125.0,125.0,200.0,4.0,4.2,-229,0,0,-274,258,-8,475.08325028419495,475.08333110809326,475.0867590904236,475.097069978714,475.2468843460083,475.2468843460083,475.2468843460083,475.2468843460083,475.2468843460083,475.2468843460083,475.2468843460083,476.0001575946808,3,0.8980660438537598,None,,,,,,,,,,,,,,,,,,95,4,2025-02-24_13h18.48.238,comp,2024.2.4,56.36679572481989,2025-02-24 13h21.57.185092 -0500,
128,128,0,filler_random,None,None,None,None,None,None,None,None,None,None,2,1.2749075889587402,None,,,,,0,0,0,0,0,128,128,168,476.01610684394836,,,,,,,,,,,,,,,,,,,,,,,,,,,,,,,,,,,,,,,,,,,,,,,,,,,,,,,,,,,,,,,,,,,,,,,,,,,,,,,,,108.29306098703748,192.34689651706447,135.83885689832744,184.91095728758916,67.41807838485673,185.0523742462491,3.0,3.1,-285,271,0,3,281,-270,476.00196623802185,476.0021004676819,476.0053434371948,476.01610684394836,476.16618824005127,476.16618824005127,476.16618824005127,476.16618824005127,476.16618824005127,476.16618824005127,476.16618824005127,477.29950428009033,2,1.2749075889587402,None,,,,,,,,,,,,,,,,,,95,4,2025-02-24_13h18.48.238,comp,2024.2.4,56.36679572481989,2025-02-24 13h21.57.185092 -0500,
129,129,0,critical,hwd,35.0,4.0,upper,200.0,125.0,125.0,200.0,127.0,127.0,1,1.11080002784729,None,,,,,0,0,0,0,0,129,129,101,477.31554436683655,,,,,,,,,,,,,,,,,,,,,,,,,,,,,,,,,,,,,,,,,,,,,,,,,,,,,,,,,,,,,,,,,,,,,,,,,,,,,,,,,200.0,125.0,125.0,200.0,127.0,127.0,4.0,4.2,-258,4,0,-259,260,1,477.30106019973755,477.30114006996155,477.3048985004425,477.31554436683655,477.46607756614685,477.46607756614685,477.46607756614685,477.46607756614685,477.46607756614685,477.46607756614685,477.46607756614685,478.4405586719513,1,1.11080002784729,None,,,,,,,,,,,,,,,,,,95,4,2025-02-24_13h18.48.238,comp,2024.2.4,56.36679572481989,2025-02-24 13h21.57.185092 -0500,
130,130,0,critical,dwh,35.0,3.0,lower,70.0,70.0,57.0,133.0,133.0,57.0,2,3.1073050498962402,None,,,,,0,0,0,0,0,130,130,62,478.4555313587189,,,,,,,,,,,,,,,,,,,,,,,,,,,,,,,,,,,,,,,,,,,,,,,,,,,,,,,,,,,,,,,,,,,,,,,,,,,,,,,,,70.0,70.0,57.0,133.0,133.0,57.0,3.0,3.2,-198,-282,0,0,191,255,478.4421036243439,478.44218158721924,478.4451060295105,478.4555313587189,478.5995833873749,478.5995833873749,478.5995833873749,478.5995833873749,478.5995833873749,478.5995833873749,478.5995833873749,481.57342004776,2,3.1073050498962402,None,,,,,,,,,,,,,,,,,,95,4,2025-02-24_13h18.48.238,comp,2024.2.4,56.36679572481989,2025-02-24 13h21.57.185092 -0500,
131,131,0,critical,dhw,35.0,1.0,upper,127.0,127.0,200.0,125.0,125.0,200.0,1,6.873231410980225,None,,,,,0,0,0,0,0,131,131,49,481.5936658382416,,,,,,,,,,,,,,,,,,,,,,,,,,,,,,,,,,,,,,,,,,,,,,,,,,,,,,,,,,,,,,,,,,,,,,,,,,,,,,,,,127.0,127.0,200.0,125.0,125.0,200.0,1.0,1.3,258,-275,480,-261,738,-260,481.5749559402466,481.57503509521484,481.5779273509979,481.5936658382416,481.7347996234894,481.7347996234894,481.7347996234894,481.7347996234894,481.7347996234894,481.7347996234894,481.7347996234894,488.4848575592041,1,6.873231410980225,None,,,,,,,,,,,,,,,,,,95,4,2025-02-24_13h18.48.238,comp,2024.2.4,56.36679572481989,2025-02-24 13h21.57.185092 -0500,
132,132,0,critical,hdw,20.0,4.0,lower,133.0,57.0,78.0,78.0,57.0,133.0,2,2.189671039581299,None,,,,,0,0,0,0,0,132,132,118,488.5008101463318,,,,,,,,,,,,,,,,,,,,,,,,,,,,,,,,,,,,,,,,,,,,,,,,,,,,,,,,,,,,,,,,,,,,,,,,,,,,,,,,,133.0,57.0,78.0,78.0,57.0,133.0,4.0,4.2,-164,11,0,-283,202,-12,488.48635482788086,488.48643231391907,488.48964047431946,488.5008101463318,488.64075541496277,488.64075541496277,488.64075541496277,488.64075541496277,488.64075541496277,488.64075541496277,488.64075541496277,490.6935942173004,2,2.189671039581299,None,,,,,,,,,,,,,,,,,,95,4,2025-02-24_13h18.48.238,comp,2024.2.4,56.36679572481989,2025-02-24 13h21.57.185092 -0500,
133,133,0,critical,hdw,35.0,4.0,upper,200.0,125.0,127.0,127.0,125.0,200.0,3,2.1073014736175537,None,,,,,0,0,0,0,0,133,133,113,490.71103858947754,,,,,,,,,,,,,,,,,,,,,,,,,,,,,,,,,,,,,,,,,,,,,,,,,,,,,,,,,,,,,,,,,,,,,,,,,,,,,,,,,200.0,125.0,127.0,127.0,125.0,200.0,4.0,4.1,-222,-288,0,-8,260,-274,490.6951229572296,490.69520020484924,490.6980800628662,490.71103858947754,490.85350584983826,490.85350584983826,490.85350584983826,490.85350584983826,490.85350584983826,490.85350584983826,490.85350584983826,492.8287534713745,3,2.1073014736175537,None,,,,,,,,,,,,,,,,,,95,4,2025-02-24_13h18.48.238,comp,2024.2.4,56.36679572481989,2025-02-24 13h21.57.185092 -0500,
134,134,0,catch,None,None,None,None,None,None,None,None,None,None,3,1.829923391342163,None,,,,,0,0,0,0,0,134,134,129,492.84433102607727,,,,,,,,,,,,,,,,,,,,,,,,,,,,,,,,,,,,,,,,,,,,,,,,,,,,,,,,,,,,,,,,,,,,,,,,,,,,,,,,,76,114,97,93,149,176,2.1,2.12,-200,-284,0,-279,230,276,492.83062386512756,492.83070611953735,492.83355021476746,492.84433102607727,492.99078392982483,492.99078392982483,492.99078392982483,492.99078392982483,492.99078392982483,492.99078392982483,492.99078392982483,494.686274766922,3,1.829923391342163,None,,,,,,,,,,,,,,,,,,95,4,2025-02-24_13h18.48.238,comp,2024.2.4,56.36679572481989,2025-02-24 13h21.57.185092 -0500,
135,135,0,filler_random,None,None,None,None,None,None,None,None,None,None,2,7.379981756210327,None,,,,,0,0,0,0,0,135,135,162,494.70228934288025,,,,,,,,,,,,,,,,,,,,,,,,,,,,,,,,,,,,,,,,,,,,,,,,,,,,,,,,,,,,,,,,,,,,,,,,,,,,,,,,,128.19394475273918,195.94716599821695,161.38292809902595,173.57984165288383,74.62332691463429,183.71802750750624,4.0,4.2,-281,10,0,-290,275,-15,494.68821239471436,494.68828988075256,494.6917419433594,494.70228934288025,494.85526037216187,494.85526037216187,494.85526037216187,494.85526037216187,494.85526037216187,494.85526037216187,494.85526037216187,502.09266471862793,2,7.379981756210327,None,,,,,,,,,,,,,,,,,,95,4,2025-02-24_13h18.48.238,comp,2024.2.4,56.36679572481989,2025-02-24 13h21.57.185092 -0500,
136,136,0,filler_random,None,None,None,None,None,None,None,None,None,None,3,1.4847097396850586,None,,,,,0,0,0,0,0,136,136,153,502.1098737716675,,,,,,,,,,,,,,,,,,,,,,,,,,,,,,,,,,,,,,,,,,,,,,,,,,,,,,,,,,,,,,,,,,,,,,,,,,,,,,,,,108.0302808047858,99.00961463604936,72.39953535217265,70.12155430448142,152.80825485134957,143.30904541666897,2.1,2.11,-181,260,0,259,203,-275,502.0951523780823,502.0952351093292,502.0982060432434,502.1098737716675,502.257164478302,502.257164478302,502.257164478302,502.257164478302,502.257164478302,502.257164478302,502.257164478302,503.61227083206177,3,1.4847097396850586,None,,,,,,,,,,,,,,,,,,95,4,2025-02-24_13h18.48.238,comp,2024.2.4,56.36679572481989,2025-02-24 13h21.57.185092 -0500,
137,137,0,critical,hdw,20.0,2.1,upper,200.0,125.0,141.0,141.0,125.0,200.0,3,0.926673173904419,None,,,,,0,0,0,0,0,137,137,47,503.62813234329224,,,,,,,,,,,,,,,,,,,,,,,,,,,,,,,,,,,,,,,,,,,,,,,,,,,,,,,,,,,,,,,,,,,,,,,,,,,,,,,,,200.0,125.0,141.0,141.0,125.0,200.0,2.1,2.11,-229,254,0,261,266,-254,503.6137731075287,503.61385130882263,503.61778259277344,503.62813234329224,503.77494072914124,503.77494072914124,503.77494072914124,503.77494072914124,503.77494072914124,503.77494072914124,503.77494072914124,504.557204246521,3,0.926673173904419,None,,,,,,,,,,,,,,,,,,95,4,2025-02-24_13h18.48.238,comp,2024.2.4,56.36679572481989,2025-02-24 13h21.57.185092 -0500,
138,138,0,critical,wdh,35.0,2.1,lower,57.0,133.0,70.0,70.0,133.0,57.0,1,2.763655662536621,None,,,,,0,0,0,0,0,138,138,32,504.57470893859863,,,,,,,,,,,,,,,,,,,,,,,,,,,,,,,,,,,,,,,,,,,,,,,,,,,,,,,,,,,,,,,,,,,,,,,,,,,,,,,,,57.0,133.0,70.0,70.0,133.0,57.0,2.1,2.12,-198,-261,0,-278,160,266,504.55873441696167,504.55881452560425,504.56171679496765,504.57470893859863,504.7265479564667,504.7265479564667,504.7265479564667,504.7265479564667,504.7265479564667,504.7265479564667,504.7265479564667,507.3438718318939,1,2.763655662536621,None,,,,,,,,,,,,,,,,,,95,4,2025-02-24_13h18.48.238,comp,2024.2.4,56.36679572481989,2025-02-24 13h21.57.185092 -0500,
139,139,0,critical,dhw,35.0,2.1,lower,70.0,70.0,133.0,57.0,57.0,133.0,2,5.519960165023804,None,,,,,0,0,0,0,0,139,139,24,507.362423658371,,,,,,,,,,,,,,,,,,,,,,,,,,,,,,,,,,,,,,,,,,,,,,,,,,,,,,,,,,,,,,,,,,,,,,,,,,,,,,,,,70.0,70.0,133.0,57.0,57.0,133.0,2.1,2.12,-160,-253,0,-289,191,282,507.34555435180664,507.3457145690918,507.3494641780853,507.362423658371,507.50882935523987,507.50882935523987,507.50882935523987,507.50882935523987,507.50882935523987,507.50882935523987,507.50882935523987,512.8962678909302,2,5.519960165023804,None,,,,,,,,,,,,,,,,,,95,4,2025-02-24_13h18.48.238,comp,2024.2.4,56.36679572481989,2025-02-24 13h21.57.185092 -0500,
140,140,0,critical,hwd,20.0,3.0,upper,200.0,125.0,125.0,200.0,141.0,141.0,2,2.0342676639556885,None,,,,,0,0,0,0,0,140,140,105,512.9120559692383,,,,,,,,,,,,,,,,,,,,,,,,,,,,,,,,,,,,,,,,,,,,,,,,,,,,,,,,,,,,,,,,,,,,,,,,,,,,,,,,,200.0,125.0,125.0,200.0,141.0,141.0,3.0,3.2,-258,-265,0,9,266,279,512.8979978561401,512.8981244564056,512.9016578197479,512.9120559692383,513.0659756660461,513.0659756660461,513.0659756660461,513.0659756660461,513.0659756660461,513.0659756660461,513.0659756660461,514.9622702598572,2,2.0342676639556885,None,,,,,,,,,,,,,,,,,,95,4,2025-02-24_13h18.48.238,comp,2024.2.4,56.36679572481989,2025-02-24 13h21.57.185092 -0500,
