thisN,thisTrialN,thisRepN,effect,order,distance,config,diag,h_1,w_1,h_2,w_2,h_3,w_3,rect_choice.keys,rect_choice.rt,rect_choice.duration,instructions_loop.thisRepN,instructions_loop.thisTrialN,instructions_loop.thisN,instructions_loop.thisIndex,blocks.thisRepN,blocks.thisTrialN,blocks.thisN,blocks.thisIndex,trials.thisRepN,trials.thisTrialN,trials.thisN,trials.thisIndex,thisRow.t,notes,consent.started,agree_button.started,decline_button.started,consent_img.started,mouse.started,consent.stopped,agree_button.numClicks,agree_button.timesOn,agree_button.timesOff,decline_button.numClicks,decline_button.timesOn,decline_button.timesOff,mouse.x,mouse.y,mouse.leftButton,mouse.midButton,mouse.rightButton,mouse.time,mouse.clicked_name,exp_params.started,exp_params.stopped,welcome.started,welcome_text.started,welcome.stopped,instructions_1.started,instructions_1_text_1.started,instructions_1_text_2.started,key_resp.started,instructions_1.stopped,instructions_loop.key_resp.keys,instructions_loop.key_resp.rt,instructions_loop.key_resp.duration,instructions_2.started,instructions_2_text_1.started,instructions_2_text_2.started,key_resp_2.started,instructions_2.stopped,instructions_loop.key_resp_2.keys,instructions_loop.key_resp_2.rt,instructions_loop.key_resp_2.duration,instructions_3.started,instructions_3_text_1.started,r1_instr3.started,r2_instr3.started,r3_instr3.started,r1_instr3_label.started,r2_instr3_label.started,r3_instr3_label.started,instructions_3_text_3.started,instructions_3_text_4.started,key_resp_3.started,instructions_3.stopped,instructions_loop.key_resp_3.keys,instructions_loop.key_resp_3.rt,instructions_loop.key_resp_3.duration,instructions_4.started,instructions_4_text_1.started,instructions_4_text_3.started,instructions_4_text_2.started,key_resp_4.started,instructions_4.stopped,instructions_loop.key_resp_4.keys,instructions_loop.key_resp_4.rt,instructions_loop.key_resp_4.duration,instructions_5.started,instructions_5_text_1.started,instructions_5_text_2.started,key_resp_5.started,instructions_5.stopped,instructions_loop.key_resp_5.keys,instructions_loop.key_resp_5.rt,instructions_loop.key_resp_5.duration,start_exp.started,start_exp_text.started,key_resp_6.started,start_exp.stopped,key_resp_6.keys,key_resp_6.rt,key_resp_6.duration,h_1_tmp,w_1_tmp,h_2_tmp,w_2_tmp,h_3_tmp,w_3_tmp,config_tmp,config_tmp_1,r_1_x,r_1_y,r_2_x,r_2_y,r_3_x,r_3_y,pre_trial.started,pre_trial.stopped,choice_trial.started,rect_choice.started,r_1.started,r_2.started,r_3.started,r_1_label.started,r_2_label.started,r_3_label.started,prompt.started,choice_trial.stopped,trials.rect_choice.keys,trials.rect_choice.rt,trials.rect_choice.duration,end_block.started,end_block_text.started,end_block.stopped,end.started,end_text.started,key_resp_7.started,end.stopped,key_resp_7.keys,key_resp_7.rt,key_resp_7.duration,debriefing.started,debrief_form.started,end_debrief.started,debriefing.stopped,end_debrief.keys,end_debrief.rt,end_debrief.duration,participant,computer,date,expName,psychopyVersion,frameRate,expStart,
,,,,,,,,,,,,,,,,,,,,,,,,,,,,,,,0.01588749885559082,0.042611122131347656,0.042611122131347656,0.042611122131347656,0.015349626541137695,3.6418612003326416,1,[3.5980491638183594],[3.5980594158172607],0,,,[-66.0],[-503.0],[1],[0],[0],[3.625277042388916],['agree_button'],,,,,,,,,,,,,,,,,,,,,,,,,,,,,,,,,,,,,,,,,,,,,,,,,,,,,,,,,,,,,,,,,,,,,,,,,,,,,,,,,,,,,,,,,,,,,,,,,,,,,,,,,,,96,5,2025-02-24_13h18.31.708,comp,2024.2.4,60.43918261714106,2025-02-24 13h21.31.748705 -0500,
,,,,,,,,,,,,,,,,,,,,,,,,,,,,,,,,,,,,,,,,,,,,,,,,,,3.6421122550964355,3.642146110534668,,,,,,,,,,,,,,,,,,,,,,,,,,,,,,,,,,,,,,,,,,,,,,,,,,,,,,,,,,,,,,,,,,,,,,,,,,,,,,,,,,,,,,,,,,,,,,,,,,,,,,,,,96,5,2025-02-24_13h18.31.708,comp,2024.2.4,60.43918261714106,2025-02-24 13h21.31.748705 -0500,
,,,,,,,,,,,,,,,,,,,,,,,,,,,,,,,,,,,,,,,,,,,,,,,,,,,,3.6421682834625244,3.655675172805786,5.644927978515625,,,,,,,,,,,,,,,,,,,,,,,,,,,,,,,,,,,,,,,,,,,,,,,,,,,,,,,,,,,,,,,,,,,,,,,,,,,,,,,,,,,,,,,,,,,,,,,,,,,,,,96,5,2025-02-24_13h18.31.708,comp,2024.2.4,60.43918261714106,2025-02-24 13h21.31.748705 -0500,
0,0,0,,,,,,,,,,,,,,,0,0,0,0,,,,,,,,,5.661701440811157,,,,,,,,,,,,,,,,,,,,,,,,,,5.645464658737183,5.661701440811157,5.661701440811157,7.1452765464782715,8.862866401672363,space,1.6997954845428467,None,8.862949848175049,8.878298997879028,8.878298997879028,10.378304719924927,16.462607860565186,space,6.066749095916748,None,16.46269392967224,16.48432993888855,16.48432993888855,16.48432993888855,16.48432993888855,16.48432993888855,16.48432993888855,16.48432993888855,16.48432993888855,16.48432993888855,17.961949586868286,21.42974853515625,space,3.450296640396118,None,21.429861307144165,21.445109367370605,21.445109367370605,21.445109367370605,22.94487953186035,35.695881605148315,space,12.73832392692566,None,35.69596982002258,35.71154236793518,35.71154236793518,37.211353063583374,44.91235709190369,space,7.682604789733887,None,44.91247296333313,44.928077697753906,44.928077697753906,45.81231355667114,space,0.8760664463043213,None,,,,,,,,,,,,,,,,,,,,,,,,,,,,,,,,,,,,,,,,,,,,,,,96,5,2025-02-24_13h18.31.708,comp,2024.2.4,60.43918261714106,2025-02-24 13h21.31.748705 -0500,
0,0,0,filler_square,None,None,None,None,None,None,None,None,None,None,3,1.6850695610046387,None,,,,,0,0,0,0,0,0,0,170,45.87109184265137,,,,,,,,,,,,,,,,,,,,,,,,,,,,,,,,,,,,,,,,,,,,,,,,,,,,,,,,,,,,,,,,,,,,,,,,,,,,,,,,,62.12261147793381,103.56636453453271,62.360221849817606,65.08852999363756,104.81473683900862,104.81473683900862,3.0,3.2,-180,-262,0,-3,181,260,45.85717535018921,45.85722255706787,45.85917139053345,45.87109184265137,46.01824927330017,46.01824927330017,46.01824927330017,46.01824927330017,46.01824927330017,46.01824927330017,46.01824927330017,47.562413930892944,3,1.6850695610046387,None,,,,,,,,,,,,,,,,,,96,5,2025-02-24_13h18.31.708,comp,2024.2.4,60.43918261714106,2025-02-24 13h21.31.748705 -0500,
1,1,0,critical,dhw,20.0,4.0,lower,78.0,78.0,133.0,57.0,57.0,133.0,2,3.715712070465088,None,,,,,0,0,0,0,0,1,1,58,47.57815885543823,,,,,,,,,,,,,,,,,,,,,,,,,,,,,,,,,,,,,,,,,,,,,,,,,,,,,,,,,,,,,,,,,,,,,,,,,,,,,,,,,78.0,78.0,133.0,57.0,57.0,133.0,4.0,4.2,-164,-19,0,-256,191,-15,47.56336236000061,47.56340312957764,47.565375089645386,47.57815885543823,47.72804045677185,47.72804045677185,47.72804045677185,47.72804045677185,47.72804045677185,47.72804045677185,47.72804045677185,51.31241536140442,2,3.715712070465088,None,,,,,,,,,,,,,,,,,,96,5,2025-02-24_13h18.31.708,comp,2024.2.4,60.43918261714106,2025-02-24 13h21.31.748705 -0500,
2,2,0,filler_square,None,None,None,None,None,None,None,None,None,None,3,1.550135850906372,None,,,,,0,0,0,0,0,2,2,190,51.32783818244934,,,,,,,,,,,,,,,,,,,,,,,,,,,,,,,,,,,,,,,,,,,,,,,,,,,,,,,,,,,,,,,,,,,,,,,,,,,,,,,,,115.94399946197157,80.73970119722362,75.58201984433151,114.22698980057855,119.47391527297961,119.47391527297961,3.0,3.2,-193,-265,0,18,213,283,51.31365203857422,51.31369471549988,51.31616806983948,51.32783818244934,51.47804117202759,51.47804117202759,51.47804117202759,51.47804117202759,51.47804117202759,51.47804117202759,51.47804117202759,52.879321336746216,3,1.550135850906372,None,,,,,,,,,,,,,,,,,,96,5,2025-02-24_13h18.31.708,comp,2024.2.4,60.43918261714106,2025-02-24 13h21.31.748705 -0500,
3,3,0,critical,hwd,20.0,4.0,upper,200.0,125.0,125.0,200.0,141.0,141.0,1,4.399303197860718,None,,,,,0,0,0,0,0,3,3,107,52.89478421211243,,,,,,,,,,,,,,,,,,,,,,,,,,,,,,,,,,,,,,,,,,,,,,,,,,,,,,,,,,,,,,,,,,,,,,,,,,,,,,,,,200.0,125.0,125.0,200.0,141.0,141.0,4.0,4.1,-258,-252,0,5,266,-278,52.88007926940918,52.88011837005615,52.88237500190735,52.89478421211243,53.044838666915894,53.044838666915894,53.044838666915894,53.044838666915894,53.044838666915894,53.044838666915894,53.044838666915894,57.296053886413574,1,4.399303197860718,None,,,,,,,,,,,,,,,,,,96,5,2025-02-24_13h18.31.708,comp,2024.2.4,60.43918261714106,2025-02-24 13h21.31.748705 -0500,
4,4,0,filler_random,None,None,None,None,None,None,None,None,None,None,2,1.8925213813781738,None,,,,,0,0,0,0,0,4,4,146,57.31144595146179,,,,,,,,,,,,,,,,,,,,,,,,,,,,,,,,,,,,,,,,,,,,,,,,,,,,,,,,,,,,,,,,,,,,,,,,,,,,,,,,,90.69108076457266,178.75841283448958,183.44719762047546,117.69692688339208,122.62467975579801,92.4687325800943,4.0,4.1,-244,-275,0,0,201,-282,57.29695725440979,57.29699969291687,57.299144983291626,57.31144595146179,57.46153807640076,57.46153807640076,57.46153807640076,57.46153807640076,57.46153807640076,57.46153807640076,57.46153807640076,59.21246957778931,2,1.8925213813781738,None,,,,,,,,,,,,,,,,,,96,5,2025-02-24_13h18.31.708,comp,2024.2.4,60.43918261714106,2025-02-24 13h21.31.748705 -0500,
5,5,0,critical,wdh,20.0,2.1,upper,125.0,200.0,141.0,141.0,200.0,125.0,3,3.400336265563965,None,,,,,0,0,0,0,0,5,5,35,59.22810435295105,,,,,,,,,,,,,,,,,,,,,,,,,,,,,,,,,,,,,,,,,,,,,,,,,,,,,,,,,,,,,,,,,,,,,,,,,,,,,,,,,125.0,200.0,141.0,141.0,200.0,125.0,2.1,2.11,-266,253,0,256,229,-277,59.213271379470825,59.21331310272217,59.215922355651855,59.22810435295105,59.37811231613159,59.37811231613159,59.37811231613159,59.37811231613159,59.37811231613159,59.37811231613159,59.37811231613159,62.64595556259155,3,3.400336265563965,None,,,,,,,,,,,,,,,,,,96,5,2025-02-24_13h18.31.708,comp,2024.2.4,60.43918261714106,2025-02-24 13h21.31.748705 -0500,
6,6,0,critical,hwd,35.0,4.0,lower,133.0,57.0,57.0,133.0,70.0,70.0,1,5.470135450363159,None,,,,,0,0,0,0,0,6,6,100,62.66110301017761,,,,,,,,,,,,,,,,,,,,,,,,,,,,,,,,,,,,,,,,,,,,,,,,,,,,,,,,,,,,,,,,,,,,,,,,,,,,,,,,,133.0,57.0,57.0,133.0,70.0,70.0,4.0,4.1,-191,-259,0,14,198,-279,62.64674615859985,62.646801710128784,62.649057388305664,62.66110301017761,62.81117391586304,62.81117391586304,62.81117391586304,62.81117391586304,62.81117391586304,62.81117391586304,62.81117391586304,68.14581656455994,1,5.470135450363159,None,,,,,,,,,,,,,,,,,,96,5,2025-02-24_13h18.31.708,comp,2024.2.4,60.43918261714106,2025-02-24 13h21.31.748705 -0500,
7,7,0,filler_square,None,None,None,None,None,None,None,None,None,None,2,1.3699758052825928,None,,,,,0,0,0,0,0,7,7,173,68.16123843193054,,,,,,,,,,,,,,,,,,,,,,,,,,,,,,,,,,,,,,,,,,,,,,,,,,,,,,,,,,,,,,,,,,,,,,,,,,,,,,,,,74.11915078770714,134.6715174682812,122.50336927624495,173.3250944590569,198.21851154389756,198.21851154389756,2.1,2.11,-250,273,0,282,282,-286,68.14678645133972,68.14683055877686,68.15004754066467,68.16123843193054,68.31136322021484,68.31136322021484,68.31136322021484,68.31136322021484,68.31136322021484,68.31136322021484,68.31136322021484,69.545827627182,2,1.3699758052825928,None,,,,,,,,,,,,,,,,,,96,5,2025-02-24_13h18.31.708,comp,2024.2.4,60.43918261714106,2025-02-24 13h21.31.748705 -0500,
8,8,0,filler_square,None,None,None,None,None,None,None,None,None,None,1,1.8672213554382324,None,,,,,0,0,0,0,0,8,8,193,69.56112122535706,,,,,,,,,,,,,,,,,,,,,,,,,,,,,,,,,,,,,,,,,,,,,,,,,,,,,,,,,,,,,,,,,,,,,,,,,,,,,,,,,196.9723434307939,196.9723434307939,71.72260958630133,193.54335451973034,133.71512412681852,158.8679204857793,2.1,2.12,-291,-261,0,-285,272,279,69.54680514335632,69.54684615135193,69.54906272888184,69.56112122535706,69.71143770217896,69.71143770217896,69.71143770217896,69.71143770217896,69.71143770217896,69.71143770217896,69.71143770217896,71.44582557678223,1,1.8672213554382324,None,,,,,,,,,,,,,,,,,,96,5,2025-02-24_13h18.31.708,comp,2024.2.4,60.43918261714106,2025-02-24 13h21.31.748705 -0500,
9,9,0,filler_random,None,None,None,None,None,None,None,None,None,None,3,1.7586767673492432,None,,,,,0,0,0,0,0,9,9,134,71.46125507354736,,,,,,,,,,,,,,,,,,,,,,,,,,,,,,,,,,,,,,,,,,,,,,,,,,,,,,,,,,,,,,,,,,,,,,,,,,,,,,,,,199.02695188136641,58.83895421267135,94.68567104415442,92.90762552284099,122.35101783906205,180.13087492653221,2.1,2.12,-172,-256,0,-251,233,288,71.44671416282654,71.44675588607788,71.44992637634277,71.46125507354736,71.6112151145935,71.6112151145935,71.6112151145935,71.6112151145935,71.6112151145935,71.6112151145935,71.6112151145935,73.22914433479309,3,1.7586767673492432,None,,,,,,,,,,,,,,,,,,96,5,2025-02-24_13h18.31.708,comp,2024.2.4,60.43918261714106,2025-02-24 13h21.31.748705 -0500,
10,10,0,critical,hdw,20.0,3.0,lower,133.0,57.0,78.0,78.0,57.0,133.0,3,4.159444093704224,None,,,,,0,0,0,0,0,10,10,116,73.24472045898438,,,,,,,,,,,,,,,,,,,,,,,,,,,,,,,,,,,,,,,,,,,,,,,,,,,,,,,,,,,,,,,,,,,,,,,,,,,,,,,,,133.0,57.0,78.0,78.0,57.0,133.0,3.0,3.2,-164,-287,0,20,202,260,73.22994685173035,73.22999000549316,73.23203587532043,73.24472045898438,73.39448523521423,73.39448523521423,73.39448523521423,73.39448523521423,73.39448523521423,73.39448523521423,73.39448523521423,77.4122622013092,3,4.159444093704224,None,,,,,,,,,,,,,,,,,,96,5,2025-02-24_13h18.31.708,comp,2024.2.4,60.43918261714106,2025-02-24 13h21.31.748705 -0500,
11,11,0,catch,None,None,None,None,None,None,None,None,None,None,2,1.5279114246368408,None,,,,,0,0,0,0,0,11,11,124,77.42801475524902,,,,,,,,,,,,,,,,,,,,,,,,,,,,,,,,,,,,,,,,,,,,,,,,,,,,,,,,,,,,,,,,,,,,,,,,,,,,,,,,,64,126,141,184,85,105,4.0,4.2,-251,-7,0,-267,240,-10,77.41329598426819,77.413339138031,77.41574454307556,77.42801475524902,77.57799458503723,77.57799458503723,77.57799458503723,77.57799458503723,77.57799458503723,77.57799458503723,77.57799458503723,78.9623053073883,2,1.5279114246368408,None,,,,,,,,,,,,,,,,,,96,5,2025-02-24_13h18.31.708,comp,2024.2.4,60.43918261714106,2025-02-24 13h21.31.748705 -0500,
12,12,0,critical,dhw,20.0,2.1,upper,141.0,141.0,200.0,125.0,125.0,200.0,3,1.5942072868347168,None,,,,,0,0,0,0,0,12,12,27,78.97786259651184,,,,,,,,,,,,,,,,,,,,,,,,,,,,,,,,,,,,,,,,,,,,,,,,,,,,,,,,,,,,,,,,,,,,,,,,,,,,,,,,,141.0,141.0,200.0,125.0,125.0,200.0,2.1,2.12,-229,-286,0,-269,258,259,78.96310424804688,78.96314787864685,78.96551132202148,78.97786259651184,79.1279833316803,79.1279833316803,79.1279833316803,79.1279833316803,79.1279833316803,79.1279833316803,79.1279833316803,80.57927417755127,3,1.5942072868347168,None,,,,,,,,,,,,,,,,,,96,5,2025-02-24_13h18.31.708,comp,2024.2.4,60.43918261714106,2025-02-24 13h21.31.748705 -0500,
13,13,0,critical,wdh,35.0,1.0,upper,125.0,200.0,127.0,127.0,200.0,125.0,3,1.4666755199432373,None,,,,,0,0,0,0,0,13,13,73,80.59464168548584,,,,,,,,,,,,,,,,,,,,,,,,,,,,,,,,,,,,,,,,,,,,,,,,,,,,,,,,,,,,,,,,,,,,,,,,,,,,,,,,,125.0,200.0,127.0,127.0,200.0,125.0,1.0,1.2,-260,-7,0,12,222,16,80.58018231391907,80.58022475242615,80.58262825012207,80.59464168548584,80.74465799331665,80.74465799331665,80.74465799331665,80.74465799331665,80.74465799331665,80.74465799331665,80.74465799331665,82.062655210495,3,1.4666755199432373,None,,,,,,,,,,,,,,,,,,96,5,2025-02-24_13h18.31.708,comp,2024.2.4,60.43918261714106,2025-02-24 13h21.31.748705 -0500,
14,14,0,critical,hwd,35.0,1.0,upper,200.0,125.0,125.0,200.0,127.0,127.0,1,1.9010770320892334,None,,,,,0,0,0,0,0,14,14,97,82.0779230594635,,,,,,,,,,,,,,,,,,,,,,,,,,,,,,,,,,,,,,,,,,,,,,,,,,,,,,,,,,,,,,,,,,,,,,,,,,,,,,,,,200.0,125.0,125.0,200.0,127.0,127.0,1.0,1.2,-258,9,0,-8,260,7,82.06343460083008,82.06347608566284,82.065908908844,82.0779230594635,82.22803497314453,82.22803497314453,82.22803497314453,82.22803497314453,82.22803497314453,82.22803497314453,82.22803497314453,83.99568247795105,1,1.9010770320892334,None,,,,,,,,,,,,,,,,,,96,5,2025-02-24_13h18.31.708,comp,2024.2.4,60.43918261714106,2025-02-24 13h21.31.748705 -0500,
15,15,0,filler_square,None,None,None,None,None,None,None,None,None,None,1,1.2006170749664307,None,,,,,0,0,0,0,0,15,15,177,84.01100063323975,,,,,,,,,,,,,,,,,,,,,,,,,,,,,,,,,,,,,,,,,,,,,,,,,,,,,,,,,,,,,,,,,,,,,,,,,,,,,,,,,136.62959175899337,136.62959175899337,85.00828741095228,74.38118819639041,92.88911832795714,120.3953017618403,2.2,2.22,-202,274,0,-288,193,-274,83.99664568901062,83.99668622016907,83.9998185634613,84.01100063323975,84.16121459007263,84.16121459007263,84.16121459007263,84.16121459007263,84.16121459007263,84.16121459007263,84.16121459007263,85.22885227203369,1,1.2006170749664307,None,,,,,,,,,,,,,,,,,,96,5,2025-02-24_13h18.31.708,comp,2024.2.4,60.43918261714106,2025-02-24 13h21.31.748705 -0500,
16,16,0,critical,whd,20.0,1.0,upper,125.0,200.0,200.0,125.0,141.0,141.0,2,1.3187825679779053,None,,,,,0,0,0,0,0,16,16,91,85.24423599243164,,,,,,,,,,,,,,,,,,,,,,,,,,,,,,,,,,,,,,,,,,,,,,,,,,,,,,,,,,,,,,,,,,,,,,,,,,,,,,,,,125.0,200.0,200.0,125.0,141.0,141.0,1.0,1.3,222,-263,480,-275,709,-271,85.2296404838562,85.22968339920044,85.23191595077515,85.24423599243164,85.394704580307,85.394704580307,85.394704580307,85.394704580307,85.394704580307,85.394704580307,85.394704580307,86.57910561561584,2,1.3187825679779053,None,,,,,,,,,,,,,,,,,,96,5,2025-02-24_13h18.31.708,comp,2024.2.4,60.43918261714106,2025-02-24 13h21.31.748705 -0500,
17,17,0,filler_square,None,None,None,None,None,None,None,None,None,None,3,3.2830474376678467,None,,,,,0,0,0,0,0,17,17,203,86.59440445899963,,,,,,,,,,,,,,,,,,,,,,,,,,,,,,,,,,,,,,,,,,,,,,,,,,,,,,,,,,,,,,,,,,,,,,,,,,,,,,,,,71.53722516974105,75.10927527293232,83.7700872481095,80.19539235528437,85.41182517431405,85.41182517431405,1.0,1.1,-654,256,-480,290,-301,267,86.58005881309509,86.58009934425354,86.58234095573425,86.59440445899963,86.74447655677795,86.74447655677795,86.74447655677795,86.74447655677795,86.74447655677795,86.74447655677795,86.74447655677795,89.8791081905365,3,3.2830474376678467,None,,,,,,,,,,,,,,,,,,96,5,2025-02-24_13h18.31.708,comp,2024.2.4,60.43918261714106,2025-02-24 13h21.31.748705 -0500,
18,18,0,critical,wdh,35.0,4.0,upper,125.0,200.0,127.0,127.0,200.0,125.0,2,1.4612815380096436,None,,,,,0,0,0,0,0,18,18,77,89.89451789855957,,,,,,,,,,,,,,,,,,,,,,,,,,,,,,,,,,,,,,,,,,,,,,,,,,,,,,,,,,,,,,,,,,,,,,,,,,,,,,,,,125.0,200.0,127.0,127.0,200.0,125.0,4.0,4.1,-260,-266,0,18,222,-283,89.87987351417542,89.87991333007812,89.88218593597412,89.89451789855957,90.04464221000671,90.04464221000671,90.04464221000671,90.04464221000671,90.04464221000671,90.04464221000671,90.04464221000671,91.36237692832947,2,1.4612815380096436,None,,,,,,,,,,,,,,,,,,96,5,2025-02-24_13h18.31.708,comp,2024.2.4,60.43918261714106,2025-02-24 13h21.31.748705 -0500,
19,19,0,filler_square,None,None,None,None,None,None,None,None,None,None,1,1.7160227298736572,None,,,,,0,0,0,0,0,19,19,188,91.37785649299622,,,,,,,,,,,,,,,,,,,,,,,,,,,,,,,,,,,,,,,,,,,,,,,,,,,,,,,,,,,,,,,,,,,,,,,,,,,,,,,,,92.25019556425505,92.25019556425505,91.83667197027549,57.690510686497774,70.15988918797197,57.53538438735166,2.2,2.21,-171,-253,0,288,154,279,91.36334252357483,91.36338543891907,91.3657739162445,91.37785649299622,91.5277931690216,91.5277931690216,91.5277931690216,91.5277931690216,91.5277931690216,91.5277931690216,91.5277931690216,93.11212348937988,1,1.7160227298736572,None,,,,,,,,,,,,,,,,,,96,5,2025-02-24_13h18.31.708,comp,2024.2.4,60.43918261714106,2025-02-24 13h21.31.748705 -0500,
20,20,0,critical,whd,35.0,2.1,lower,57.0,133.0,133.0,57.0,70.0,70.0,2,2.1335153579711914,None,,,,,0,0,0,0,0,20,20,12,93.12765526771545,,,,,,,,,,,,,,,,,,,,,,,,,,,,,,,,,,,,,,,,,,,,,,,,,,,,,,,,,,,,,,,,,,,,,,,,,,,,,,,,,57.0,133.0,133.0,57.0,70.0,70.0,2.1,2.11,-191,253,0,285,160,-265,93.1129539012909,93.11299538612366,93.1153633594513,93.12765526771545,93.27765226364136,93.27765226364136,93.27765226364136,93.27765226364136,93.27765226364136,93.27765226364136,93.27765226364136,95.26232814788818,2,2.1335153579711914,None,,,,,,,,,,,,,,,,,,96,5,2025-02-24_13h18.31.708,comp,2024.2.4,60.43918261714106,2025-02-24 13h21.31.748705 -0500,
21,21,0,critical,dwh,20.0,4.0,upper,141.0,141.0,125.0,200.0,200.0,125.0,3,2.831082582473755,None,,,,,0,0,0,0,0,21,21,71,95.27783393859863,,,,,,,,,,,,,,,,,,,,,,,,,,,,,,,,,,,,,,,,,,,,,,,,,,,,,,,,,,,,,,,,,,,,,,,,,,,,,,,,,141.0,141.0,125.0,200.0,200.0,125.0,4.0,4.2,-266,14,0,-283,258,0,95.26311731338501,95.26315927505493,95.2656717300415,95.27783393859863,95.42792415618896,95.42792415618896,95.42792415618896,95.42792415618896,95.42792415618896,95.42792415618896,95.42792415618896,98.11253237724304,3,2.831082582473755,None,,,,,,,,,,,,,,,,,,96,5,2025-02-24_13h18.31.708,comp,2024.2.4,60.43918261714106,2025-02-24 13h21.31.748705 -0500,
22,22,0,critical,dhw,20.0,4.0,upper,141.0,141.0,200.0,125.0,125.0,200.0,3,2.338907241821289,None,,,,,0,0,0,0,0,22,22,59,98.12786674499512,,,,,,,,,,,,,,,,,,,,,,,,,,,,,,,,,,,,,,,,,,,,,,,,,,,,,,,,,,,,,,,,,,,,,,,,,,,,,,,,,141.0,141.0,200.0,125.0,125.0,200.0,4.0,4.2,-229,-18,0,-271,258,12,98.11332964897156,98.11336946487427,98.11533737182617,98.12786674499512,98.27784585952759,98.27784585952759,98.27784585952759,98.27784585952759,98.27784585952759,98.27784585952759,98.27784585952759,100.4792709350586,3,2.338907241821289,None,,,,,,,,,,,,,,,,,,96,5,2025-02-24_13h18.31.708,comp,2024.2.4,60.43918261714106,2025-02-24 13h21.31.748705 -0500,
23,23,0,filler_square,None,None,None,None,None,None,None,None,None,None,1,2.9254801273345947,None,,,,,0,0,0,0,0,23,23,181,100.49432349205017,,,,,,,,,,,,,,,,,,,,,,,,,,,,,,,,,,,,,,,,,,,,,,,,,,,,,,,,,,,,,,,,,,,,,,,,,,,,,,,,,70.07758574783666,70.07758574783666,61.63020384760801,58.278077212930384,69.06528403713861,69.14438887694548,3.0,3.2,-160,-288,0,-3,160,258,100.48023843765259,100.4802815914154,100.48232746124268,100.49432349205017,100.64424061775208,100.64424061775208,100.64424061775208,100.64424061775208,100.64424061775208,100.64424061775208,100.64424061775208,103.42882084846497,1,2.9254801273345947,None,,,,,,,,,,,,,,,,,,96,5,2025-02-24_13h18.31.708,comp,2024.2.4,60.43918261714106,2025-02-24 13h21.31.748705 -0500,
24,24,0,filler_square,None,None,None,None,None,None,None,None,None,None,3,1.3592886924743652,None,,,,,0,0,0,0,0,24,24,183,103.4444842338562,,,,,,,,,,,,,,,,,,,,,,,,,,,,,,,,,,,,,,,,,,,,,,,,,,,,,,,,,,,,,,,,,,,,,,,,,,,,,,,,,99.32284142265057,100.30970532144761,59.41965907494804,98.73644695429314,192.2189591266248,192.2189591266248,3.0,3.2,-196,-273,0,-8,241,252,103.42980194091797,103.42984414100647,103.43209838867188,103.4444842338562,103.5944836139679,103.5944836139679,103.5944836139679,103.5944836139679,103.5944836139679,103.5944836139679,103.5944836139679,104.8123049736023,3,1.3592886924743652,None,,,,,,,,,,,,,,,,,,96,5,2025-02-24_13h18.31.708,comp,2024.2.4,60.43918261714106,2025-02-24 13h21.31.748705 -0500,
25,25,0,critical,dwh,20.0,1.0,upper,141.0,141.0,125.0,200.0,200.0,125.0,3,4.650078773498535,None,,,,,0,0,0,0,0,25,25,67,104.82781457901001,,,,,,,,,,,,,,,,,,,,,,,,,,,,,,,,,,,,,,,,,,,,,,,,,,,,,,,,,,,,,,,,,,,,,,,,,,,,,,,,,141.0,141.0,125.0,200.0,200.0,125.0,1.0,1.3,214,-283,480,-277,738,-254,104.81308245658875,104.81312322616577,104.815509557724,104.82781457901001,104.97783851623535,104.97783851623535,104.97783851623535,104.97783851623535,104.97783851623535,104.97783851623535,104.97783851623535,109.47919750213623,3,4.650078773498535,None,,,,,,,,,,,,,,,,,,96,5,2025-02-24_13h18.31.708,comp,2024.2.4,60.43918261714106,2025-02-24 13h21.31.748705 -0500,
26,26,0,critical,hdw,35.0,2.1,upper,200.0,125.0,127.0,127.0,125.0,200.0,3,1.8365833759307861,None,,,,,0,0,0,0,0,26,26,45,109.4944863319397,,,,,,,,,,,,,,,,,,,,,,,,,,,,,,,,,,,,,,,,,,,,,,,,,,,,,,,,,,,,,,,,,,,,,,,,,,,,,,,,,200.0,125.0,127.0,127.0,125.0,200.0,2.1,2.12,-222,-257,0,-267,260,270,109.48001098632812,109.48005509376526,109.48243474960327,109.4944863319397,109.64456009864807,109.64456009864807,109.64456009864807,109.64456009864807,109.64456009864807,109.64456009864807,109.64456009864807,111.34626817703247,3,1.8365833759307861,None,,,,,,,,,,,,,,,,,,96,5,2025-02-24_13h18.31.708,comp,2024.2.4,60.43918261714106,2025-02-24 13h21.31.748705 -0500,
27,27,0,filler_random,None,None,None,None,None,None,None,None,None,None,3,1.337418556213379,None,,,,,0,0,0,0,0,27,27,149,111.36143231391907,,,,,,,,,,,,,,,,,,,,,,,,,,,,,,,,,,,,,,,,,,,,,,,,,,,,,,,,,,,,,,,,,,,,,,,,,,,,,,,,,138.78912203467453,100.33091394581854,65.3205621530979,120.90284433343355,154.6370923263146,159.03880772148062,3.0,3.1,-207,285,0,9,236,-281,111.34712624549866,111.34716653823853,111.34988903999329,111.36143231391907,111.51257658004761,111.51257658004761,111.51257658004761,111.51257658004761,111.51257658004761,111.51257658004761,111.51257658004761,112.71210527420044,3,1.337418556213379,None,,,,,,,,,,,,,,,,,,96,5,2025-02-24_13h18.31.708,comp,2024.2.4,60.43918261714106,2025-02-24 13h21.31.748705 -0500,
28,28,0,critical,dhw,20.0,3.0,lower,78.0,78.0,133.0,57.0,57.0,133.0,1,1.6673846244812012,None,,,,,0,0,0,0,0,28,28,56,112.72741627693176,,,,,,,,,,,,,,,,,,,,,,,,,,,,,,,,,,,,,,,,,,,,,,,,,,,,,,,,,,,,,,,,,,,,,,,,,,,,,,,,,78.0,78.0,133.0,57.0,57.0,133.0,3.0,3.2,-164,-280,0,-10,191,273,112.71290349960327,112.71294379234314,112.71526670455933,112.72741627693176,112.87750887870789,112.87750887870789,112.87750887870789,112.87750887870789,112.87750887870789,112.87750887870789,112.87750887870789,114.41198062896729,1,1.6673846244812012,None,,,,,,,,,,,,,,,,,,96,5,2025-02-24_13h18.31.708,comp,2024.2.4,60.43918261714106,2025-02-24 13h21.31.748705 -0500,
29,29,0,critical,hdw,20.0,2.1,upper,200.0,125.0,141.0,141.0,125.0,200.0,1,1.6968095302581787,None,,,,,0,0,0,0,0,29,29,23,114.42747592926025,,,,,,,,,,,,,,,,,,,,,,,,,,,,,,,,,,,,,,,,,,,,,,,,,,,,,,,,,,,,,,,,,,,,,,,,,,,,,,,,,200.0,125.0,141.0,141.0,125.0,200.0,2.1,2.11,-229,288,0,267,266,-286,114.41278505325317,114.41282796859741,114.41514706611633,114.42747592926025,114.57784247398376,114.57784247398376,114.57784247398376,114.57784247398376,114.57784247398376,114.57784247398376,114.57784247398376,116.12895274162292,1,1.6968095302581787,None,,,,,,,,,,,,,,,,,,96,5,2025-02-24_13h18.31.708,comp,2024.2.4,60.43918261714106,2025-02-24 13h21.31.748705 -0500,
30,30,0,filler_random,None,None,None,None,None,None,None,None,None,None,3,1.2669739723205566,None,,,,,0,0,0,0,0,30,30,152,116.14436626434326,,,,,,,,,,,,,,,,,,,,,,,,,,,,,,,,,,,,,,,,,,,,,,,,,,,,,,,,,,,,,,,,,,,,,,,,,,,,,,,,,73.6191178387597,67.06744501452431,190.16575089462364,58.02794021584174,196.0219893022046,73.2287290459457,2.2,2.22,-159,286,0,-267,162,-272,116.12989592552185,116.12993884086609,116.13193392753601,116.14436626434326,116.29421329498291,116.29421329498291,116.29421329498291,116.29421329498291,116.29421329498291,116.29421329498291,116.29421329498291,117.42877316474915,3,1.2669739723205566,None,,,,,,,,,,,,,,,,,,96,5,2025-02-24_13h18.31.708,comp,2024.2.4,60.43918261714106,2025-02-24 13h21.31.748705 -0500,
31,31,0,critical,hdw,20.0,2.1,upper,200.0,125.0,141.0,141.0,125.0,200.0,1,1.7918593883514404,None,,,,,0,0,0,0,0,31,31,47,117.44413232803345,,,,,,,,,,,,,,,,,,,,,,,,,,,,,,,,,,,,,,,,,,,,,,,,,,,,,,,,,,,,,,,,,,,,,,,,,,,,,,,,,200.0,125.0,141.0,141.0,125.0,200.0,2.1,2.11,-229,287,0,263,266,-253,117.42955732345581,117.42959928512573,117.43246221542358,117.44413232803345,117.59438562393188,117.59438562393188,117.59438562393188,117.59438562393188,117.59438562393188,117.59438562393188,117.59438562393188,119.2456624507904,1,1.7918593883514404,None,,,,,,,,,,,,,,,,,,96,5,2025-02-24_13h18.31.708,comp,2024.2.4,60.43918261714106,2025-02-24 13h21.31.748705 -0500,
32,32,0,critical,hwd,20.0,3.0,upper,200.0,125.0,125.0,200.0,141.0,141.0,1,1.4628784656524658,None,,,,,0,0,0,0,0,32,32,105,119.26106834411621,,,,,,,,,,,,,,,,,,,,,,,,,,,,,,,,,,,,,,,,,,,,,,,,,,,,,,,,,,,,,,,,,,,,,,,,,,,,,,,,,200.0,125.0,125.0,200.0,141.0,141.0,3.0,3.1,-258,265,0,15,266,-251,119.24647903442383,119.24652242660522,119.24896621704102,119.26106834411621,119.41111326217651,119.41111326217651,119.41111326217651,119.41111326217651,119.41111326217651,119.41111326217651,119.41111326217651,120.72903442382812,1,1.4628784656524658,None,,,,,,,,,,,,,,,,,,96,5,2025-02-24_13h18.31.708,comp,2024.2.4,60.43918261714106,2025-02-24 13h21.31.748705 -0500,
33,33,0,catch,None,None,None,None,None,None,None,None,None,None,1,1.2913267612457275,None,,,,,0,0,0,0,0,33,33,128,120.74435067176819,,,,,,,,,,,,,,,,,,,,,,,,,,,,,,,,,,,,,,,,,,,,,,,,,,,,,,,,,,,,,,,,,,,,,,,,,,,,,,,,,183,142,61,129,88,102,3.0,3.2,-232,-279,0,14,212,286,120.73008346557617,120.73013496398926,120.73215818405151,120.74435067176819,120.89428949356079,120.89428949356079,120.89428949356079,120.89428949356079,120.89428949356079,120.89428949356079,120.89428949356079,122.04541110992432,1,1.2913267612457275,None,,,,,,,,,,,,,,,,,,96,5,2025-02-24_13h18.31.708,comp,2024.2.4,60.43918261714106,2025-02-24 13h21.31.748705 -0500,
34,34,0,filler_random,None,None,None,None,None,None,None,None,None,None,3,1.3106012344360352,None,,,,,0,0,0,0,0,34,34,158,122.0610785484314,,,,,,,,,,,,,,,,,,,,,,,,,,,,,,,,,,,,,,,,,,,,,,,,,,,,,,,,,,,,,,,,,,,,,,,,,,,,,,,,,79.30707610213653,143.52090300089884,150.34833753839322,109.14097132392557,184.92088570612864,193.47869151558808,3.0,3.1,-222,272,0,-1,247,-273,122.04630327224731,122.0463457107544,122.04870009422302,122.0610785484314,122.21123456954956,122.21123456954956,122.21123456954956,122.21123456954956,122.21123456954956,122.21123456954956,122.21123456954956,123.37880158424377,3,1.3106012344360352,None,,,,,,,,,,,,,,,,,,96,5,2025-02-24_13h18.31.708,comp,2024.2.4,60.43918261714106,2025-02-24 13h21.31.748705 -0500,
35,35,0,critical,wdh,20.0,3.0,lower,57.0,133.0,78.0,78.0,133.0,57.0,2,1.6500911712646484,None,,,,,0,0,0,0,0,35,35,80,123.39427042007446,,,,,,,,,,,,,,,,,,,,,,,,,,,,,,,,,,,,,,,,,,,,,,,,,,,,,,,,,,,,,,,,,,,,,,,,,,,,,,,,,57.0,133.0,78.0,78.0,133.0,57.0,3.0,3.2,-202,-280,0,0,164,257,123.37958312034607,123.37962412834167,123.38162589073181,123.39427042007446,123.5441689491272,123.5441689491272,123.5441689491272,123.5441689491272,123.5441689491272,123.5441689491272,123.5441689491272,125.04553389549255,2,1.6500911712646484,None,,,,,,,,,,,,,,,,,,96,5,2025-02-24_13h18.31.708,comp,2024.2.4,60.43918261714106,2025-02-24 13h21.31.748705 -0500,
36,36,0,critical,dhw,35.0,2.1,lower,70.0,70.0,133.0,57.0,57.0,133.0,2,1.6163568496704102,None,,,,,0,0,0,0,0,36,36,0,125.06093645095825,,,,,,,,,,,,,,,,,,,,,,,,,,,,,,,,,,,,,,,,,,,,,,,,,,,,,,,,,,,,,,,,,,,,,,,,,,,,,,,,,70.0,70.0,133.0,57.0,57.0,133.0,2.1,2.11,-160,257,0,288,191,-273,125.04634118080139,125.04638361930847,125.04872250556946,125.06093645095825,125.21075534820557,125.21075534820557,125.21075534820557,125.21075534820557,125.21075534820557,125.21075534820557,125.21075534820557,126.67866659164429,2,1.6163568496704102,None,,,,,,,,,,,,,,,,,,96,5,2025-02-24_13h18.31.708,comp,2024.2.4,60.43918261714106,2025-02-24 13h21.31.748705 -0500,
37,37,0,critical,hdw,20.0,3.0,upper,200.0,125.0,141.0,141.0,125.0,200.0,3,1.61429762840271,None,,,,,0,0,0,0,0,37,37,117,126.69428825378418,,,,,,,,,,,,,,,,,,,,,,,,,,,,,,,,,,,,,,,,,,,,,,,,,,,,,,,,,,,,,,,,,,,,,,,,,,,,,,,,,200.0,125.0,141.0,141.0,125.0,200.0,3.0,3.1,-229,281,0,4,266,-257,126.67943716049194,126.67947936058044,126.68150973320007,126.69428825378418,126.84429550170898,126.84429550170898,126.84429550170898,126.84429550170898,126.84429550170898,126.84429550170898,126.84429550170898,128.3122580051422,3,1.61429762840271,None,,,,,,,,,,,,,,,,,,96,5,2025-02-24_13h18.31.708,comp,2024.2.4,60.43918261714106,2025-02-24 13h21.31.748705 -0500,
38,38,0,filler_random,None,None,None,None,None,None,None,None,None,None,3,1.3550231456756592,None,,,,,0,0,0,0,0,38,38,144,128.32761573791504,,,,,,,,,,,,,,,,,,,,,,,,,,,,,,,,,,,,,,,,,,,,,,,,,,,,,,,,,,,,,,,,,,,,,,,,,,,,,,,,,70.43444781432594,97.42890478120245,77.27265362549545,156.8800781566214,109.15868436894769,125.53189553065427,3.0,3.1,-223,266,0,-1,237,-271,128.31313228607178,128.3131730556488,128.3155336380005,128.32761573791504,128.4775538444519,128.4775538444519,128.4775538444519,128.4775538444519,128.4775538444519,128.4775538444519,128.4775538444519,129.69534921646118,3,1.3550231456756592,None,,,,,,,,,,,,,,,,,,96,5,2025-02-24_13h18.31.708,comp,2024.2.4,60.43918261714106,2025-02-24 13h21.31.748705 -0500,
39,39,0,filler_random,None,None,None,None,None,None,None,None,None,None,2,1.652021884918213,None,,,,,0,0,0,0,0,39,39,139,129.71078515052795,,,,,,,,,,,,,,,,,,,,,,,,,,,,,,,,,,,,,,,,,,,,,,,,,,,,,,,,,,,,,,,,,,,,,,,,,,,,,,,,,155.65389922805318,118.06930830831598,186.7771085537865,130.61604962583178,177.40377147380804,127.85733249199232,1.0,1.2,-220,-5,0,18,225,-1,129.69626021385193,129.69630312919617,129.6986722946167,129.71078515052795,129.86098337173462,129.86098337173462,129.86098337173462,129.86098337173462,129.86098337173462,129.86098337173462,129.86098337173462,131.37867903709412,2,1.652021884918213,None,,,,,,,,,,,,,,,,,,96,5,2025-02-24_13h18.31.708,comp,2024.2.4,60.43918261714106,2025-02-24 13h21.31.748705 -0500,
40,40,0,critical,dhw,35.0,1.0,lower,70.0,70.0,133.0,57.0,57.0,133.0,2,2.457890748977661,None,,,,,0,0,0,0,0,40,40,48,131.3939914703369,,,,,,,,,,,,,,,,,,,,,,,,,,,,,,,,,,,,,,,,,,,,,,,,,,,,,,,,,,,,,,,,,,,,,,,,,,,,,,,,,70.0,70.0,133.0,57.0,57.0,133.0,1.0,1.1,-640,288,-480,274,-289,279,131.3795895576477,131.3796308040619,131.38165473937988,131.3939914703369,131.54418516159058,131.54418516159058,131.54418516159058,131.54418516159058,131.54418516159058,131.54418516159058,131.54418516159058,133.861811876297,2,2.457890748977661,None,,,,,,,,,,,,,,,,,,96,5,2025-02-24_13h18.31.708,comp,2024.2.4,60.43918261714106,2025-02-24 13h21.31.748705 -0500,
41,41,0,critical,dwh,35.0,2.1,lower,70.0,70.0,57.0,133.0,133.0,57.0,1,1.757997989654541,None,,,,,0,0,0,0,0,41,41,4,133.87748193740845,,,,,,,,,,,,,,,,,,,,,,,,,,,,,,,,,,,,,,,,,,,,,,,,,,,,,,,,,,,,,,,,,,,,,,,,,,,,,,,,,70.0,70.0,57.0,133.0,133.0,57.0,2.1,2.12,-198,-263,0,-260,191,257,133.86258935928345,133.8626310825348,133.86485052108765,133.87748193740845,134.02746200561523,134.02746200561523,134.02746200561523,134.02746200561523,134.02746200561523,134.02746200561523,134.02746200561523,135.64513969421387,1,1.757997989654541,None,,,,,,,,,,,,,,,,,,96,5,2025-02-24_13h18.31.708,comp,2024.2.4,60.43918261714106,2025-02-24 13h21.31.748705 -0500,
42,42,0,critical,whd,35.0,4.0,lower,57.0,133.0,133.0,57.0,70.0,70.0,3,1.8633272647857666,None,,,,,0,0,0,0,0,42,42,88,135.66085171699524,,,,,,,,,,,,,,,,,,,,,,,,,,,,,,,,,,,,,,,,,,,,,,,,,,,,,,,,,,,,,,,,,,,,,,,,,,,,,,,,,57.0,133.0,133.0,57.0,70.0,70.0,4.0,4.2,-191,13,0,-275,160,5,135.64592909812927,135.6459710597992,135.64836239814758,135.66085171699524,135.8108332157135,135.8108332157135,135.8108332157135,135.8108332157135,135.8108332157135,135.8108332157135,135.8108332157135,137.52859592437744,3,1.8633272647857666,None,,,,,,,,,,,,,,,,,,96,5,2025-02-24_13h18.31.708,comp,2024.2.4,60.43918261714106,2025-02-24 13h21.31.748705 -0500,
43,43,0,critical,dhw,35.0,4.0,upper,127.0,127.0,200.0,125.0,125.0,200.0,3,1.4272582530975342,None,,,,,0,0,0,0,0,43,43,53,137.5442132949829,,,,,,,,,,,,,,,,,,,,,,,,,,,,,,,,,,,,,,,,,,,,,,,,,,,,,,,,,,,,,,,,,,,,,,,,,,,,,,,,,127.0,127.0,200.0,125.0,125.0,200.0,4.0,4.1,-222,-264,0,15,258,-273,137.52936482429504,137.52940559387207,137.5317828655243,137.5442132949829,137.69421100616455,137.69421100616455,137.69421100616455,137.69421100616455,137.69421100616455,137.69421100616455,137.69421100616455,138.97870063781738,3,1.4272582530975342,None,,,,,,,,,,,,,,,,,,96,5,2025-02-24_13h18.31.708,comp,2024.2.4,60.43918261714106,2025-02-24 13h21.31.748705 -0500,
44,44,0,catch,None,None,None,None,None,None,None,None,None,None,1,1.184464931488037,None,,,,,0,0,0,0,0,44,44,129,138.99420738220215,,,,,,,,,,,,,,,,,,,,,,,,,,,,,,,,,,,,,,,,,,,,,,,,,,,,,,,,,,,,,,,,,,,,,,,,,,,,,,,,,128,197,132,58,123,67,3.0,3.1,-224,268,0,17,158,-274,138.97974061965942,138.97979760169983,138.98177528381348,138.99420738220215,139.1441822052002,139.1441822052002,139.1441822052002,139.1441822052002,139.1441822052002,139.1441822052002,139.1441822052002,140.1953523159027,1,1.184464931488037,None,,,,,,,,,,,,,,,,,,96,5,2025-02-24_13h18.31.708,comp,2024.2.4,60.43918261714106,2025-02-24 13h21.31.748705 -0500,
45,45,0,critical,hdw,20.0,1.0,lower,133.0,57.0,78.0,78.0,57.0,133.0,2,3.608625650405884,None,,,,,0,0,0,0,0,45,45,114,140.21068358421326,,,,,,,,,,,,,,,,,,,,,,,,,,,,,,,,,,,,,,,,,,,,,,,,,,,,,,,,,,,,,,,,,,,,,,,,,,,,,,,,,133.0,57.0,78.0,78.0,57.0,133.0,1.0,1.3,316,-278,480,-255,682,-277,140.1961796283722,140.19622159004211,140.19857692718506,140.21068358421326,140.36073660850525,140.36073660850525,140.36073660850525,140.36073660850525,140.36073660850525,140.36073660850525,140.36073660850525,143.82840633392334,2,3.608625650405884,None,,,,,,,,,,,,,,,,,,96,5,2025-02-24_13h18.31.708,comp,2024.2.4,60.43918261714106,2025-02-24 13h21.31.748705 -0500,
46,46,0,critical,hdw,35.0,4.0,upper,200.0,125.0,127.0,127.0,125.0,200.0,3,1.559464931488037,None,,,,,0,0,0,0,0,46,46,113,143.8441219329834,,,,,,,,,,,,,,,,,,,,,,,,,,,,,,,,,,,,,,,,,,,,,,,,,,,,,,,,,,,,,,,,,,,,,,,,,,,,,,,,,200.0,125.0,127.0,127.0,125.0,200.0,4.0,4.2,-222,17,0,-290,260,2,143.82915997505188,143.82920050621033,143.83150434494019,143.8441219329834,143.99422955513,143.99422955513,143.99422955513,143.99422955513,143.99422955513,143.99422955513,143.99422955513,145.4120271205902,3,1.559464931488037,None,,,,,,,,,,,,,,,,,,96,5,2025-02-24_13h18.31.708,comp,2024.2.4,60.43918261714106,2025-02-24 13h21.31.748705 -0500,
47,47,0,filler_square,None,None,None,None,None,None,None,None,None,None,1,1.6000723838806152,None,,,,,0,0,0,0,0,47,47,204,145.427551984787,,,,,,,,,,,,,,,,,,,,,,,,,,,,,,,,,,,,,,,,,,,,,,,,,,,,,,,,,,,,,,,,,,,,,,,,,,,,,,,,,88.59953596854018,88.59953596854018,85.44015141778303,85.22202913289074,84.78557880305316,61.48170335894122,2.1,2.12,-183,-280,0,-259,169,274,145.412987947464,145.41303062438965,145.41529870033264,145.427551984787,145.57736825942993,145.57736825942993,145.57736825942993,145.57736825942993,145.57736825942993,145.57736825942993,145.57736825942993,147.0288701057434,1,1.6000723838806152,None,,,,,,,,,,,,,,,,,,96,5,2025-02-24_13h18.31.708,comp,2024.2.4,60.43918261714106,2025-02-24 13h21.31.748705 -0500,
48,48,0,filler_square,None,None,None,None,None,None,None,None,None,None,3,1.3669977188110352,None,,,,,0,0,0,0,0,48,48,178,147.04415917396545,,,,,,,,,,,,,,,,,,,,,,,,,,,,,,,,,,,,,,,,,,,,,,,,,,,,,,,,,,,,,,,,,,,,,,,,,,,,,,,,,88.23890347238266,72.34688854104567,86.48584541947008,87.92368022087554,94.68398377412922,94.68398377412922,1.0,1.3,304,-266,480,-265,667,-276,147.02986764907837,147.0299108028412,147.03224229812622,147.04415917396545,147.19399619102478,147.19399619102478,147.19399619102478,147.19399619102478,147.19399619102478,147.19399619102478,147.19399619102478,148.4283471107483,3,1.3669977188110352,None,,,,,,,,,,,,,,,,,,96,5,2025-02-24_13h18.31.708,comp,2024.2.4,60.43918261714106,2025-02-24 13h21.31.748705 -0500,
49,49,0,critical,dwh,35.0,2.1,lower,70.0,70.0,57.0,133.0,133.0,57.0,1,2.49550199508667,None,,,,,0,0,0,0,0,49,49,28,148.443909406662,,,,,,,,,,,,,,,,,,,,,,,,,,,,,,,,,,,,,,,,,,,,,,,,,,,,,,,,,,,,,,,,,,,,,,,,,,,,,,,,,70.0,70.0,57.0,133.0,133.0,57.0,2.1,2.12,-198,-280,0,-272,191,263,148.42918729782104,148.4292299747467,148.4316644668579,148.443909406662,148.59405088424683,148.59405088424683,148.59405088424683,148.59405088424683,148.59405088424683,148.59405088424683,148.59405088424683,150.94504189491272,1,2.49550199508667,None,,,,,,,,,,,,,,,,,,96,5,2025-02-24_13h18.31.708,comp,2024.2.4,60.43918261714106,2025-02-24 13h21.31.748705 -0500,
50,50,0,critical,dwh,35.0,4.0,upper,127.0,127.0,125.0,200.0,200.0,125.0,2,3.4266955852508545,None,,,,,0,0,0,0,0,50,50,65,150.9607014656067,,,,,,,,,,,,,,,,,,,,,,,,,,,,,,,,,,,,,,,,,,,,,,,,,,,,,,,,,,,,,,,,,,,,,,,,,,,,,,,,,127.0,127.0,125.0,200.0,200.0,125.0,4.0,4.1,-260,-255,0,-4,258,-285,150.94582843780518,150.94586944580078,150.94818711280823,150.9607014656067,151.11075496673584,151.11075496673584,151.11075496673584,151.11075496673584,151.11075496673584,151.11075496673584,151.11075496673584,154.39615058898926,2,3.4266955852508545,None,,,,,,,,,,,,,,,,,,96,5,2025-02-24_13h18.31.708,comp,2024.2.4,60.43918261714106,2025-02-24 13h21.31.748705 -0500,
51,51,0,critical,wdh,35.0,2.1,upper,125.0,200.0,127.0,127.0,200.0,125.0,1,2.335348129272461,None,,,,,0,0,0,0,0,51,51,33,154.41117787361145,,,,,,,,,,,,,,,,,,,,,,,,,,,,,,,,,,,,,,,,,,,,,,,,,,,,,,,,,,,,,,,,,,,,,,,,,,,,,,,,,125.0,200.0,127.0,127.0,200.0,125.0,2.1,2.11,-260,259,0,283,222,-287,154.39696097373962,154.3969988822937,154.398677110672,154.41117787361145,154.56092810630798,154.56092810630798,154.56092810630798,154.56092810630798,154.56092810630798,154.56092810630798,154.56092810630798,156.76203393936157,1,2.335348129272461,None,,,,,,,,,,,,,,,,,,96,5,2025-02-24_13h18.31.708,comp,2024.2.4,60.43918261714106,2025-02-24 13h21.31.748705 -0500,
52,52,0,filler_random,None,None,None,None,None,None,None,None,None,None,2,1.2503328323364258,None,,,,,0,0,0,0,0,52,52,160,156.77731919288635,,,,,,,,,,,,,,,,,,,,,,,,,,,,,,,,,,,,,,,,,,,,,,,,,,,,,,,,,,,,,,,,,,,,,,,,,,,,,,,,,171.55408580590733,97.19724382753881,191.11663813118898,122.4855147308961,136.1014809589474,59.528944760107734,1.0,1.1,-686,265,-480,260,-293,277,156.76294565200806,156.76298785209656,156.7650363445282,156.77731919288635,156.92744207382202,156.92744207382202,156.92744207382202,156.92744207382202,156.92744207382202,156.92744207382202,156.92744207382202,158.02883291244507,2,1.2503328323364258,None,,,,,,,,,,,,,,,,,,96,5,2025-02-24_13h18.31.708,comp,2024.2.4,60.43918261714106,2025-02-24 13h21.31.748705 -0500,
53,53,0,filler_random,None,None,None,None,None,None,None,None,None,None,2,1.302365779876709,None,,,,,0,0,0,0,0,53,53,162,158.04408407211304,,,,,,,,,,,,,,,,,,,,,,,,,,,,,,,,,,,,,,,,,,,,,,,,,,,,,,,,,,,,,,,,,,,,,,,,,,,,,,,,,140.45498942339293,64.83228978880655,197.00633083861592,106.57775758492895,82.3693332612198,158.9157532925147,4.0,4.1,-182,-284,0,-5,229,-252,158.02970576286316,158.0297474861145,158.0320122241974,158.04408407211304,158.1940369606018,158.1940369606018,158.1940369606018,158.1940369606018,158.1940369606018,158.1940369606018,158.1940369606018,159.3617720603943,2,1.302365779876709,None,,,,,,,,,,,,,,,,,,96,5,2025-02-24_13h18.31.708,comp,2024.2.4,60.43918261714106,2025-02-24 13h21.31.748705 -0500,
54,54,0,critical,hdw,35.0,1.0,lower,133.0,57.0,70.0,70.0,57.0,133.0,1,1.794126033782959,None,,,,,0,0,0,0,0,54,54,108,159.37722325325012,,,,,,,,,,,,,,,,,,,,,,,,,,,,,,,,,,,,,,,,,,,,,,,,,,,,,,,,,,,,,,,,,,,,,,,,,,,,,,,,,133.0,57.0,70.0,70.0,57.0,133.0,1.0,1.2,-160,12,0,8,198,-8,159.36255502700806,159.36259698867798,159.36459159851074,159.37722325325012,159.52730441093445,159.52730441093445,159.52730441093445,159.52730441093445,159.52730441093445,159.52730441093445,159.52730441093445,161.17844986915588,1,1.794126033782959,None,,,,,,,,,,,,,,,,,,96,5,2025-02-24_13h18.31.708,comp,2024.2.4,60.43918261714106,2025-02-24 13h21.31.748705 -0500,
55,55,0,critical,hwd,35.0,4.0,upper,200.0,125.0,125.0,200.0,127.0,127.0,2,2.6723124980926514,None,,,,,0,0,0,0,0,55,55,101,161.19405341148376,,,,,,,,,,,,,,,,,,,,,,,,,,,,,,,,,,,,,,,,,,,,,,,,,,,,,,,,,,,,,,,,,,,,,,,,,,,,,,,,,200.0,125.0,125.0,200.0,127.0,127.0,4.0,4.2,-258,-10,0,-284,260,-8,161.1792414188385,161.17928314208984,161.18174171447754,161.19405341148376,161.34417819976807,161.34417819976807,161.34417819976807,161.34417819976807,161.34417819976807,161.34417819976807,161.34417819976807,163.87863039970398,2,2.6723124980926514,None,,,,,,,,,,,,,,,,,,96,5,2025-02-24_13h18.31.708,comp,2024.2.4,60.43918261714106,2025-02-24 13h21.31.748705 -0500,
56,56,0,filler_square,None,None,None,None,None,None,None,None,None,None,1,1.3725175857543945,None,,,,,0,0,0,0,0,56,56,208,163.89379596710205,,,,,,,,,,,,,,,,,,,,,,,,,,,,,,,,,,,,,,,,,,,,,,,,,,,,,,,,,,,,,,,,,,,,,,,,,,,,,,,,,191.41799465584182,191.41799465584182,157.38605076131273,67.13789171995194,170.0796825698216,130.41538258903805,2.1,2.12,-225,-266,0,-289,195,271,163.8796043395996,163.8796465396881,163.88211798667908,163.89379596710205,164.04413294792175,164.04413294792175,164.04413294792175,164.04413294792175,164.04413294792175,164.04413294792175,164.04413294792175,165.2786877155304,1,1.3725175857543945,None,,,,,,,,,,,,,,,,,,96,5,2025-02-24_13h18.31.708,comp,2024.2.4,60.43918261714106,2025-02-24 13h21.31.748705 -0500,
57,57,0,critical,whd,35.0,3.0,upper,125.0,200.0,200.0,125.0,127.0,127.0,1,1.5254108905792236,None,,,,,0,0,0,0,0,57,57,87,165.29378366470337,,,,,,,,,,,,,,,,,,,,,,,,,,,,,,,,,,,,,,,,,,,,,,,,,,,,,,,,,,,,,,,,,,,,,,,,,,,,,,,,,125.0,200.0,200.0,125.0,127.0,127.0,3.0,3.1,-258,282,0,-6,222,-258,165.279479265213,165.27952027320862,165.28164935112,165.29378366470337,165.44394993782043,165.44394993782043,165.44394993782043,165.44394993782043,165.44394993782043,165.44394993782043,165.44394993782043,166.82845973968506,1,1.5254108905792236,None,,,,,,,,,,,,,,,,,,96,5,2025-02-24_13h18.31.708,comp,2024.2.4,60.43918261714106,2025-02-24 13h21.31.748705 -0500,
58,58,0,critical,hwd,20.0,1.0,upper,200.0,125.0,125.0,200.0,141.0,141.0,1,2.1345388889312744,None,,,,,0,0,0,0,0,58,58,103,166.84387874603271,,,,,,,,,,,,,,,,,,,,,,,,,,,,,,,,,,,,,,,,,,,,,,,,,,,,,,,,,,,,,,,,,,,,,,,,,,,,,,,,,200.0,125.0,125.0,200.0,141.0,141.0,1.0,1.3,222,-254,480,-264,746,-261,166.829327583313,166.8293697834015,166.83184671401978,166.84387874603271,166.99412512779236,166.99412512779236,166.99412512779236,166.99412512779236,166.99412512779236,166.99412512779236,166.99412512779236,168.99529480934143,1,2.1345388889312744,None,,,,,,,,,,,,,,,,,,96,5,2025-02-24_13h18.31.708,comp,2024.2.4,60.43918261714106,2025-02-24 13h21.31.748705 -0500,
59,59,0,critical,dwh,35.0,3.0,upper,127.0,127.0,125.0,200.0,200.0,125.0,3,2.1447701454162598,None,,,,,0,0,0,0,0,59,59,63,169.01044535636902,,,,,,,,,,,,,,,,,,,,,,,,,,,,,,,,,,,,,,,,,,,,,,,,,,,,,,,,,,,,,,,,,,,,,,,,,,,,,,,,,127.0,127.0,125.0,200.0,200.0,125.0,3.0,3.1,-260,285,0,-10,258,-275,168.99610257148743,168.99614548683167,168.99845123291016,169.01044535636902,169.16063857078552,169.16063857078552,169.16063857078552,169.16063857078552,169.16063857078552,169.16063857078552,169.16063857078552,171.1620852947235,3,2.1447701454162598,None,,,,,,,,,,,,,,,,,,96,5,2025-02-24_13h18.31.708,comp,2024.2.4,60.43918261714106,2025-02-24 13h21.31.748705 -0500,
60,60,0,filler_random,None,None,None,None,None,None,None,None,None,None,2,1.5779941082000732,None,,,,,0,0,0,0,0,60,60,167,171.17737126350403,,,,,,,,,,,,,,,,,,,,,,,,,,,,,,,,,,,,,,,,,,,,,,,,,,,,,,,,,,,,,,,,,,,,,,,,,,,,,,,,,175.5293276263152,93.76413436396736,133.0844975495192,174.11706069164723,58.31349864669345,157.4367081255454,2.1,2.11,-230,264,0,270,262,-277,171.16298246383667,171.16302347183228,171.16505599021912,171.17737126350403,171.3274142742157,171.3274142742157,171.3274142742157,171.3274142742157,171.3274142742157,171.3274142742157,171.3274142742157,172.76185822486877,2,1.5779941082000732,None,,,,,,,,,,,,,,,,,,96,5,2025-02-24_13h18.31.708,comp,2024.2.4,60.43918261714106,2025-02-24 13h21.31.748705 -0500,
61,61,0,critical,whd,20.0,1.0,lower,57.0,133.0,133.0,57.0,78.0,78.0,1,2.8996779918670654,None,,,,,0,0,0,0,0,61,61,90,172.77733993530273,,,,,,,,,,,,,,,,,,,,,,,,,,,,,,,,,,,,,,,,,,,,,,,,,,,,,,,,,,,,,,,,,,,,,,,,,,,,,,,,,57.0,133.0,133.0,57.0,78.0,78.0,1.0,1.3,289,-272,480,-282,644,-276,172.76265335083008,172.76269674301147,172.76479363441467,172.77733993530273,172.927179813385,172.927179813385,172.927179813385,172.927179813385,172.927179813385,172.927179813385,172.927179813385,175.67853474617004,1,2.8996779918670654,None,,,,,,,,,,,,,,,,,,96,5,2025-02-24_13h18.31.708,comp,2024.2.4,60.43918261714106,2025-02-24 13h21.31.748705 -0500,
62,62,0,critical,wdh,35.0,3.0,upper,125.0,200.0,127.0,127.0,200.0,125.0,3,1.077277421951294,None,,,,,0,0,0,0,0,62,62,75,175.6940724849701,,,,,,,,,,,,,,,,,,,,,,,,,,,,,,,,,,,,,,,,,,,,,,,,,,,,,,,,,,,,,,,,,,,,,,,,,,,,,,,,,125.0,200.0,127.0,127.0,200.0,125.0,3.0,3.2,-260,-281,0,10,222,261,175.67940378189087,175.67944741249084,175.68186402320862,175.6940724849701,175.8440511226654,175.8440511226654,175.8440511226654,175.8440511226654,175.8440511226654,175.8440511226654,175.8440511226654,176.77842807769775,3,1.077277421951294,None,,,,,,,,,,,,,,,,,,96,5,2025-02-24_13h18.31.708,comp,2024.2.4,60.43918261714106,2025-02-24 13h21.31.748705 -0500,
63,63,0,critical,hdw,35.0,2.1,upper,200.0,125.0,127.0,127.0,125.0,200.0,3,2.3212954998016357,None,,,,,0,0,0,0,0,63,63,21,176.79385900497437,,,,,,,,,,,,,,,,,,,,,,,,,,,,,,,,,,,,,,,,,,,,,,,,,,,,,,,,,,,,,,,,,,,,,,,,,,,,,,,,,200.0,125.0,127.0,127.0,125.0,200.0,2.1,2.12,-222,-258,0,-251,260,266,176.77926659584045,176.7793092727661,176.78205251693726,176.79385900497437,176.94401693344116,176.94401693344116,176.94401693344116,176.94401693344116,176.94401693344116,176.94401693344116,176.94401693344116,179.128479719162,3,2.3212954998016357,None,,,,,,,,,,,,,,,,,,96,5,2025-02-24_13h18.31.708,comp,2024.2.4,60.43918261714106,2025-02-24 13h21.31.748705 -0500,
64,64,0,catch,None,None,None,None,None,None,None,None,None,None,1,1.4114594459533691,None,,,,,0,0,0,0,0,64,64,123,179.14377546310425,,,,,,,,,,,,,,,,,,,,,,,,,,,,,,,,,,,,,,,,,,,,,,,,,,,,,,,,,,,,,,,,,,,,,,,,,,,,,,,,,165,160,90,100,133,57,2.2,2.22,-226,276,0,-279,174,-252,179.12950038909912,179.1295428276062,179.13194489479065,179.14377546310425,179.29391407966614,179.29391407966614,179.29391407966614,179.29391407966614,179.29391407966614,179.29391407966614,179.29391407966614,180.56177496910095,1,1.4114594459533691,None,,,,,,,,,,,,,,,,,,96,5,2025-02-24_13h18.31.708,comp,2024.2.4,60.43918261714106,2025-02-24 13h21.31.748705 -0500,
65,65,0,catch,None,None,None,None,None,None,None,None,None,None,3,1.2257542610168457,None,,,,,0,0,0,0,0,65,65,125,180.57734775543213,,,,,,,,,,,,,,,,,,,,,,,,,,,,,,,,,,,,,,,,,,,,,,,,,,,,,,,,,,,,,,,,,,,,,,,,,,,,,,,,,70,120,89,101,135,190,2.2,2.21,-206,-259,0,272,242,258,180.56281971931458,180.56286144256592,180.56488180160522,180.57734775543213,180.72717356681824,180.72717356681824,180.72717356681824,180.72717356681824,180.72717356681824,180.72717356681824,180.72717356681824,181.81158137321472,3,1.2257542610168457,None,,,,,,,,,,,,,,,,,,96,5,2025-02-24_13h18.31.708,comp,2024.2.4,60.43918261714106,2025-02-24 13h21.31.748705 -0500,
66,66,0,filler_random,None,None,None,None,None,None,None,None,None,None,3,1.839125156402588,None,,,,,0,0,0,0,0,66,66,157,181.82725071907043,,,,,,,,,,,,,,,,,,,,,,,,,,,,,,,,,,,,,,,,,,,,,,,,,,,,,,,,,,,,,,,,,,,,,,,,,,,,,,,,,160.79765964208025,173.52876450908423,161.4662071913991,163.82607964982606,172.70559905646041,162.79993367948745,2.1,2.11,-265,280,0,282,259,-260,181.81248831748962,181.81253099441528,181.81497979164124,181.82725071907043,181.97733306884766,181.97733306884766,181.97733306884766,181.97733306884766,181.97733306884766,181.97733306884766,181.97733306884766,183.67866492271423,3,1.839125156402588,None,,,,,,,,,,,,,,,,,,96,5,2025-02-24_13h18.31.708,comp,2024.2.4,60.43918261714106,2025-02-24 13h21.31.748705 -0500,
67,67,0,filler_square,None,None,None,None,None,None,None,None,None,None,1,1.4846160411834717,None,,,,,0,0,0,0,0,67,67,174,183.69378328323364,,,,,,,,,,,,,,,,,,,,,,,,,,,,,,,,,,,,,,,,,,,,,,,,,,,,,,,,,,,,,,,,,,,,,,,,,,,,,,,,,149.8144283080604,149.8144283080604,68.7997696117543,126.57283789951624,106.44636886830958,70.33108378092841,2.2,2.22,-234,267,0,-271,194,-272,183.67964601516724,183.67968916893005,183.6817433834076,183.69378328323364,183.84389209747314,183.84389209747314,183.84389209747314,183.84389209747314,183.84389209747314,183.84389209747314,183.84389209747314,185.1948161125183,1,1.4846160411834717,None,,,,,,,,,,,,,,,,,,96,5,2025-02-24_13h18.31.708,comp,2024.2.4,60.43918261714106,2025-02-24 13h21.31.748705 -0500,
68,68,0,critical,hdw,35.0,3.0,lower,133.0,57.0,70.0,70.0,57.0,133.0,3,4.450414180755615,None,,,,,0,0,0,0,0,68,68,110,185.21011996269226,,,,,,,,,,,,,,,,,,,,,,,,,,,,,,,,,,,,,,,,,,,,,,,,,,,,,,,,,,,,,,,,,,,,,,,,,,,,,,,,,133.0,57.0,70.0,70.0,57.0,133.0,3.0,3.1,-160,288,0,7,198,-272,185.19559621810913,185.19563722610474,185.19780111312866,185.21011996269226,185.36041283607483,185.36041283607483,185.36041283607483,185.36041283607483,185.36041283607483,185.36041283607483,185.36041283607483,189.67824125289917,3,4.450414180755615,None,,,,,,,,,,,,,,,,,,96,5,2025-02-24_13h18.31.708,comp,2024.2.4,60.43918261714106,2025-02-24 13h21.31.748705 -0500,
69,69,0,critical,dwh,20.0,3.0,lower,78.0,78.0,57.0,133.0,133.0,57.0,2,1.5502598285675049,None,,,,,0,0,0,0,0,69,69,68,189.69359397888184,,,,,,,,,,,,,,,,,,,,,,,,,,,,,,,,,,,,,,,,,,,,,,,,,,,,,,,,,,,,,,,,,,,,,,,,,,,,,,,,,78.0,78.0,57.0,133.0,133.0,57.0,3.0,3.1,-202,285,0,-4,191,-287,189.67901825904846,189.67906045913696,189.68140602111816,189.69359397888184,189.8438274860382,189.8438274860382,189.8438274860382,189.8438274860382,189.8438274860382,189.8438274860382,189.8438274860382,191.2614622116089,2,1.5502598285675049,None,,,,,,,,,,,,,,,,,,96,5,2025-02-24_13h18.31.708,comp,2024.2.4,60.43918261714106,2025-02-24 13h21.31.748705 -0500,
70,70,0,critical,wdh,20.0,4.0,upper,125.0,200.0,141.0,141.0,200.0,125.0,3,2.0622081756591797,None,,,,,0,0,0,0,0,70,70,83,191.27684926986694,,,,,,,,,,,,,,,,,,,,,,,,,,,,,,,,,,,,,,,,,,,,,,,,,,,,,,,,,,,,,,,,,,,,,,,,,,,,,,,,,125.0,200.0,141.0,141.0,200.0,125.0,4.0,4.1,-266,-262,0,10,229,-256,191.26225662231445,191.26229739189148,191.2647361755371,191.27684926986694,191.4272060394287,191.4272060394287,191.4272060394287,191.4272060394287,191.4272060394287,191.4272060394287,191.4272060394287,193.34507179260254,3,2.0622081756591797,None,,,,,,,,,,,,,,,,,,96,5,2025-02-24_13h18.31.708,comp,2024.2.4,60.43918261714106,2025-02-24 13h21.31.748705 -0500,
71,71,0,critical,dhw,20.0,1.0,lower,78.0,78.0,133.0,57.0,57.0,133.0,2,4.258545398712158,None,,,,,0,0,0,0,0,71,71,54,193.36058068275452,,,,,,,,,,,,,,,,,,,,,,,,,,,,,,,,,,,,,,,,,,,,,,,,,,,,,,,,,,,,,,,,,,,,,,,,,,,,,,,,,78.0,78.0,133.0,57.0,57.0,133.0,1.0,1.3,316,-253,480,-280,671,-256,193.34586763381958,193.34590911865234,193.3479518890381,193.36058068275452,193.51040482521057,193.51040482521057,193.51040482521057,193.51040482521057,193.51040482521057,193.51040482521057,193.51040482521057,197.62804579734802,2,4.258545398712158,None,,,,,,,,,,,,,,,,,,96,5,2025-02-24_13h18.31.708,comp,2024.2.4,60.43918261714106,2025-02-24 13h21.31.748705 -0500,
72,72,0,critical,dhw,20.0,2.1,lower,78.0,78.0,133.0,57.0,57.0,133.0,3,6.222299337387085,None,,,,,0,0,0,0,0,72,72,2,197.64383840560913,,,,,,,,,,,,,,,,,,,,,,,,,,,,,,,,,,,,,,,,,,,,,,,,,,,,,,,,,,,,,,,,,,,,,,,,,,,,,,,,,78.0,78.0,133.0,57.0,57.0,133.0,2.1,2.11,-164,270,0,263,191,-252,197.62884402275085,197.6288878917694,197.6309130191803,197.64383840560913,197.79368209838867,197.79368209838867,197.79368209838867,197.79368209838867,197.79368209838867,197.79368209838867,197.79368209838867,203.87837195396423,3,6.222299337387085,None,,,,,,,,,,,,,,,,,,96,5,2025-02-24_13h18.31.708,comp,2024.2.4,60.43918261714106,2025-02-24 13h21.31.748705 -0500,
73,73,0,filler_random,None,None,None,None,None,None,None,None,None,None,3,1.372558355331421,None,,,,,0,0,0,0,0,73,73,143,203.89352226257324,,,,,,,,,,,,,,,,,,,,,,,,,,,,,,,,,,,,,,,,,,,,,,,,,,,,,,,,,,,,,,,,,,,,,,,,,,,,,,,,,192.95182200707393,81.01291331618532,111.44664904168232,102.94554601895089,182.55289102995363,125.42321760726671,1.0,1.2,-188,-9,0,5,210,12,203.8792507648468,203.87929129600525,203.8816521167755,203.89352226257324,204.0436999797821,204.0436999797821,204.0436999797821,204.0436999797821,204.0436999797821,204.0436999797821,204.0436999797821,205.2786786556244,3,1.372558355331421,None,,,,,,,,,,,,,,,,,,96,5,2025-02-24_13h18.31.708,comp,2024.2.4,60.43918261714106,2025-02-24 13h21.31.748705 -0500,
74,74,0,critical,wdh,35.0,3.0,lower,57.0,133.0,70.0,70.0,133.0,57.0,2,1.6774163246154785,None,,,,,0,0,0,0,0,74,74,74,205.29354977607727,,,,,,,,,,,,,,,,,,,,,,,,,,,,,,,,,,,,,,,,,,,,,,,,,,,,,,,,,,,,,,,,,,,,,,,,,,,,,,,,,57.0,133.0,70.0,70.0,133.0,57.0,3.0,3.2,-198,-276,0,-12,160,274,205.2795193195343,205.27956104278564,205.28217554092407,205.29354977607727,205.44359350204468,205.44359350204468,205.44359350204468,205.44359350204468,205.44359350204468,205.44359350204468,205.44359350204468,206.97798824310303,2,1.6774163246154785,None,,,,,,,,,,,,,,,,,,96,5,2025-02-24_13h18.31.708,comp,2024.2.4,60.43918261714106,2025-02-24 13h21.31.748705 -0500,
75,75,0,filler_square,None,None,None,None,None,None,None,None,None,None,2,1.4987826347351074,None,,,,,0,0,0,0,0,75,75,171,206.99372005462646,,,,,,,,,,,,,,,,,,,,,,,,,,,,,,,,,,,,,,,,,,,,,,,,,,,,,,,,,,,,,,,,,,,,,,,,,,,,,,,,,148.3869381208006,82.34259176867374,173.36579990069504,173.36579990069504,116.69548374083121,107.74782176919906,3.0,3.2,-224,-289,0,13,237,253,206.97897863388062,206.9790198802948,206.98129510879517,206.99372005462646,207.14379048347473,207.14379048347473,207.14379048347473,207.14379048347473,207.14379048347473,207.14379048347473,207.14379048347473,208.49495148658752,2,1.4987826347351074,None,,,,,,,,,,,,,,,,,,96,5,2025-02-24_13h18.31.708,comp,2024.2.4,60.43918261714106,2025-02-24 13h21.31.748705 -0500,
76,76,0,filler_square,None,None,None,None,None,None,None,None,None,None,1,1.2606966495513916,None,,,,,0,0,0,0,0,76,76,196,208.51032423973083,,,,,,,,,,,,,,,,,,,,,,,,,,,,,,,,,,,,,,,,,,,,,,,,,,,,,,,,,,,,,,,,,,,,,,,,,,,,,,,,,184.17811691807128,184.17811691807128,145.5280353385662,154.55581691961538,85.01485222364249,175.7241346277289,1.0,1.3,215,-267,480,-260,741,-258,208.4960000514984,208.49604201316833,208.49825310707092,208.51032423973083,208.66045784950256,208.66045784950256,208.66045784950256,208.66045784950256,208.66045784950256,208.66045784950256,208.66045784950256,209.77827739715576,1,1.2606966495513916,None,,,,,,,,,,,,,,,,,,96,5,2025-02-24_13h18.31.708,comp,2024.2.4,60.43918261714106,2025-02-24 13h21.31.748705 -0500,
77,77,0,critical,hdw,35.0,2.1,lower,133.0,57.0,70.0,70.0,57.0,133.0,3,2.3772833347320557,None,,,,,0,0,0,0,0,77,77,20,209.79372191429138,,,,,,,,,,,,,,,,,,,,,,,,,,,,,,,,,,,,,,,,,,,,,,,,,,,,,,,,,,,,,,,,,,,,,,,,,,,,,,,,,133.0,57.0,70.0,70.0,57.0,133.0,2.1,2.11,-160,252,0,262,198,-266,209.7790744304657,209.77911472320557,209.7814953327179,209.79372191429138,209.9435577392578,209.9435577392578,209.9435577392578,209.9435577392578,209.9435577392578,209.9435577392578,209.9435577392578,212.17806363105774,3,2.3772833347320557,None,,,,,,,,,,,,,,,,,,96,5,2025-02-24_13h18.31.708,comp,2024.2.4,60.43918261714106,2025-02-24 13h21.31.748705 -0500,
78,78,0,critical,hwd,35.0,2.1,lower,133.0,57.0,57.0,133.0,70.0,70.0,2,1.952784776687622,None,,,,,0,0,0,0,0,78,78,40,212.1936981678009,,,,,,,,,,,,,,,,,,,,,,,,,,,,,,,,,,,,,,,,,,,,,,,,,,,,,,,,,,,,,,,,,,,,,,,,,,,,,,,,,133.0,57.0,57.0,133.0,70.0,70.0,2.1,2.12,-191,-279,0,-263,198,266,212.17882180213928,212.1788628101349,212.18090796470642,212.1936981678009,212.34357690811157,212.34357690811157,212.34357690811157,212.34357690811157,212.34357690811157,212.34357690811157,212.34357690811157,214.1612856388092,2,1.952784776687622,None,,,,,,,,,,,,,,,,,,96,5,2025-02-24_13h18.31.708,comp,2024.2.4,60.43918261714106,2025-02-24 13h21.31.748705 -0500,
79,79,0,critical,dhw,35.0,4.0,lower,70.0,70.0,133.0,57.0,57.0,133.0,3,3.6422934532165527,None,,,,,0,0,0,0,0,79,79,52,214.17664122581482,,,,,,,,,,,,,,,,,,,,,,,,,,,,,,,,,,,,,,,,,,,,,,,,,,,,,,,,,,,,,,,,,,,,,,,,,,,,,,,,,70.0,70.0,133.0,57.0,57.0,133.0,4.0,4.2,-160,13,0,-272,191,-3,214.16209363937378,214.16213583946228,214.1645245552063,214.17664122581482,214.3268575668335,214.3268575668335,214.3268575668335,214.3268575668335,214.3268575668335,214.3268575668335,214.3268575668335,217.8279745578766,3,3.6422934532165527,None,,,,,,,,,,,,,,,,,,96,5,2025-02-24_13h18.31.708,comp,2024.2.4,60.43918261714106,2025-02-24 13h21.31.748705 -0500,
80,80,0,filler_square,None,None,None,None,None,None,None,None,None,None,3,1.416696548461914,None,,,,,0,0,0,0,0,80,80,197,217.84371137619019,,,,,,,,,,,,,,,,,,,,,,,,,,,,,,,,,,,,,,,,,,,,,,,,,,,,,,,,,,,,,,,,,,,,,,,,,,,,,,,,,69.64935293486995,71.70491217372525,131.26646967698355,80.77356681192865,135.73991164443623,135.73991164443623,3.0,3.1,-172,276,0,4,204,-259,217.82893323898315,217.8289761543274,217.83122372627258,217.84371137619019,217.99365305900574,217.99365305900574,217.99365305900574,217.99365305900574,217.99365305900574,217.99365305900574,217.99365305900574,219.278240442276,3,1.416696548461914,None,,,,,,,,,,,,,,,,,,96,5,2025-02-24_13h18.31.708,comp,2024.2.4,60.43918261714106,2025-02-24 13h21.31.748705 -0500,
81,81,0,filler_square,None,None,None,None,None,None,None,None,None,None,1,1.933645486831665,None,,,,,0,0,0,0,0,81,81,185,219.29351472854614,,,,,,,,,,,,,,,,,,,,,,,,,,,,,,,,,,,,,,,,,,,,,,,,,,,,,,,,,,,,,,,,,,,,,,,,,,,,,,,,,72.87970763204103,72.87970763204103,66.58454712092251,57.076157723270725,57.682796935084355,58.6401079040641,2.1,2.11,-161,269,0,276,154,-253,219.27918887138367,219.27923035621643,219.28151440620422,219.29351472854614,219.44337964057922,219.44337964057922,219.44337964057922,219.44337964057922,219.44337964057922,219.44337964057922,219.44337964057922,221.24449825286865,1,1.933645486831665,None,,,,,,,,,,,,,,,,,,96,5,2025-02-24_13h18.31.708,comp,2024.2.4,60.43918261714106,2025-02-24 13h21.31.748705 -0500,
82,82,0,critical,wdh,20.0,2.1,lower,57.0,133.0,78.0,78.0,133.0,57.0,2,1.5270166397094727,None,,,,,0,0,0,0,0,82,82,10,221.26006484031677,,,,,,,,,,,,,,,,,,,,,,,,,,,,,,,,,,,,,,,,,,,,,,,,,,,,,,,,,,,,,,,,,,,,,,,,,,,,,,,,,57.0,133.0,78.0,78.0,133.0,57.0,2.1,2.12,-202,-289,0,-288,164,254,221.24529790878296,221.24533891677856,221.24784111976624,221.26006484031677,221.41013145446777,221.41013145446777,221.41013145446777,221.41013145446777,221.41013145446777,221.41013145446777,221.41013145446777,222.79456615447998,2,1.5270166397094727,None,,,,,,,,,,,,,,,,,,96,5,2025-02-24_13h18.31.708,comp,2024.2.4,60.43918261714106,2025-02-24 13h21.31.748705 -0500,
83,83,0,critical,whd,20.0,2.1,lower,57.0,133.0,133.0,57.0,78.0,78.0,3,1.6499476432800293,None,,,,,0,0,0,0,0,83,83,14,222.81031203269958,,,,,,,,,,,,,,,,,,,,,,,,,,,,,,,,,,,,,,,,,,,,,,,,,,,,,,,,,,,,,,,,,,,,,,,,,,,,,,,,,57.0,133.0,133.0,57.0,78.0,78.0,2.1,2.11,-191,282,0,256,164,-273,222.79537177085876,222.79541420936584,222.79804229736328,222.81031203269958,222.96008777618408,222.96008777618408,222.96008777618408,222.96008777618408,222.96008777618408,222.96008777618408,222.96008777618408,224.47792768478394,3,1.6499476432800293,None,,,,,,,,,,,,,,,,,,96,5,2025-02-24_13h18.31.708,comp,2024.2.4,60.43918261714106,2025-02-24 13h21.31.748705 -0500,
84,84,0,critical,dhw,20.0,3.0,upper,141.0,141.0,200.0,125.0,125.0,200.0,3,2.0615508556365967,None,,,,,0,0,0,0,0,84,84,57,224.493408203125,,,,,,,,,,,,,,,,,,,,,,,,,,,,,,,,,,,,,,,,,,,,,,,,,,,,,,,,,,,,,,,,,,,,,,,,,,,,,,,,,141.0,141.0,200.0,125.0,125.0,200.0,3.0,3.2,-229,-251,0,-4,258,255,224.47871088981628,224.47875308990479,224.48075151443481,224.493408203125,224.6437156200409,224.6437156200409,224.6437156200409,224.6437156200409,224.6437156200409,224.6437156200409,224.6437156200409,226.561537027359,3,2.0615508556365967,None,,,,,,,,,,,,,,,,,,96,5,2025-02-24_13h18.31.708,comp,2024.2.4,60.43918261714106,2025-02-24 13h21.31.748705 -0500,
85,85,0,critical,dhw,35.0,2.1,upper,127.0,127.0,200.0,125.0,125.0,200.0,2,1.6010148525238037,None,,,,,0,0,0,0,0,85,85,25,226.57702088356018,,,,,,,,,,,,,,,,,,,,,,,,,,,,,,,,,,,,,,,,,,,,,,,,,,,,,,,,,,,,,,,,,,,,,,,,,,,,,,,,,127.0,127.0,200.0,125.0,125.0,200.0,2.1,2.11,-222,254,0,256,258,-276,226.56233620643616,226.5623791217804,226.56499791145325,226.57702088356018,226.72697854042053,226.72697854042053,226.72697854042053,226.72697854042053,226.72697854042053,226.72697854042053,226.72697854042053,228.19467997550964,2,1.6010148525238037,None,,,,,,,,,,,,,,,,,,96,5,2025-02-24_13h18.31.708,comp,2024.2.4,60.43918261714106,2025-02-24 13h21.31.748705 -0500,
86,86,0,filler_square,None,None,None,None,None,None,None,None,None,None,2,1.1451020240783691,None,,,,,0,0,0,0,0,86,86,184,228.20989966392517,,,,,,,,,,,,,,,,,,,,,,,,,,,,,,,,,,,,,,,,,,,,,,,,,,,,,,,,,,,,,,,,,,,,,,,,,,,,,,,,,85.97310048507269,131.67388351814594,165.70452196464728,165.70452196464728,69.42242277038615,109.1695202223062,1.0,1.2,-245,-6,0,14,233,5,228.1956810951233,228.19572234153748,228.19890689849854,228.20989966392517,228.36016273498535,228.36016273498535,228.36016273498535,228.36016273498535,228.36016273498535,228.36016273498535,228.36016273498535,229.36145496368408,2,1.1451020240783691,None,,,,,,,,,,,,,,,,,,96,5,2025-02-24_13h18.31.708,comp,2024.2.4,60.43918261714106,2025-02-24 13h21.31.748705 -0500,
87,87,0,critical,dwh,35.0,1.0,upper,127.0,127.0,125.0,200.0,200.0,125.0,3,1.4890203475952148,None,,,,,0,0,0,0,0,87,87,61,229.37686920166016,,,,,,,,,,,,,,,,,,,,,,,,,,,,,,,,,,,,,,,,,,,,,,,,,,,,,,,,,,,,,,,,,,,,,,,,,,,,,,,,,127.0,127.0,125.0,200.0,200.0,125.0,1.0,1.3,220,-274,480,-268,738,-281,229.3622190952301,229.3622601032257,229.36480259895325,229.37686920166016,229.52701210975647,229.52701210975647,229.52701210975647,229.52701210975647,229.52701210975647,229.52701210975647,229.52701210975647,230.87839126586914,3,1.4890203475952148,None,,,,,,,,,,,,,,,,,,96,5,2025-02-24_13h18.31.708,comp,2024.2.4,60.43918261714106,2025-02-24 13h21.31.748705 -0500,
88,88,0,critical,whd,20.0,2.1,lower,57.0,133.0,133.0,57.0,78.0,78.0,3,2.3577840328216553,None,,,,,0,0,0,0,0,88,88,38,230.89340233802795,,,,,,,,,,,,,,,,,,,,,,,,,,,,,,,,,,,,,,,,,,,,,,,,,,,,,,,,,,,,,,,,,,,,,,,,,,,,,,,,,57.0,133.0,133.0,57.0,78.0,78.0,2.1,2.11,-191,252,0,281,164,-269,230.8791983127594,230.87923955917358,230.8817539215088,230.89340233802795,231.04336786270142,231.04336786270142,231.04336786270142,231.04336786270142,231.04336786270142,231.04336786270142,231.04336786270142,233.26116847991943,3,2.3577840328216553,None,,,,,,,,,,,,,,,,,,96,5,2025-02-24_13h18.31.708,comp,2024.2.4,60.43918261714106,2025-02-24 13h21.31.748705 -0500,
89,89,0,filler_square,None,None,None,None,None,None,None,None,None,None,1,1.5671157836914062,None,,,,,0,0,0,0,0,89,89,186,233.2769067287445,,,,,,,,,,,,,,,,,,,,,,,,,,,,,,,,,,,,,,,,,,,,,,,,,,,,,,,,,,,,,,,,,,,,,,,,,,,,,,,,,89.32624470145194,89.32624470145194,61.270071810752086,88.57919468366512,65.77521064209957,83.57516120183973,2.1,2.11,-185,270,0,269,182,-287,233.26211881637573,233.26216101646423,233.26417994499207,233.2769067287445,233.42683815956116,233.42683815956116,233.42683815956116,233.42683815956116,233.42683815956116,233.42683815956116,233.42683815956116,234.8612289428711,1,1.5671157836914062,None,,,,,,,,,,,,,,,,,,96,5,2025-02-24_13h18.31.708,comp,2024.2.4,60.43918261714106,2025-02-24 13h21.31.748705 -0500,
90,90,0,critical,dwh,20.0,2.1,upper,141.0,141.0,125.0,200.0,200.0,125.0,3,1.4942662715911865,None,,,,,0,0,0,0,0,90,90,7,234.87663578987122,,,,,,,,,,,,,,,,,,,,,,,,,,,,,,,,,,,,,,,,,,,,,,,,,,,,,,,,,,,,,,,,,,,,,,,,,,,,,,,,,141.0,141.0,125.0,200.0,200.0,125.0,2.1,2.12,-266,-278,0,-280,258,264,234.86203360557556,234.86207604408264,234.86443281173706,234.87663578987122,235.0270037651062,235.0270037651062,235.0270037651062,235.0270037651062,235.0270037651062,235.0270037651062,235.0270037651062,236.37808895111084,3,1.4942662715911865,None,,,,,,,,,,,,,,,,,,96,5,2025-02-24_13h18.31.708,comp,2024.2.4,60.43918261714106,2025-02-24 13h21.31.748705 -0500,
91,91,0,filler_square,None,None,None,None,None,None,None,None,None,None,2,1.193131685256958,None,,,,,0,0,0,0,0,91,91,207,236.39367699623108,,,,,,,,,,,,,,,,,,,,,,,,,,,,,,,,,,,,,,,,,,,,,,,,,,,,,,,,,,,,,,,,,,,,,,,,,,,,,,,,,68.98769741432126,138.5557046122026,139.81375388640765,139.81375388640765,117.57718211786532,134.91084552815,3.0,3.1,-235,264,0,16,233,-284,236.3790192604065,236.37906002998352,236.3810920715332,236.39367699623108,236.54348731040955,236.54348731040955,236.54348731040955,236.54348731040955,236.54348731040955,236.54348731040955,236.54348731040955,237.59465098381042,2,1.193131685256958,None,,,,,,,,,,,,,,,,,,96,5,2025-02-24_13h18.31.708,comp,2024.2.4,60.43918261714106,2025-02-24 13h21.31.748705 -0500,
92,92,0,filler_square,None,None,None,None,None,None,None,None,None,None,1,2.217162847518921,None,,,,,0,0,0,0,0,92,92,206,237.61021947860718,,,,,,,,,,,,,,,,,,,,,,,,,,,,,,,,,,,,,,,,,,,,,,,,,,,,,,,,,,,,,,,,,,,,,,,,,,,,,,,,,145.76940881780524,145.76940881780524,138.07912707169496,143.80172417631587,86.92455655678341,93.05141002308687,2.1,2.11,-241,268,0,252,214,-256,237.5956654548645,237.5957067012787,237.59780645370483,237.61021947860718,237.76025128364563,237.76025128364563,237.76025128364563,237.76025128364563,237.76025128364563,237.76025128364563,237.76025128364563,239.82858800888062,1,2.217162847518921,None,,,,,,,,,,,,,,,,,,96,5,2025-02-24_13h18.31.708,comp,2024.2.4,60.43918261714106,2025-02-24 13h21.31.748705 -0500,
93,93,0,filler_square,None,None,None,None,None,None,None,None,None,None,2,1.2221431732177734,None,,,,,0,0,0,0,0,93,93,200,239.843679189682,,,,,,,,,,,,,,,,,,,,,,,,,,,,,,,,,,,,,,,,,,,,,,,,,,,,,,,,,,,,,,,,,,,,,,,,,,,,,,,,,183.16446376594124,183.16446376594124,173.9253731750289,180.96175544506178,68.17627723509524,78.53365529609425,2.2,2.21,-278,-290,0,278,226,256,239.82958793640137,239.82962918281555,239.83170247077942,239.843679189682,239.99364829063416,239.99364829063416,239.99364829063416,239.99364829063416,239.99364829063416,239.99364829063416,239.99364829063416,241.07841849327087,2,1.2221431732177734,None,,,,,,,,,,,,,,,,,,96,5,2025-02-24_13h18.31.708,comp,2024.2.4,60.43918261714106,2025-02-24 13h21.31.748705 -0500,
94,94,0,filler_square,None,None,None,None,None,None,None,None,None,None,1,1.1097362041473389,None,,,,,0,0,0,0,0,94,94,205,241.0932605266571,,,,,,,,,,,,,,,,,,,,,,,,,,,,,,,,,,,,,,,,,,,,,,,,,,,,,,,,,,,,,,,,,,,,,,,,,,,,,,,,,170.3308810213495,170.3308810213495,102.89177473346157,93.56474698260322,71.78874743830025,147.7692182513048,2.2,2.21,-228,-286,0,259,217,288,241.07936024665833,241.07939982414246,241.08192682266235,241.0932605266571,241.24352526664734,241.24352526664734,241.24352526664734,241.24352526664734,241.24352526664734,241.24352526664734,241.24352526664734,242.21126556396484,1,1.1097362041473389,None,,,,,,,,,,,,,,,,,,96,5,2025-02-24_13h18.31.708,comp,2024.2.4,60.43918261714106,2025-02-24 13h21.31.748705 -0500,
95,95,0,filler_square,None,None,None,None,None,None,None,None,None,None,3,1.1030192375183105,None,,,,,0,0,0,0,0,95,95,209,242.226975440979,,,,,,,,,,,,,,,,,,,,,,,,,,,,,,,,,,,,,,,,,,,,,,,,,,,,,,,,,,,,,,,,,,,,,,,,,,,,,,,,,89.39311013471777,84.21305309850442,87.52950448783054,80.89253061345093,126.15843569204142,126.15843569204142,4.0,4.2,-179,7,0,-285,200,6,242.21222686767578,242.2122688293457,242.21477723121643,242.226975440979,242.37682151794434,242.37682151794434,242.37682151794434,242.37682151794434,242.37682151794434,242.37682151794434,242.37682151794434,243.34443950653076,3,1.1030192375183105,None,,,,,,,,,,,,,,,,,,96,5,2025-02-24_13h18.31.708,comp,2024.2.4,60.43918261714106,2025-02-24 13h21.31.748705 -0500,
96,96,0,filler_random,None,None,None,None,None,None,None,None,None,None,3,0.9704031944274902,None,,,,,0,0,0,0,0,96,96,147,243.35988116264343,,,,,,,,,,,,,,,,,,,,,,,,,,,,,,,,,,,,,,,,,,,,,,,,,,,,,,,,,,,,,,,,,,,,,,,,,,,,,,,,,76.34562385733241,178.38472294809748,107.88350349136584,147.85040802224384,168.84277304907965,184.81586528180705,3.0,3.2,-259,-276,0,14,262,256,243.34536480903625,243.3454077243805,243.34792852401733,243.35988116264343,243.495676279068,243.495676279068,243.495676279068,243.495676279068,243.495676279068,243.495676279068,243.495676279068,244.34533071517944,3,0.9704031944274902,None,,,,,,,,,,,,,,,,,,96,5,2025-02-24_13h18.31.708,comp,2024.2.4,60.43918261714106,2025-02-24 13h21.31.748705 -0500,
97,97,0,filler_square,None,None,None,None,None,None,None,None,None,None,3,0.9779644012451172,None,,,,,0,0,0,0,0,97,97,182,244.36097407341003,,,,,,,,,,,,,,,,,,,,,,,,,,,,,,,,,,,,,,,,,,,,,,,,,,,,,,,,,,,,,,,,,,,,,,,,,,,,,,,,,105.14096063100064,81.55884849393593,170.13103470841367,93.13437073714982,185.17979229257807,185.17979229257807,3.0,3.2,-183,-272,0,10,235,287,244.3463032245636,244.346342086792,244.3498091697693,244.36097407341003,244.51088070869446,244.51088070869446,244.51088070869446,244.51088070869446,244.51088070869446,244.51088070869446,244.51088070869446,245.34492135047913,3,0.9779644012451172,None,,,,,,,,,,,,,,,,,,96,5,2025-02-24_13h18.31.708,comp,2024.2.4,60.43918261714106,2025-02-24 13h21.31.748705 -0500,
98,98,0,catch,None,None,None,None,None,None,None,None,None,None,2,0.9632611274719238,None,,,,,0,0,0,0,0,98,98,126,245.3601861000061,,,,,,,,,,,,,,,,,,,,,,,,,,,,,,,,,,,,,,,,,,,,,,,,,,,,,,,,,,,,,,,,,,,,,,,,,,,,,,,,,82,108,126,199,96,94,2.1,2.11,-250,264,0,276,242,-284,245.345956325531,245.34599900245667,245.34805011749268,245.3601861000061,245.51008892059326,245.51008892059326,245.51008892059326,245.51008892059326,245.51008892059326,245.51008892059326,245.51008892059326,246.3281388282776,2,0.9632611274719238,None,,,,,,,,,,,,,,,,,,96,5,2025-02-24_13h18.31.708,comp,2024.2.4,60.43918261714106,2025-02-24 13h21.31.748705 -0500,
99,99,0,critical,dhw,35.0,2.1,upper,127.0,127.0,200.0,125.0,125.0,200.0,3,1.9223456382751465,None,,,,,0,0,0,0,0,99,99,1,246.34349131584167,,,,,,,,,,,,,,,,,,,,,,,,,,,,,,,,,,,,,,,,,,,,,,,,,,,,,,,,,,,,,,,,,,,,,,,,,,,,,,,,,127.0,127.0,200.0,125.0,125.0,200.0,2.1,2.11,-222,263,0,281,258,-265,246.3289396762848,246.32898044586182,246.33104157447815,246.34349131584167,246.49360990524292,246.49360990524292,246.49360990524292,246.49360990524292,246.49360990524292,246.49360990524292,246.49360990524292,248.27824187278748,3,1.9223456382751465,None,,,,,,,,,,,,,,,,,,96,5,2025-02-24_13h18.31.708,comp,2024.2.4,60.43918261714106,2025-02-24 13h21.31.748705 -0500,
100,100,0,filler_random,None,None,None,None,None,None,None,None,None,None,2,1.045654296875,None,,,,,0,0,0,0,0,100,100,154,248.29323863983154,,,,,,,,,,,,,,,,,,,,,,,,,,,,,,,,,,,,,,,,,,,,,,,,,,,,,,,,,,,,,,,,,,,,,,,,,,,,,,,,,75.90812318143831,107.79852389190235,152.1929505376911,190.72473301335214,165.53605094806508,83.60578006179331,3.0,3.1,-245,286,0,18,233,-261,248.27910017967224,248.27913999557495,248.28136467933655,248.29323863983154,248.44344329833984,248.44344329833984,248.44344329833984,248.44344329833984,248.44344329833984,248.44344329833984,248.44344329833984,249.34473204612732,2,1.045654296875,None,,,,,,,,,,,,,,,,,,96,5,2025-02-24_13h18.31.708,comp,2024.2.4,60.43918261714106,2025-02-24 13h21.31.748705 -0500,
101,101,0,critical,dwh,20.0,2.1,lower,78.0,78.0,57.0,133.0,133.0,57.0,1,1.6426634788513184,None,,,,,0,0,0,0,0,101,101,6,249.36020588874817,,,,,,,,,,,,,,,,,,,,,,,,,,,,,,,,,,,,,,,,,,,,,,,,,,,,,,,,,,,,,,,,,,,,,,,,,,,,,,,,,78.0,78.0,57.0,133.0,133.0,57.0,2.1,2.12,-202,-260,0,-287,191,285,249.34554648399353,249.34558868408203,249.34768056869507,249.36020588874817,249.5099742412567,249.5099742412567,249.5099742412567,249.5099742412567,249.5099742412567,249.5099742412567,249.5099742412567,251.0110161304474,1,1.6426634788513184,None,,,,,,,,,,,,,,,,,,96,5,2025-02-24_13h18.31.708,comp,2024.2.4,60.43918261714106,2025-02-24 13h21.31.748705 -0500,
102,102,0,filler_random,None,None,None,None,None,None,None,None,None,None,3,1.0811467170715332,None,,,,,0,0,0,0,0,102,102,130,251.02671694755554,,,,,,,,,,,,,,,,,,,,,,,,,,,,,,,,,,,,,,,,,,,,,,,,,,,,,,,,,,,,,,,,,,,,,,,,,,,,,,,,,145.30233454021618,107.75742845358855,103.38718432482497,101.67902824788659,164.1171417902301,174.04766735124792,2.1,2.12,-201,-257,0,-269,234,257,251.01187372207642,251.01191353797913,251.01416420936584,251.02671694755554,251.1768605709076,251.1768605709076,251.1768605709076,251.1768605709076,251.1768605709076,251.1768605709076,251.1768605709076,252.11143684387207,3,1.0811467170715332,None,,,,,,,,,,,,,,,,,,96,5,2025-02-24_13h18.31.708,comp,2024.2.4,60.43918261714106,2025-02-24 13h21.31.748705 -0500,
103,103,0,filler_square,None,None,None,None,None,None,None,None,None,None,2,0.8918323516845703,None,,,,,0,0,0,0,0,103,103,195,252.12680315971375,,,,,,,,,,,,,,,,,,,,,,,,,,,,,,,,,,,,,,,,,,,,,,,,,,,,,,,,,,,,,,,,,,,,,,,,,,,,,,,,,141.98020980230737,156.73024346826554,177.01780803358525,177.01780803358525,98.39013445946951,81.89954967414472,2.2,2.21,-263,-266,0,268,225,254,252.11240410804749,252.11244773864746,252.11462306976318,252.12680315971375,252.27682495117188,252.27682495117188,252.27682495117188,252.27682495117188,252.27682495117188,252.27682495117188,252.27682495117188,253.02787733078003,2,0.8918323516845703,None,,,,,,,,,,,,,,,,,,96,5,2025-02-24_13h18.31.708,comp,2024.2.4,60.43918261714106,2025-02-24 13h21.31.748705 -0500,
104,104,0,filler_square,None,None,None,None,None,None,None,None,None,None,3,1.4647574424743652,None,,,,,0,0,0,0,0,104,104,180,253.04338717460632,,,,,,,,,,,,,,,,,,,,,,,,,,,,,,,,,,,,,,,,,,,,,,,,,,,,,,,,,,,,,,,,,,,,,,,,,,,,,,,,,115.75553211359161,75.56268830373074,156.52525267080728,171.30631616458106,173.71054789828042,173.71054789828042,1.0,1.3,261,-259,480,-278,749,-264,253.0288622379303,253.02890396118164,253.03115510940552,253.04338717460632,253.19353985786438,253.19353985786438,253.19353985786438,253.19353985786438,253.19353985786438,253.19353985786438,253.19353985786438,254.51231598854065,3,1.4647574424743652,None,,,,,,,,,,,,,,,,,,96,5,2025-02-24_13h18.31.708,comp,2024.2.4,60.43918261714106,2025-02-24 13h21.31.748705 -0500,
105,105,0,critical,dhw,20.0,2.1,upper,141.0,141.0,200.0,125.0,125.0,200.0,3,1.7366161346435547,None,,,,,0,0,0,0,0,105,105,3,254.529194355011,,,,,,,,,,,,,,,,,,,,,,,,,,,,,,,,,,,,,,,,,,,,,,,,,,,,,,,,,,,,,,,,,,,,,,,,,,,,,,,,,141.0,141.0,200.0,125.0,125.0,200.0,2.1,2.11,-229,258,0,259,258,-272,254.51346850395203,254.5135154724121,254.51658058166504,254.529194355011,254.67683577537537,254.67683577537537,254.67683577537537,254.67683577537537,254.67683577537537,254.67683577537537,254.67683577537537,256.27797842025757,3,1.7366161346435547,None,,,,,,,,,,,,,,,,,,96,5,2025-02-24_13h18.31.708,comp,2024.2.4,60.43918261714106,2025-02-24 13h21.31.748705 -0500,
106,106,0,critical,whd,35.0,2.1,lower,57.0,133.0,133.0,57.0,70.0,70.0,3,2.150388479232788,None,,,,,0,0,0,0,0,106,106,36,256.29312324523926,,,,,,,,,,,,,,,,,,,,,,,,,,,,,,,,,,,,,,,,,,,,,,,,,,,,,,,,,,,,,,,,,,,,,,,,,,,,,,,,,57.0,133.0,133.0,57.0,70.0,70.0,2.1,2.12,-191,-265,0,-287,160,256,256.27876830101013,256.2788107395172,256.2807877063751,256.29312324523926,256.44330954551697,256.44330954551697,256.44330954551697,256.44330954551697,256.44330954551697,256.44330954551697,256.44330954551697,258.4610798358917,3,2.150388479232788,None,,,,,,,,,,,,,,,,,,96,5,2025-02-24_13h18.31.708,comp,2024.2.4,60.43918261714106,2025-02-24 13h21.31.748705 -0500,
107,107,0,critical,hdw,35.0,2.1,lower,133.0,57.0,70.0,70.0,57.0,133.0,3,3.2527384757995605,None,,,,,0,0,0,0,0,107,107,44,258.49305176734924,,,,,,,,,,,,,,,,,,,,,,,,,,,,,,,,,,,,,,,,,,,,,,,,,,,,,,,,,,,,,,,,,,,,,,,,,,,,,,,,,133.0,57.0,70.0,70.0,57.0,133.0,2.1,2.11,-160,284,0,262,198,-271,258.4618763923645,258.46191811561584,258.4641716480255,258.49305176734924,258.62662529945374,258.62662529945374,258.62662529945374,258.62662529945374,258.62662529945374,258.62662529945374,258.62662529945374,261.7610168457031,3,3.2527384757995605,None,,,,,,,,,,,,,,,,,,96,5,2025-02-24_13h18.31.708,comp,2024.2.4,60.43918261714106,2025-02-24 13h21.31.748705 -0500,
108,108,0,filler_random,None,None,None,None,None,None,None,None,None,None,1,1.8672294616699219,None,,,,,0,0,0,0,0,108,108,164,261.776424407959,,,,,,,,,,,,,,,,,,,,,,,,,,,,,,,,,,,,,,,,,,,,,,,,,,,,,,,,,,,,,,,,,,,,,,,,,,,,,,,,,191.44616235960137,188.90933717550067,72.4211530024507,92.92539970549846,134.32703463884593,138.9516906442263,1.0,1.3,243,-281,480,-262,692,-284,261.7619197368622,261.7619607448578,261.76428270339966,261.776424407959,261.92666029930115,261.92666029930115,261.92666029930115,261.92666029930115,261.92666029930115,261.92666029930115,261.92666029930115,263.66111278533936,1,1.8672294616699219,None,,,,,,,,,,,,,,,,,,96,5,2025-02-24_13h18.31.708,comp,2024.2.4,60.43918261714106,2025-02-24 13h21.31.748705 -0500,
109,109,0,critical,hwd,20.0,3.0,lower,133.0,57.0,57.0,133.0,78.0,78.0,2,3.678218126296997,None,,,,,0,0,0,0,0,109,109,104,263.6763598918915,,,,,,,,,,,,,,,,,,,,,,,,,,,,,,,,,,,,,,,,,,,,,,,,,,,,,,,,,,,,,,,,,,,,,,,,,,,,,,,,,133.0,57.0,57.0,133.0,78.0,78.0,3.0,3.2,-191,-257,0,-5,202,280,263.6619212627411,263.6619622707367,263.6642732620239,263.6763598918915,263.82644414901733,263.82644414901733,263.82644414901733,263.82644414901733,263.82644414901733,263.82644414901733,263.82644414901733,267.36097860336304,2,3.678218126296997,None,,,,,,,,,,,,,,,,,,96,5,2025-02-24_13h18.31.708,comp,2024.2.4,60.43918261714106,2025-02-24 13h21.31.748705 -0500,
110,110,0,filler_square,None,None,None,None,None,None,None,None,None,None,1,1.3155670166015625,None,,,,,0,0,0,0,0,110,110,187,267.37663412094116,,,,,,,,,,,,,,,,,,,,,,,,,,,,,,,,,,,,,,,,,,,,,,,,,,,,,,,,,,,,,,,,,,,,,,,,,,,,,,,,,148.81528776731545,148.81528776731545,74.0973315611985,61.19892161253574,76.9651509003527,120.64896125977259,1.0,1.3,279,-252,480,-284,667,-258,267.3619294166565,267.36197328567505,267.3642671108246,267.37663412094116,267.52654814720154,267.52654814720154,267.52654814720154,267.52654814720154,267.52654814720154,267.52654814720154,267.52654814720154,268.6944811344147,1,1.3155670166015625,None,,,,,,,,,,,,,,,,,,96,5,2025-02-24_13h18.31.708,comp,2024.2.4,60.43918261714106,2025-02-24 13h21.31.748705 -0500,
111,111,0,critical,whd,35.0,4.0,upper,125.0,200.0,200.0,125.0,127.0,127.0,3,1.5007801055908203,None,,,,,0,0,0,0,0,111,111,89,268.7098956108093,,,,,,,,,,,,,,,,,,,,,,,,,,,,,,,,,,,,,,,,,,,,,,,,,,,,,,,,,,,,,,,,,,,,,,,,,,,,,,,,,125.0,200.0,200.0,125.0,127.0,127.0,4.0,4.2,-258,-7,0,-285,222,-16,268.6952974796295,268.6953399181366,268.6973865032196,268.7098956108093,268.8600869178772,268.8600869178772,268.8600869178772,268.8600869178772,268.8600869178772,268.8600869178772,268.8600869178772,270.2278275489807,3,1.5007801055908203,None,,,,,,,,,,,,,,,,,,96,5,2025-02-24_13h18.31.708,comp,2024.2.4,60.43918261714106,2025-02-24 13h21.31.748705 -0500,
112,112,0,critical,dhw,35.0,3.0,upper,127.0,127.0,200.0,125.0,125.0,200.0,3,1.367417335510254,None,,,,,0,0,0,0,0,112,112,51,270.2431628704071,,,,,,,,,,,,,,,,,,,,,,,,,,,,,,,,,,,,,,,,,,,,,,,,,,,,,,,,,,,,,,,,,,,,,,,,,,,,,,,,,127.0,127.0,200.0,125.0,125.0,200.0,3.0,3.2,-222,-274,0,-10,258,261,270.22861218452454,270.22865533828735,270.23184299468994,270.2431628704071,270.3934397697449,270.3934397697449,270.3934397697449,270.3934397697449,270.3934397697449,270.3934397697449,270.3934397697449,271.6277997493744,3,1.367417335510254,None,,,,,,,,,,,,,,,,,,96,5,2025-02-24_13h18.31.708,comp,2024.2.4,60.43918261714106,2025-02-24 13h21.31.748705 -0500,
113,113,0,filler_square,None,None,None,None,None,None,None,None,None,None,3,1.1026992797851562,None,,,,,0,0,0,0,0,113,113,192,271.64303040504456,,,,,,,,,,,,,,,,,,,,,,,,,,,,,,,,,,,,,,,,,,,,,,,,,,,,,,,,,,,,,,,,,,,,,,,,,,,,,,,,,57.66294648029125,138.19088818680126,107.13878074791927,65.76537403004889,190.26731767501064,190.26731767501064,2.1,2.12,-198,-283,0,-275,224,262,271.62876892089844,271.6288118362427,271.63090085983276,271.64303040504456,271.7933557033539,271.7933557033539,271.7933557033539,271.7933557033539,271.7933557033539,271.7933557033539,271.7933557033539,272.76100397109985,3,1.1026992797851562,None,,,,,,,,,,,,,,,,,,96,5,2025-02-24_13h18.31.708,comp,2024.2.4,60.43918261714106,2025-02-24 13h21.31.748705 -0500,
114,114,0,catch,None,None,None,None,None,None,None,None,None,None,1,1.1316800117492676,None,,,,,0,0,0,0,0,114,114,121,272.77638483047485,,,,,,,,,,,,,,,,,,,,,,,,,,,,,,,,,,,,,,,,,,,,,,,,,,,,,,,,,,,,,,,,,,,,,,,,,,,,,,,,,151,174,124,66,81,109,2.2,2.21,-216,-288,0,252,184,259,272.7620413303375,272.76208448410034,272.76437544822693,272.77638483047485,272.9265992641449,272.9265992641449,272.9265992641449,272.9265992641449,272.9265992641449,272.9265992641449,272.9265992641449,273.91116738319397,1,1.1316800117492676,None,,,,,,,,,,,,,,,,,,96,5,2025-02-24_13h18.31.708,comp,2024.2.4,60.43918261714106,2025-02-24 13h21.31.748705 -0500,
115,115,0,filler_random,None,None,None,None,None,None,None,None,None,None,3,0.9711389541625977,None,,,,,0,0,0,0,0,115,115,145,273.92668318748474,,,,,,,,,,,,,,,,,,,,,,,,,,,,,,,,,,,,,,,,,,,,,,,,,,,,,,,,,,,,,,,,,,,,,,,,,,,,,,,,,73.45686219554118,133.42555330984464,130.9967707874858,77.84637460356828,178.47687217013038,134.342926189539,2.1,2.12,-202,-255,0,-279,202,261,273.91207790374756,273.9121217727661,273.9141342639923,273.92668318748474,274.07660722732544,274.07660722732544,274.07660722732544,274.07660722732544,274.07660722732544,274.07660722732544,274.07660722732544,274.91103529930115,3,0.9711389541625977,None,,,,,,,,,,,,,,,,,,96,5,2025-02-24_13h18.31.708,comp,2024.2.4,60.43918261714106,2025-02-24 13h21.31.748705 -0500,
116,116,0,critical,wdh,20.0,1.0,upper,125.0,200.0,141.0,141.0,200.0,125.0,3,1.3172216415405273,None,,,,,0,0,0,0,0,116,116,79,274.92629504203796,,,,,,,,,,,,,,,,,,,,,,,,,,,,,,,,,,,,,,,,,,,,,,,,,,,,,,,,,,,,,,,,,,,,,,,,,,,,,,,,,125.0,200.0,141.0,141.0,200.0,125.0,1.0,1.2,-266,20,0,0,229,-4,274.9118173122406,274.91185688972473,274.91492557525635,274.92629504203796,275.0766463279724,275.0766463279724,275.0766463279724,275.0766463279724,275.0766463279724,275.0766463279724,275.0766463279724,276.2446982860565,3,1.3172216415405273,None,,,,,,,,,,,,,,,,,,96,5,2025-02-24_13h18.31.708,comp,2024.2.4,60.43918261714106,2025-02-24 13h21.31.748705 -0500,
117,117,0,critical,hwd,20.0,2.1,lower,133.0,57.0,57.0,133.0,78.0,78.0,3,2.5999813079833984,None,,,,,0,0,0,0,0,117,117,18,276.2599596977234,,,,,,,,,,,,,,,,,,,,,,,,,,,,,,,,,,,,,,,,,,,,,,,,,,,,,,,,,,,,,,,,,,,,,,,,,,,,,,,,,133.0,57.0,57.0,133.0,78.0,78.0,2.1,2.12,-191,-267,0,-253,202,268,276.2455189228058,276.24556064605713,276.24760007858276,276.2599596977234,276.409854888916,276.409854888916,276.409854888916,276.409854888916,276.409854888916,276.409854888916,276.409854888916,278.87757110595703,3,2.5999813079833984,None,,,,,,,,,,,,,,,,,,96,5,2025-02-24_13h18.31.708,comp,2024.2.4,60.43918261714106,2025-02-24 13h21.31.748705 -0500,
118,118,0,critical,hdw,20.0,4.0,lower,133.0,57.0,78.0,78.0,57.0,133.0,3,1.8377161026000977,None,,,,,0,0,0,0,0,118,118,118,278.89307141304016,,,,,,,,,,,,,,,,,,,,,,,,,,,,,,,,,,,,,,,,,,,,,,,,,,,,,,,,,,,,,,,,,,,,,,,,,,,,,,,,,133.0,57.0,78.0,78.0,57.0,133.0,4.0,4.1,-164,-267,0,16,202,-283,278.87838888168335,278.878431558609,278.8809275627136,278.89307141304016,279.04304575920105,279.04304575920105,279.04304575920105,279.04304575920105,279.04304575920105,279.04304575920105,279.04304575920105,280.74425649642944,3,1.8377161026000977,None,,,,,,,,,,,,,,,,,,96,5,2025-02-24_13h18.31.708,comp,2024.2.4,60.43918261714106,2025-02-24 13h21.31.748705 -0500,
119,119,0,critical,dwh,35.0,1.0,lower,70.0,70.0,57.0,133.0,133.0,57.0,2,2.667144536972046,None,,,,,0,0,0,0,0,119,119,60,280.7596437931061,,,,,,,,,,,,,,,,,,,,,,,,,,,,,,,,,,,,,,,,,,,,,,,,,,,,,,,,,,,,,,,,,,,,,,,,,,,,,,,,,70.0,70.0,57.0,133.0,133.0,57.0,1.0,1.1,-678,283,-480,278,-289,261,280.74502897262573,280.74506998062134,280.74741196632385,280.7596437931061,280.90982365608215,280.90982365608215,280.90982365608215,280.90982365608215,280.90982365608215,280.90982365608215,280.90982365608215,283.44430208206177,2,2.667144536972046,None,,,,,,,,,,,,,,,,,,96,5,2025-02-24_13h18.31.708,comp,2024.2.4,60.43918261714106,2025-02-24 13h21.31.748705 -0500,
120,120,0,critical,wdh,20.0,3.0,upper,125.0,200.0,141.0,141.0,200.0,125.0,3,2.6475162506103516,None,,,,,0,0,0,0,0,120,120,81,283.4599413871765,,,,,,,,,,,,,,,,,,,,,,,,,,,,,,,,,,,,,,,,,,,,,,,,,,,,,,,,,,,,,,,,,,,,,,,,,,,,,,,,,125.0,200.0,141.0,141.0,200.0,125.0,3.0,3.1,-266,262,0,0,229,-290,283.4451024532318,283.4451446533203,283.44848108291626,283.4599413871765,283.61004185676575,283.61004185676575,283.61004185676575,283.61004185676575,283.61004185676575,283.61004185676575,283.61004185676575,286.1112380027771,3,2.6475162506103516,None,,,,,,,,,,,,,,,,,,96,5,2025-02-24_13h18.31.708,comp,2024.2.4,60.43918261714106,2025-02-24 13h21.31.748705 -0500,
121,121,0,critical,wdh,20.0,1.0,lower,57.0,133.0,78.0,78.0,133.0,57.0,2,2.987908124923706,None,,,,,0,0,0,0,0,121,121,78,286.1265380382538,,,,,,,,,,,,,,,,,,,,,,,,,,,,,,,,,,,,,,,,,,,,,,,,,,,,,,,,,,,,,,,,,,,,,,,,,,,,,,,,,57.0,133.0,78.0,78.0,133.0,57.0,1.0,1.2,-202,12,0,-1,164,13,286.11202692985535,286.11206912994385,286.1144549846649,286.1265380382538,286.2764518260956,286.2764518260956,286.2764518260956,286.2764518260956,286.2764518260956,286.2764518260956,286.2764518260956,289.12753534317017,2,2.987908124923706,None,,,,,,,,,,,,,,,,,,96,5,2025-02-24_13h18.31.708,comp,2024.2.4,60.43918261714106,2025-02-24 13h21.31.748705 -0500,
122,122,0,filler_square,None,None,None,None,None,None,None,None,None,None,3,1.4348084926605225,None,,,,,0,0,0,0,0,122,122,201,289.14285922050476,,,,,,,,,,,,,,,,,,,,,,,,,,,,,,,,,,,,,,,,,,,,,,,,,,,,,,,,,,,,,,,,,,,,,,,,,,,,,,,,,113.95525614705322,114.6995872125819,132.47823524534618,105.58714301633577,150.4565610149764,150.4565610149764,1.0,1.3,274,-284,480,-281,704,-282,289.12845182418823,289.12849164009094,289.1309471130371,289.14285922050476,289.2931101322174,289.2931101322174,289.2931101322174,289.2931101322174,289.2931101322174,289.2931101322174,289.2931101322174,290.5943877696991,3,1.4348084926605225,None,,,,,,,,,,,,,,,,,,96,5,2025-02-24_13h18.31.708,comp,2024.2.4,60.43918261714106,2025-02-24 13h21.31.748705 -0500,
123,123,0,critical,wdh,20.0,4.0,lower,57.0,133.0,78.0,78.0,133.0,57.0,2,3.8182320594787598,None,,,,,0,0,0,0,0,123,123,82,290.6096622943878,,,,,,,,,,,,,,,,,,,,,,,,,,,,,,,,,,,,,,,,,,,,,,,,,,,,,,,,,,,,,,,,,,,,,,,,,,,,,,,,,57.0,133.0,78.0,78.0,133.0,57.0,4.0,4.2,-202,5,0,-273,164,9,290.59516763687134,290.5952093601227,290.59755873680115,290.6096622943878,290.7597916126251,290.7597916126251,290.7597916126251,290.7597916126251,290.7597916126251,290.7597916126251,290.7597916126251,294.4442377090454,2,3.8182320594787598,None,,,,,,,,,,,,,,,,,,96,5,2025-02-24_13h18.31.708,comp,2024.2.4,60.43918261714106,2025-02-24 13h21.31.748705 -0500,
124,124,0,critical,whd,35.0,2.1,upper,125.0,200.0,200.0,125.0,127.0,127.0,2,1.8948123455047607,None,,,,,0,0,0,0,0,124,124,13,294.4596607685089,,,,,,,,,,,,,,,,,,,,,,,,,,,,,,,,,,,,,,,,,,,,,,,,,,,,,,,,,,,,,,,,,,,,,,,,,,,,,,,,,125.0,200.0,200.0,125.0,127.0,127.0,2.1,2.11,-258,286,0,288,222,-272,294.4450762271881,294.4451184272766,294.4474878311157,294.4596607685089,294.6098618507385,294.6098618507385,294.6098618507385,294.6098618507385,294.6098618507385,294.6098618507385,294.6098618507385,296.3610360622406,2,1.8948123455047607,None,,,,,,,,,,,,,,,,,,96,5,2025-02-24_13h18.31.708,comp,2024.2.4,60.43918261714106,2025-02-24 13h21.31.748705 -0500,
125,125,0,critical,hwd,20.0,1.0,lower,133.0,57.0,57.0,133.0,78.0,78.0,3,1.7212140560150146,None,,,,,0,0,0,0,0,125,125,102,296.37645721435547,,,,,,,,,,,,,,,,,,,,,,,,,,,,,,,,,,,,,,,,,,,,,,,,,,,,,,,,,,,,,,,,,,,,,,,,,,,,,,,,,133.0,57.0,57.0,133.0,78.0,78.0,1.0,1.1,-671,290,-480,251,-278,275,296.361843585968,296.3618862628937,296.36420154571533,296.37645721435547,296.52638268470764,296.52638268470764,296.52638268470764,296.52638268470764,296.52638268470764,296.52638268470764,296.52638268470764,298.1106743812561,3,1.7212140560150146,None,,,,,,,,,,,,,,,,,,96,5,2025-02-24_13h18.31.708,comp,2024.2.4,60.43918261714106,2025-02-24 13h21.31.748705 -0500,
126,126,0,critical,whd,35.0,1.0,lower,57.0,133.0,133.0,57.0,70.0,70.0,3,2.381751775741577,None,,,,,0,0,0,0,0,126,126,84,298.1262242794037,,,,,,,,,,,,,,,,,,,,,,,,,,,,,,,,,,,,,,,,,,,,,,,,,,,,,,,,,,,,,,,,,,,,,,,,,,,,,,,,,57.0,133.0,133.0,57.0,70.0,70.0,1.0,1.3,289,-288,480,-280,640,-273,298.11147594451904,298.11151814460754,298.11366057395935,298.1262242794037,298.2762997150421,298.2762997150421,298.2762997150421,298.2762997150421,298.2762997150421,298.2762997150421,298.2762997150421,300.5108714103699,3,2.381751775741577,None,,,,,,,,,,,,,,,,,,96,5,2025-02-24_13h18.31.708,comp,2024.2.4,60.43918261714106,2025-02-24 13h21.31.748705 -0500,
127,127,0,critical,hwd,20.0,2.1,lower,133.0,57.0,57.0,133.0,78.0,78.0,2,1.3878188133239746,None,,,,,0,0,0,0,0,127,127,42,300.5264558792114,,,,,,,,,,,,,,,,,,,,,,,,,,,,,,,,,,,,,,,,,,,,,,,,,,,,,,,,,,,,,,,,,,,,,,,,,,,,,,,,,133.0,57.0,57.0,133.0,78.0,78.0,2.1,2.11,-191,264,0,260,202,-279,300.5116674900055,300.5117094516754,300.51371598243713,300.5264558792114,300.6762707233429,300.6762707233429,300.6762707233429,300.6762707233429,300.6762707233429,300.6762707233429,300.6762707233429,301.9273338317871,2,1.3878188133239746,None,,,,,,,,,,,,,,,,,,96,5,2025-02-24_13h18.31.708,comp,2024.2.4,60.43918261714106,2025-02-24 13h21.31.748705 -0500,
128,128,0,critical,hdw,20.0,4.0,upper,200.0,125.0,141.0,141.0,125.0,200.0,3,5.627639293670654,None,,,,,0,0,0,0,0,128,128,119,301.94277119636536,,,,,,,,,,,,,,,,,,,,,,,,,,,,,,,,,,,,,,,,,,,,,,,,,,,,,,,,,,,,,,,,,,,,,,,,,,,,,,,,,200.0,125.0,141.0,141.0,125.0,200.0,4.0,4.2,-229,17,0,-276,266,2,301.9281268119812,301.92816972732544,301.9305591583252,301.94277119636536,302.0931339263916,302.0931339263916,302.0931339263916,302.0931339263916,302.0931339263916,302.0931339263916,302.0931339263916,307.5776917934418,3,5.627639293670654,None,,,,,,,,,,,,,,,,,,96,5,2025-02-24_13h18.31.708,comp,2024.2.4,60.43918261714106,2025-02-24 13h21.31.748705 -0500,
129,129,0,catch,None,None,None,None,None,None,None,None,None,None,2,1.1211349964141846,None,,,,,0,0,0,0,0,129,129,120,307.59310722351074,,,,,,,,,,,,,,,,,,,,,,,,,,,,,,,,,,,,,,,,,,,,,,,,,,,,,,,,,,,,,,,,,,,,,,,,,,,,,,,,,81,109,145,180,122,68,2.1,2.12,-240,-262,0,-266,220,284,307.57870292663574,307.57874488830566,307.58070039749146,307.59310722351074,307.7429769039154,307.7429769039154,307.7429769039154,307.7429769039154,307.7429769039154,307.7429769039154,307.7429769039154,308.7274429798126,2,1.1211349964141846,None,,,,,,,,,,,,,,,,,,96,5,2025-02-24_13h18.31.708,comp,2024.2.4,60.43918261714106,2025-02-24 13h21.31.748705 -0500,
130,130,0,filler_square,None,None,None,None,None,None,None,None,None,None,1,1.9546904563903809,None,,,,,0,0,0,0,0,130,130,179,308.74282813072205,,,,,,,,,,,,,,,,,,,,,,,,,,,,,,,,,,,,,,,,,,,,,,,,,,,,,,,,,,,,,,,,,,,,,,,,,,,,,,,,,134.15128282081338,134.15128282081338,67.92499224274546,117.7637762381236,115.235250335095,123.42118385892466,2.2,2.22,-222,279,0,-279,217,-263,308.7284197807312,308.72846031188965,308.7308826446533,308.74282813072205,308.8930516242981,308.8930516242981,308.8930516242981,308.8930516242981,308.8930516242981,308.8930516242981,308.8930516242981,310.7107262611389,1,1.9546904563903809,None,,,,,,,,,,,,,,,,,,96,5,2025-02-24_13h18.31.708,comp,2024.2.4,60.43918261714106,2025-02-24 13h21.31.748705 -0500,
131,131,0,critical,whd,20.0,2.1,upper,125.0,200.0,200.0,125.0,141.0,141.0,2,2.8282077312469482,None,,,,,0,0,0,0,0,131,131,39,310.72611355781555,,,,,,,,,,,,,,,,,,,,,,,,,,,,,,,,,,,,,,,,,,,,,,,,,,,,,,,,,,,,,,,,,,,,,,,,,,,,,,,,,125.0,200.0,200.0,125.0,141.0,141.0,2.1,2.12,-258,-268,0,-257,229,255,310.7115378379822,310.71158027648926,310.71355152130127,310.72611355781555,310.8763659000397,310.8763659000397,310.8763659000397,310.8763659000397,310.8763659000397,310.8763659000397,310.8763659000397,313.56083607673645,2,2.8282077312469482,None,,,,,,,,,,,,,,,,,,96,5,2025-02-24_13h18.31.708,comp,2024.2.4,60.43918261714106,2025-02-24 13h21.31.748705 -0500,
132,132,0,filler_random,None,None,None,None,None,None,None,None,None,None,2,1.1530060768127441,None,,,,,0,0,0,0,0,132,132,166,313.57657623291016,,,,,,,,,,,,,,,,,,,,,,,,,,,,,,,,,,,,,,,,,,,,,,,,,,,,,,,,,,,,,,,,,,,,,,,,,,,,,,,,,71.86510432880823,146.52844581132587,165.49398052955814,166.2428636961237,65.47912237943201,183.21910161461386,2.1,2.12,-252,-264,0,-269,271,263,313.5617570877075,313.56181168556213,313.5638310909271,313.57657623291016,313.7263798713684,313.7263798713684,313.7263798713684,313.7263798713684,313.7263798713684,313.7263798713684,313.7263798713684,314.7439968585968,2,1.1530060768127441,None,,,,,,,,,,,,,,,,,,96,5,2025-02-24_13h18.31.708,comp,2024.2.4,60.43918261714106,2025-02-24 13h21.31.748705 -0500,
133,133,0,filler_random,None,None,None,None,None,None,None,None,None,None,1,0.9950087070465088,None,,,,,0,0,0,0,0,133,133,169,314.7593731880188,,,,,,,,,,,,,,,,,,,,,,,,,,,,,,,,,,,,,,,,,,,,,,,,,,,,,,,,,,,,,,,,,,,,,,,,,,,,,,,,,142.01381766963698,185.62146896968423,73.7250423301289,98.59887701699314,112.08456608159912,158.4676542733502,4.0,4.2,-238,-2,0,-257,225,12,314.74489188194275,314.74493408203125,314.74720454216003,314.7593731880188,314.90969347953796,314.90969347953796,314.90969347953796,314.90969347953796,314.90969347953796,314.90969347953796,314.90969347953796,315.76083970069885,1,0.9950087070465088,None,,,,,,,,,,,,,,,,,,96,5,2025-02-24_13h18.31.708,comp,2024.2.4,60.43918261714106,2025-02-24 13h21.31.748705 -0500,
134,134,0,critical,hwd,35.0,3.0,lower,133.0,57.0,57.0,133.0,70.0,70.0,2,2.0171656608581543,None,,,,,0,0,0,0,0,134,134,98,315.7763319015503,,,,,,,,,,,,,,,,,,,,,,,,,,,,,,,,,,,,,,,,,,,,,,,,,,,,,,,,,,,,,,,,,,,,,,,,,,,,,,,,,133.0,57.0,57.0,133.0,70.0,70.0,3.0,3.1,-191,255,0,-20,198,-260,315.76161885261536,315.761661529541,315.76365303993225,315.7763319015503,315.926167011261,315.926167011261,315.926167011261,315.926167011261,315.926167011261,315.926167011261,315.926167011261,317.81054878234863,2,2.0171656608581543,None,,,,,,,,,,,,,,,,,,96,5,2025-02-24_13h18.31.708,comp,2024.2.4,60.43918261714106,2025-02-24 13h21.31.748705 -0500,
135,135,0,critical,hdw,20.0,2.1,lower,133.0,57.0,78.0,78.0,57.0,133.0,3,2.255284547805786,None,,,,,0,0,0,0,0,135,135,46,317.8260371685028,,,,,,,,,,,,,,,,,,,,,,,,,,,,,,,,,,,,,,,,,,,,,,,,,,,,,,,,,,,,,,,,,,,,,,,,,,,,,,,,,133.0,57.0,78.0,78.0,57.0,133.0,2.1,2.11,-164,266,0,251,202,-252,317.81135845184326,317.8114001750946,317.8138999938965,317.8260371685028,317.97617268562317,317.97617268562317,317.97617268562317,317.97617268562317,317.97617268562317,317.97617268562317,317.97617268562317,320.0939881801605,3,2.255284547805786,None,,,,,,,,,,,,,,,,,,96,5,2025-02-24_13h18.31.708,comp,2024.2.4,60.43918261714106,2025-02-24 13h21.31.748705 -0500,
136,136,0,filler_random,None,None,None,None,None,None,None,None,None,None,2,1.0132343769073486,None,,,,,0,0,0,0,0,136,136,133,320.10934042930603,,,,,,,,,,,,,,,,,,,,,,,,,,,,,,,,,,,,,,,,,,,,,,,,,,,,,,,,,,,,,,,,,,,,,,,,,,,,,,,,,66.2502010105998,67.17801146416218,195.65476545106637,179.82584060481577,67.65179824530435,157.07492907957106,1.0,1.2,-220,-17,0,-19,264,-7,320.0948529243469,320.0948929786682,320.09718203544617,320.10934042930603,320.25957202911377,320.25957202911377,320.25957202911377,320.25957202911377,320.25957202911377,320.25957202911377,320.25957202911377,321.12750577926636,2,1.0132343769073486,None,,,,,,,,,,,,,,,,,,96,5,2025-02-24_13h18.31.708,comp,2024.2.4,60.43918261714106,2025-02-24 13h21.31.748705 -0500,
137,137,0,critical,hwd,35.0,2.1,upper,200.0,125.0,125.0,200.0,127.0,127.0,2,4.116966009140015,None,,,,,0,0,0,0,0,137,137,41,321.1428439617157,,,,,,,,,,,,,,,,,,,,,,,,,,,,,,,,,,,,,,,,,,,,,,,,,,,,,,,,,,,,,,,,,,,,,,,,,,,,,,,,,200.0,125.0,125.0,200.0,127.0,127.0,2.1,2.11,-258,275,0,251,260,-279,321.1282823085785,321.1283233165741,321.1307911872864,321.1428439617157,321.2930119037628,321.2930119037628,321.2930119037628,321.2930119037628,321.2930119037628,321.2930119037628,321.2930119037628,325.26107454299927,2,4.116966009140015,None,,,,,,,,,,,,,,,,,,96,5,2025-02-24_13h18.31.708,comp,2024.2.4,60.43918261714106,2025-02-24 13h21.31.748705 -0500,
138,138,0,critical,hwd,35.0,1.0,lower,133.0,57.0,57.0,133.0,70.0,70.0,1,3.677828073501587,None,,,,,0,0,0,0,0,138,138,96,325.27635645866394,,,,,,,,,,,,,,,,,,,,,,,,,,,,,,,,,,,,,,,,,,,,,,,,,,,,,,,,,,,,,,,,,,,,,,,,,,,,,,,,,133.0,57.0,57.0,133.0,70.0,70.0,1.0,1.3,289,-266,480,-254,678,-252,325.2618806362152,325.26192474365234,325.26397371292114,325.27635645866394,325.42612409591675,325.42612409591675,325.42612409591675,325.42612409591675,325.42612409591675,325.42612409591675,325.42612409591675,328.9605522155762,1,3.677828073501587,None,,,,,,,,,,,,,,,,,,96,5,2025-02-24_13h18.31.708,comp,2024.2.4,60.43918261714106,2025-02-24 13h21.31.748705 -0500,
139,139,0,filler_random,None,None,None,None,None,None,None,None,None,None,3,1.0996887683868408,None,,,,,0,0,0,0,0,139,139,132,328.976274728775,,,,,,,,,,,,,,,,,,,,,,,,,,,,,,,,,,,,,,,,,,,,,,,,,,,,,,,,,,,,,,,,,,,,,,,,,,,,,,,,,120.01244113716426,156.1175666747521,74.53252100078208,175.52485566775542,198.11733554505128,147.5037423232849,2.1,2.12,-262,-287,0,-257,258,257,328.9614586830139,328.9615023136139,328.9640169143677,328.976274728775,329.1262969970703,329.1262969970703,329.1262969970703,329.1262969970703,329.1262969970703,329.1262969970703,329.1262969970703,330.07768726348877,3,1.0996887683868408,None,,,,,,,,,,,,,,,,,,96,5,2025-02-24_13h18.31.708,comp,2024.2.4,60.43918261714106,2025-02-24 13h21.31.748705 -0500,
140,140,0,critical,wdh,35.0,1.0,lower,57.0,133.0,70.0,70.0,133.0,57.0,3,1.7005186080932617,None,,,,,0,0,0,0,0,140,140,72,330.0929036140442,,,,,,,,,,,,,,,,,,,,,,,,,,,,,,,,,,,,,,,,,,,,,,,,,,,,,,,,,,,,,,,,,,,,,,,,,,,,,,,,,57.0,133.0,70.0,70.0,133.0,57.0,1.0,1.1,-678,286,-480,282,-320,275,330.07849168777466,330.078533411026,330.0810134410858,330.0929036140442,330.2426860332489,330.2426860332489,330.2426860332489,330.2426860332489,330.2426860332489,330.2426860332489,330.2426860332489,331.81049156188965,3,1.7005186080932617,None,,,,,,,,,,,,,,,,,,96,5,2025-02-24_13h18.31.708,comp,2024.2.4,60.43918261714106,2025-02-24 13h21.31.748705 -0500,
