thisN,thisTrialN,thisRepN,effect,order,distance,config,diag,h_1,w_1,h_2,w_2,h_3,w_3,rect_choice.keys,rect_choice.rt,rect_choice.duration,instructions_loop.thisRepN,instructions_loop.thisTrialN,instructions_loop.thisN,instructions_loop.thisIndex,blocks.thisRepN,blocks.thisTrialN,blocks.thisN,blocks.thisIndex,trials.thisRepN,trials.thisTrialN,trials.thisN,trials.thisIndex,thisRow.t,notes,consent.started,agree_button.started,decline_button.started,consent_img.started,mouse.started,consent.stopped,agree_button.numClicks,agree_button.timesOn,agree_button.timesOff,decline_button.numClicks,decline_button.timesOn,decline_button.timesOff,mouse.x,mouse.y,mouse.leftButton,mouse.midButton,mouse.rightButton,mouse.time,mouse.clicked_name,exp_params.started,exp_params.stopped,welcome.started,welcome_text.started,welcome.stopped,instructions_1.started,instructions_1_text_1.started,instructions_1_text_2.started,key_resp.started,instructions_1.stopped,instructions_loop.key_resp.keys,instructions_loop.key_resp.rt,instructions_loop.key_resp.duration,instructions_2.started,instructions_2_text_1.started,instructions_2_text_2.started,key_resp_2.started,instructions_2.stopped,instructions_loop.key_resp_2.keys,instructions_loop.key_resp_2.rt,instructions_loop.key_resp_2.duration,instructions_3.started,instructions_3_text_1.started,r1_instr3.started,r2_instr3.started,r3_instr3.started,r1_instr3_label.started,r2_instr3_label.started,r3_instr3_label.started,instructions_3_text_3.started,instructions_3_text_4.started,key_resp_3.started,instructions_3.stopped,instructions_loop.key_resp_3.keys,instructions_loop.key_resp_3.rt,instructions_loop.key_resp_3.duration,instructions_4.started,instructions_4_text_1.started,instructions_4_text_3.started,instructions_4_text_2.started,key_resp_4.started,instructions_4.stopped,instructions_loop.key_resp_4.keys,instructions_loop.key_resp_4.rt,instructions_loop.key_resp_4.duration,instructions_5.started,instructions_5_text_1.started,instructions_5_text_2.started,key_resp_5.started,instructions_5.stopped,instructions_loop.key_resp_5.keys,instructions_loop.key_resp_5.rt,instructions_loop.key_resp_5.duration,start_exp.started,start_exp_text.started,key_resp_6.started,start_exp.stopped,key_resp_6.keys,key_resp_6.rt,key_resp_6.duration,h_1_tmp,w_1_tmp,h_2_tmp,w_2_tmp,h_3_tmp,w_3_tmp,config_tmp,config_tmp_1,r_1_x,r_1_y,r_2_x,r_2_y,r_3_x,r_3_y,pre_trial.started,pre_trial.stopped,choice_trial.started,rect_choice.started,r_1.started,r_2.started,r_3.started,r_1_label.started,r_2_label.started,r_3_label.started,prompt.started,choice_trial.stopped,trials.rect_choice.keys,trials.rect_choice.rt,trials.rect_choice.duration,end_block.started,end_block_text.started,end_block.stopped,end.started,end_text.started,key_resp_7.started,end.stopped,key_resp_7.keys,key_resp_7.rt,key_resp_7.duration,debriefing.started,debrief_form.started,end_debrief.started,debriefing.stopped,end_debrief.keys,end_debrief.rt,end_debrief.duration,participant,computer,date,expName,psychopyVersion,frameRate,expStart,
,,,,,,,,,,,,,,,,,,,,,,,,,,,,,,,0.020354270935058594,0.10362792015075684,0.10362792015075684,0.10362792015075684,0.020160436630249023,1.770272970199585,1,[1.664057731628418],[1.664083480834961],0,,,[-87.0],[-517.0],[1],[0],[0],[1.731964349746704],['agree_button'],,,,,,,,,,,,,,,,,,,,,,,,,,,,,,,,,,,,,,,,,,,,,,,,,,,,,,,,,,,,,,,,,,,,,,,,,,,,,,,,,,,,,,,,,,,,,,,,,,,,,,,,,,,97,6,2025-02-24_13h18.49.109,comp,2024.2.4,43.6836590796893,2025-02-24 13h24.06.808627 -0500,
,,,,,,,,,,,,,,,,,,,,,,,,,,,,,,,,,,,,,,,,,,,,,,,,,,1.7708258628845215,1.7708940505981445,,,,,,,,,,,,,,,,,,,,,,,,,,,,,,,,,,,,,,,,,,,,,,,,,,,,,,,,,,,,,,,,,,,,,,,,,,,,,,,,,,,,,,,,,,,,,,,,,,,,,,,,,97,6,2025-02-24_13h18.49.109,comp,2024.2.4,43.6836590796893,2025-02-24 13h24.06.808627 -0500,
,,,,,,,,,,,,,,,,,,,,,,,,,,,,,,,,,,,,,,,,,,,,,,,,,,,,1.7709381580352783,1.7879714965820312,3.787869930267334,,,,,,,,,,,,,,,,,,,,,,,,,,,,,,,,,,,,,,,,,,,,,,,,,,,,,,,,,,,,,,,,,,,,,,,,,,,,,,,,,,,,,,,,,,,,,,,,,,,,,,97,6,2025-02-24_13h18.49.109,comp,2024.2.4,43.6836590796893,2025-02-24 13h24.06.808627 -0500,
0,0,0,,,,,,,,,,,,,,,0,0,0,0,,,,,,,,,3.8059029579162598,,,,,,,,,,,,,,,,,,,,,,,,,,3.7888333797454834,3.8059029579162598,3.8059029579162598,5.269776821136475,5.437950134277344,space,0.1533346176147461,None,5.438112497329712,5.45392370223999,5.45392370223999,6.9538586139678955,16.643611907958984,space,9.676671028137207,None,16.643763303756714,16.6976957321167,16.6976957321167,16.6976957321167,16.6976957321167,16.6976957321167,16.6976957321167,16.6976957321167,16.6976957321167,16.6976957321167,18.157158374786377,22.255201816558838,space,4.081408739089966,None,22.25542664527893,22.273037910461426,22.273037910461426,22.273037910461426,23.759311199188232,24.2984299659729,space,0.5351250171661377,None,24.29858899116516,24.313615322113037,24.313615322113037,25.80830478668213,26.42554235458374,space,0.6062209606170654,None,26.42573833465576,26.440532684326172,26.440532684326172,27.825072526931763,space,1.3739759922027588,None,,,,,,,,,,,,,,,,,,,,,,,,,,,,,,,,,,,,,,,,,,,,,,,97,6,2025-02-24_13h18.49.109,comp,2024.2.4,43.6836590796893,2025-02-24 13h24.06.808627 -0500,
0,0,0,critical,dhw,35.0,2.1,upper,127.0,127.0,200.0,125.0,125.0,200.0,3,4.5818798542022705,None,,,,,0,0,0,0,0,0,0,1,27.9927179813385,,,,,,,,,,,,,,,,,,,,,,,,,,,,,,,,,,,,,,,,,,,,,,,,,,,,,,,,,,,,,,,,,,,,,,,,,,,,,,,,,127.0,127.0,200.0,125.0,125.0,200.0,2.1,2.11,-222,256,0,288,258,-252,27.975003957748413,27.975064277648926,27.977343559265137,27.9927179813385,28.13992714881897,28.13992714881897,28.13992714881897,28.13992714881897,28.13992714881897,28.13992714881897,28.13992714881897,32.59166073799133,3,4.5818798542022705,None,,,,,,,,,,,,,,,,,,97,6,2025-02-24_13h18.49.109,comp,2024.2.4,43.6836590796893,2025-02-24 13h24.06.808627 -0500,
1,1,0,critical,hdw,20.0,3.0,lower,133.0,57.0,78.0,78.0,57.0,133.0,3,7.501863479614258,None,,,,,0,0,0,0,0,1,1,116,32.609023094177246,,,,,,,,,,,,,,,,,,,,,,,,,,,,,,,,,,,,,,,,,,,,,,,,,,,,,,,,,,,,,,,,,,,,,,,,,,,,,,,,,133.0,57.0,78.0,78.0,57.0,133.0,3.0,3.1,-164,288,0,10,202,-254,32.59321355819702,32.593291997909546,32.59638261795044,32.609023094177246,32.74607181549072,32.74607181549072,32.74607181549072,32.74607181549072,32.74607181549072,32.74607181549072,32.74607181549072,40.11460518836975,3,7.501863479614258,None,,,,,,,,,,,,,,,,,,97,6,2025-02-24_13h18.49.109,comp,2024.2.4,43.6836590796893,2025-02-24 13h24.06.808627 -0500,
2,2,0,filler_square,None,None,None,None,None,None,None,None,None,None,1,8.89104962348938,None,,,,,0,0,0,0,0,2,2,206,40.13137412071228,,,,,,,,,,,,,,,,,,,,,,,,,,,,,,,,,,,,,,,,,,,,,,,,,,,,,,,,,,,,,,,,,,,,,,,,,,,,,,,,,141.79441478084192,141.79441478084192,121.73890362014032,126.98359517713403,109.57868673694796,77.90640827128195,2.2,2.21,-230,-283,0,281,198,290,40.11640453338623,40.11648440361023,40.11961603164673,40.13137412071228,40.272114515304565,40.272114515304565,40.272114515304565,40.272114515304565,40.272114515304565,40.272114515304565,40.272114515304565,49.034209966659546,1,8.89104962348938,None,,,,,,,,,,,,,,,,,,97,6,2025-02-24_13h18.49.109,comp,2024.2.4,43.6836590796893,2025-02-24 13h24.06.808627 -0500,
3,3,0,critical,whd,20.0,4.0,upper,125.0,200.0,200.0,125.0,141.0,141.0,2,7.202250719070435,None,,,,,0,0,0,0,0,3,3,95,49.052194118499756,,,,,,,,,,,,,,,,,,,,,,,,,,,,,,,,,,,,,,,,,,,,,,,,,,,,,,,,,,,,,,,,,,,,,,,,,,,,,,,,,125.0,200.0,200.0,125.0,141.0,141.0,4.0,4.2,-258,-18,0,-275,229,-17,49.035767555236816,49.03584861755371,49.039100885391235,49.052194118499756,49.200491189956665,49.200491189956665,49.200491189956665,49.200491189956665,49.200491189956665,49.200491189956665,49.200491189956665,56.27410674095154,2,7.202250719070435,None,,,,,,,,,,,,,,,,,,97,6,2025-02-24_13h18.49.109,comp,2024.2.4,43.6836590796893,2025-02-24 13h24.06.808627 -0500,
4,4,0,filler_random,None,None,None,None,None,None,None,None,None,None,2,10.810720443725586,None,,,,,0,0,0,0,0,4,4,135,56.29212212562561,,,,,,,,,,,,,,,,,,,,,,,,,,,,,,,,,,,,,,,,,,,,,,,,,,,,,,,,,,,,,,,,,,,,,,,,,,,,,,,,,76.71780657066242,141.57355083006388,167.27318147160344,190.56347359670778,191.884388206018,73.71424127799872,3.0,3.2,-262,-267,0,-18,228,284,56.275872468948364,56.275952100753784,56.279168128967285,56.29212212562561,56.43693137168884,56.43693137168884,56.43693137168884,56.43693137168884,56.43693137168884,56.43693137168884,56.43693137168884,67.10670185089111,2,10.810720443725586,None,,,,,,,,,,,,,,,,,,97,6,2025-02-24_13h18.49.109,comp,2024.2.4,43.6836590796893,2025-02-24 13h24.06.808627 -0500,
5,5,0,critical,whd,35.0,4.0,upper,125.0,200.0,200.0,125.0,127.0,127.0,2,6.556265830993652,None,,,,,0,0,0,0,0,5,5,89,67.12297081947327,,,,,,,,,,,,,,,,,,,,,,,,,,,,,,,,,,,,,,,,,,,,,,,,,,,,,,,,,,,,,,,,,,,,,,,,,,,,,,,,,125.0,200.0,200.0,125.0,127.0,127.0,4.0,4.2,-258,15,0,-289,222,-19,67.1082181930542,67.10829854011536,67.11150336265564,67.12297081947327,67.2724506855011,67.2724506855011,67.2724506855011,67.2724506855011,67.2724506855011,67.2724506855011,67.2724506855011,73.68264675140381,2,6.556265830993652,None,,,,,,,,,,,,,,,,,,97,6,2025-02-24_13h18.49.109,comp,2024.2.4,43.6836590796893,2025-02-24 13h24.06.808627 -0500,
6,6,0,critical,dhw,20.0,4.0,lower,78.0,78.0,133.0,57.0,57.0,133.0,2,4.090028285980225,None,,,,,0,0,0,0,0,6,6,58,73.70048022270203,,,,,,,,,,,,,,,,,,,,,,,,,,,,,,,,,,,,,,,,,,,,,,,,,,,,,,,,,,,,,,,,,,,,,,,,,,,,,,,,,78.0,78.0,133.0,57.0,57.0,133.0,4.0,4.2,-164,7,0,-274,191,14,73.68429446220398,73.68445444107056,73.68790364265442,73.70048022270203,73.84666419029236,73.84666419029236,73.84666419029236,73.84666419029236,73.84666419029236,73.84666419029236,73.84666419029236,77.7949206829071,2,4.090028285980225,None,,,,,,,,,,,,,,,,,,97,6,2025-02-24_13h18.49.109,comp,2024.2.4,43.6836590796893,2025-02-24 13h24.06.808627 -0500,
7,7,0,filler_random,None,None,None,None,None,None,None,None,None,None,2,3.2988674640655518,None,,,,,0,0,0,0,0,7,7,136,77.81167697906494,,,,,,,,,,,,,,,,,,,,,,,,,,,,,,,,,,,,,,,,,,,,,,,,,,,,,,,,,,,,,,,,,,,,,,,,,,,,,,,,,149.57411062341322,58.099526994238175,70.46909957318874,162.78334075754418,171.58663949648144,59.230282930770095,2.1,2.11,-206,270,0,252,207,-277,77.79673147201538,77.79686617851257,77.80057668685913,77.81167697906494,77.96106910705566,77.96106910705566,77.96106910705566,77.96106910705566,77.96106910705566,77.96106910705566,77.96106910705566,81.127774477005,2,3.2988674640655518,None,,,,,,,,,,,,,,,,,,97,6,2025-02-24_13h18.49.109,comp,2024.2.4,43.6836590796893,2025-02-24 13h24.06.808627 -0500,
8,8,0,critical,whd,20.0,3.0,upper,125.0,200.0,200.0,125.0,141.0,141.0,1,2.6464107036590576,None,,,,,0,0,0,0,0,8,8,93,81.14410710334778,,,,,,,,,,,,,,,,,,,,,,,,,,,,,,,,,,,,,,,,,,,,,,,,,,,,,,,,,,,,,,,,,,,,,,,,,,,,,,,,,125.0,200.0,200.0,125.0,141.0,141.0,3.0,3.1,-258,278,0,4,229,-255,81.12928032875061,81.12939500808716,81.13278317451477,81.14410710334778,81.29797053337097,81.29797053337097,81.29797053337097,81.29797053337097,81.29797053337097,81.29797053337097,81.29797053337097,83.80780863761902,1,2.6464107036590576,None,,,,,,,,,,,,,,,,,,97,6,2025-02-24_13h18.49.109,comp,2024.2.4,43.6836590796893,2025-02-24 13h24.06.808627 -0500,
9,9,0,critical,dhw,35.0,4.0,lower,70.0,70.0,133.0,57.0,57.0,133.0,3,6.8994433879852295,None,,,,,0,0,0,0,0,9,9,52,83.82743382453918,,,,,,,,,,,,,,,,,,,,,,,,,,,,,,,,,,,,,,,,,,,,,,,,,,,,,,,,,,,,,,,,,,,,,,,,,,,,,,,,,70.0,70.0,133.0,57.0,57.0,133.0,4.0,4.1,-160,-271,0,-6,191,-281,83.80937027931213,83.80945825576782,83.81257152557373,83.82743382453918,83.9638602733612,83.9638602733612,83.9638602733612,83.9638602733612,83.9638602733612,83.9638602733612,83.9638602733612,90.73231291770935,3,6.8994433879852295,None,,,,,,,,,,,,,,,,,,97,6,2025-02-24_13h18.49.109,comp,2024.2.4,43.6836590796893,2025-02-24 13h24.06.808627 -0500,
10,10,0,critical,dwh,20.0,3.0,lower,78.0,78.0,57.0,133.0,133.0,57.0,2,4.714922189712524,None,,,,,0,0,0,0,0,10,10,68,90.74806261062622,,,,,,,,,,,,,,,,,,,,,,,,,,,,,,,,,,,,,,,,,,,,,,,,,,,,,,,,,,,,,,,,,,,,,,,,,,,,,,,,,78.0,78.0,57.0,133.0,133.0,57.0,3.0,3.1,-202,279,0,10,191,-283,90.73384952545166,90.73392820358276,90.73734927177429,90.74806261062622,90.89655613899231,90.89655613899231,90.89655613899231,90.89655613899231,90.89655613899231,90.89655613899231,90.89655613899231,95.4724440574646,2,4.714922189712524,None,,,,,,,,,,,,,,,,,,97,6,2025-02-24_13h18.49.109,comp,2024.2.4,43.6836590796893,2025-02-24 13h24.06.808627 -0500,
11,11,0,critical,dwh,35.0,2.1,lower,70.0,70.0,57.0,133.0,133.0,57.0,2,2.5736258029937744,None,,,,,0,0,0,0,0,11,11,4,95.48929810523987,,,,,,,,,,,,,,,,,,,,,,,,,,,,,,,,,,,,,,,,,,,,,,,,,,,,,,,,,,,,,,,,,,,,,,,,,,,,,,,,,70.0,70.0,57.0,133.0,133.0,57.0,2.1,2.11,-198,253,0,280,191,-271,95.47398233413696,95.47405815124512,95.47756862640381,95.48929810523987,95.6334114074707,95.6334114074707,95.6334114074707,95.6334114074707,95.6334114074707,95.6334114074707,95.6334114074707,98.07221937179565,2,2.5736258029937744,None,,,,,,,,,,,,,,,,,,97,6,2025-02-24_13h18.49.109,comp,2024.2.4,43.6836590796893,2025-02-24 13h24.06.808627 -0500,
12,12,0,critical,dhw,20.0,2.1,lower,78.0,78.0,133.0,57.0,57.0,133.0,3,3.057373046875,None,,,,,0,0,0,0,0,12,12,26,98.09305095672607,,,,,,,,,,,,,,,,,,,,,,,,,,,,,,,,,,,,,,,,,,,,,,,,,,,,,,,,,,,,,,,,,,,,,,,,,,,,,,,,,78.0,78.0,133.0,57.0,57.0,133.0,2.1,2.12,-164,-288,0,-261,191,266,98.07426333427429,98.07436227798462,98.07739973068237,98.09305095672607,98.23459434509277,98.23459434509277,98.23459434509277,98.23459434509277,98.23459434509277,98.23459434509277,98.23459434509277,101.15961647033691,3,3.057373046875,None,,,,,,,,,,,,,,,,,,97,6,2025-02-24_13h18.49.109,comp,2024.2.4,43.6836590796893,2025-02-24 13h24.06.808627 -0500,
13,13,0,critical,whd,20.0,2.1,lower,57.0,133.0,133.0,57.0,78.0,78.0,1,4.407573699951172,None,,,,,0,0,0,0,0,13,13,14,101.17589664459229,,,,,,,,,,,,,,,,,,,,,,,,,,,,,,,,,,,,,,,,,,,,,,,,,,,,,,,,,,,,,,,,,,,,,,,,,,,,,,,,,57.0,133.0,133.0,57.0,78.0,78.0,2.1,2.12,-191,-273,0,-285,164,257,101.16116833686829,101.16124677658081,101.16429543495178,101.17589664459229,101.32306385040283,101.32306385040283,101.32306385040283,101.32306385040283,101.32306385040283,101.32306385040283,101.32306385040283,105.58618021011353,1,4.407573699951172,None,,,,,,,,,,,,,,,,,,97,6,2025-02-24_13h18.49.109,comp,2024.2.4,43.6836590796893,2025-02-24 13h24.06.808627 -0500,
14,14,0,filler_random,None,None,None,None,None,None,None,None,None,None,3,3.5153915882110596,None,,,,,0,0,0,0,0,14,14,151,105.60306763648987,,,,,,,,,,,,,,,,,,,,,,,,,,,,,,,,,,,,,,,,,,,,,,,,,,,,,,,,,,,,,,,,,,,,,,,,,,,,,,,,,69.24281422488956,145.98948151780556,75.93231150528268,82.50952307275284,144.48481098695112,120.02075578754426,2.1,2.11,-210,281,0,287,197,-273,105.58818888664246,105.58827614784241,105.59223461151123,105.60306763648987,105.75302505493164,105.75302505493164,105.75302505493164,105.75302505493164,105.75302505493164,105.75302505493164,105.75302505493164,109.12057638168335,3,3.5153915882110596,None,,,,,,,,,,,,,,,,,,97,6,2025-02-24_13h18.49.109,comp,2024.2.4,43.6836590796893,2025-02-24 13h24.06.808627 -0500,
15,15,0,filler_square,None,None,None,None,None,None,None,None,None,None,2,2.493579387664795,None,,,,,0,0,0,0,0,15,15,192,109.1375629901886,,,,,,,,,,,,,,,,,,,,,,,,,,,,,,,,,,,,,,,,,,,,,,,,,,,,,,,,,,,,,,,,,,,,,,,,,,,,,,,,,140.81497806767555,132.5901854859619,174.60575005581393,174.60575005581393,162.4026545514024,130.7778356961373,4.0,4.2,-250,-9,0,-268,249,-14,109.122394323349,109.12250876426697,109.12609076499939,109.1375629901886,109.28847122192383,109.28847122192383,109.28847122192383,109.28847122192383,109.28847122192383,109.28847122192383,109.28847122192383,111.6395537853241,2,2.493579387664795,None,,,,,,,,,,,,,,,,,,97,6,2025-02-24_13h18.49.109,comp,2024.2.4,43.6836590796893,2025-02-24 13h24.06.808627 -0500,
16,16,0,critical,wdh,35.0,2.1,upper,125.0,200.0,127.0,127.0,200.0,125.0,1,2.183218240737915,None,,,,,0,0,0,0,0,16,16,9,111.65539836883545,,,,,,,,,,,,,,,,,,,,,,,,,,,,,,,,,,,,,,,,,,,,,,,,,,,,,,,,,,,,,,,,,,,,,,,,,,,,,,,,,125.0,200.0,127.0,127.0,200.0,125.0,2.1,2.12,-260,-284,0,-253,222,282,111.64128279685974,111.6413996219635,111.64479207992554,111.65539836883545,111.80387997627258,111.80387997627258,111.80387997627258,111.80387997627258,111.80387997627258,111.80387997627258,111.80387997627258,113.85439920425415,1,2.183218240737915,None,,,,,,,,,,,,,,,,,,97,6,2025-02-24_13h18.49.109,comp,2024.2.4,43.6836590796893,2025-02-24 13h24.06.808627 -0500,
17,17,0,filler_square,None,None,None,None,None,None,None,None,None,None,2,1.5356793403625488,None,,,,,0,0,0,0,0,17,17,202,113.87095284461975,,,,,,,,,,,,,,,,,,,,,,,,,,,,,,,,,,,,,,,,,,,,,,,,,,,,,,,,,,,,,,,,,,,,,,,,,,,,,,,,,89.3970373354572,78.18855128139893,151.7776419632553,151.7776419632553,82.37826626076438,98.00043072823635,2.2,2.21,-211,-271,0,259,221,253,113.85620927810669,113.85628414154053,113.85964941978455,113.87095284461975,114.01251769065857,114.01251769065857,114.01251769065857,114.01251769065857,114.01251769065857,114.01251769065857,114.01251769065857,115.42238855361938,2,1.5356793403625488,None,,,,,,,,,,,,,,,,,,97,6,2025-02-24_13h18.49.109,comp,2024.2.4,43.6836590796893,2025-02-24 13h24.06.808627 -0500,
18,18,0,filler_random,None,None,None,None,None,None,None,None,None,None,2,1.7133598327636719,None,,,,,0,0,0,0,0,18,18,149,115.43857192993164,,,,,,,,,,,,,,,,,,,,,,,,,,,,,,,,,,,,,,,,,,,,,,,,,,,,,,,,,,,,,,,,,,,,,,,,,,,,,,,,,149.19391810647767,70.86834821147565,185.9498178225827,164.10478078729398,78.3838941371079,64.0002198393907,2.2,2.22,-213,282,0,-281,210,-250,115.4245011806488,115.42458152770996,115.42825531959534,115.43857192993164,115.59114670753479,115.59114670753479,115.59114670753479,115.59114670753479,115.59114670753479,115.59114670753479,115.59114670753479,117.1568033695221,2,1.7133598327636719,None,,,,,,,,,,,,,,,,,,97,6,2025-02-24_13h18.49.109,comp,2024.2.4,43.6836590796893,2025-02-24 13h24.06.808627 -0500,
19,19,0,filler_random,None,None,None,None,None,None,None,None,None,None,2,2.065983772277832,None,,,,,0,0,0,0,0,19,19,146,117.17316198348999,,,,,,,,,,,,,,,,,,,,,,,,,,,,,,,,,,,,,,,,,,,,,,,,,,,,,,,,,,,,,,,,,,,,,,,,,,,,,,,,,72.4860908326748,118.82374075025136,192.03326304531552,83.10017696998409,82.18137846210789,64.14410906203685,2.2,2.22,-197,258,0,-273,170,-270,117.15846824645996,117.1585476398468,117.16255807876587,117.17316198348999,117.322838306427,117.322838306427,117.322838306427,117.322838306427,117.322838306427,117.322838306427,117.322838306427,119.24142813682556,2,2.065983772277832,None,,,,,,,,,,,,,,,,,,97,6,2025-02-24_13h18.49.109,comp,2024.2.4,43.6836590796893,2025-02-24 13h24.06.808627 -0500,
20,20,0,filler_square,None,None,None,None,None,None,None,None,None,None,1,2.46059513092041,None,,,,,0,0,0,0,0,20,20,198,119.25837087631226,,,,,,,,,,,,,,,,,,,,,,,,,,,,,,,,,,,,,,,,,,,,,,,,,,,,,,,,,,,,,,,,,,,,,,,,,,,,,,,,,181.5910252040741,181.5910252040741,149.64483340739335,117.26631000529889,165.58051199605652,135.23455377570238,4.0,4.2,-245,-6,0,-254,222,4,119.24329686164856,119.24351358413696,119.24668025970459,119.25837087631226,119.40747618675232,119.40747618675232,119.40747618675232,119.40747618675232,119.40747618675232,119.40747618675232,119.40747618675232,121.72653913497925,1,2.46059513092041,None,,,,,,,,,,,,,,,,,,97,6,2025-02-24_13h18.49.109,comp,2024.2.4,43.6836590796893,2025-02-24 13h24.06.808627 -0500,
21,21,0,critical,wdh,20.0,3.0,lower,57.0,133.0,78.0,78.0,133.0,57.0,1,6.829426288604736,None,,,,,0,0,0,0,0,21,21,80,121.74454474449158,,,,,,,,,,,,,,,,,,,,,,,,,,,,,,,,,,,,,,,,,,,,,,,,,,,,,,,,,,,,,,,,,,,,,,,,,,,,,,,,,57.0,133.0,78.0,78.0,133.0,57.0,3.0,3.2,-202,-280,0,-19,164,280,121.72812604904175,121.72820591926575,121.73150324821472,121.74454474449158,121.8954210281372,121.8954210281372,121.8954210281372,121.8954210281372,121.8954210281372,121.8954210281372,121.8954210281372,128.59021735191345,1,6.829426288604736,None,,,,,,,,,,,,,,,,,,97,6,2025-02-24_13h18.49.109,comp,2024.2.4,43.6836590796893,2025-02-24 13h24.06.808627 -0500,
22,22,0,critical,hwd,20.0,2.1,upper,200.0,125.0,125.0,200.0,141.0,141.0,2,1.9358582496643066,None,,,,,0,0,0,0,0,22,22,19,128.60680770874023,,,,,,,,,,,,,,,,,,,,,,,,,,,,,,,,,,,,,,,,,,,,,,,,,,,,,,,,,,,,,,,,,,,,,,,,,,,,,,,,,200.0,125.0,125.0,200.0,141.0,141.0,2.1,2.11,-258,252,0,257,266,-268,128.59066343307495,128.59068322181702,128.59147095680237,128.60680770874023,128.74427723884583,128.74427723884583,128.74427723884583,128.74427723884583,128.74427723884583,128.74427723884583,128.74427723884583,130.55026841163635,2,1.9358582496643066,None,,,,,,,,,,,,,,,,,,97,6,2025-02-24_13h18.49.109,comp,2024.2.4,43.6836590796893,2025-02-24 13h24.06.808627 -0500,
23,23,0,filler_square,None,None,None,None,None,None,None,None,None,None,3,1.0641884803771973,None,,,,,0,0,0,0,0,23,23,188,130.56653547286987,,,,,,,,,,,,,,,,,,,,,,,,,,,,,,,,,,,,,,,,,,,,,,,,,,,,,,,,,,,,,,,,,,,,,,,,,,,,,,,,,126.2831385999281,59.93570925870166,102.17331795063049,97.39853455152749,149.44066487850804,149.44066487850804,1.0,1.2,-175,18,0,1,219,12,130.5520715713501,130.55216240882874,130.55562138557434,130.56653547286987,130.71071219444275,130.71071219444275,130.71071219444275,130.71071219444275,130.71071219444275,130.71071219444275,130.71071219444275,131.64445757865906,3,1.0641884803771973,None,,,,,,,,,,,,,,,,,,97,6,2025-02-24_13h18.49.109,comp,2024.2.4,43.6836590796893,2025-02-24 13h24.06.808627 -0500,
24,24,0,critical,wdh,20.0,2.1,upper,125.0,200.0,141.0,141.0,200.0,125.0,1,1.5700452327728271,None,,,,,0,0,0,0,0,24,24,11,131.66064381599426,,,,,,,,,,,,,,,,,,,,,,,,,,,,,,,,,,,,,,,,,,,,,,,,,,,,,,,,,,,,,,,,,,,,,,,,,,,,,,,,,125.0,200.0,141.0,141.0,200.0,125.0,2.1,2.11,-266,268,0,280,229,-255,131.6460485458374,131.64612889289856,131.65038132667542,131.66064381599426,131.82079696655273,131.82079696655273,131.82079696655273,131.82079696655273,131.82079696655273,131.82079696655273,131.82079696655273,133.24518871307373,1,1.5700452327728271,None,,,,,,,,,,,,,,,,,,97,6,2025-02-24_13h18.49.109,comp,2024.2.4,43.6836590796893,2025-02-24 13h24.06.808627 -0500,
25,25,0,critical,hdw,20.0,2.1,lower,133.0,57.0,78.0,78.0,57.0,133.0,1,1.776364803314209,None,,,,,0,0,0,0,0,25,25,22,133.26266741752625,,,,,,,,,,,,,,,,,,,,,,,,,,,,,,,,,,,,,,,,,,,,,,,,,,,,,,,,,,,,,,,,,,,,,,,,,,,,,,,,,133.0,57.0,78.0,78.0,57.0,133.0,2.1,2.11,-164,285,0,278,202,-289,133.24674558639526,133.24682664871216,133.24992632865906,133.26266741752625,133.41168093681335,133.41168093681335,133.41168093681335,133.41168093681335,133.41168093681335,133.41168093681335,133.41168093681335,135.04652285575867,1,1.776364803314209,None,,,,,,,,,,,,,,,,,,97,6,2025-02-24_13h18.49.109,comp,2024.2.4,43.6836590796893,2025-02-24 13h24.06.808627 -0500,
26,26,0,critical,hwd,35.0,2.1,lower,133.0,57.0,57.0,133.0,70.0,70.0,1,5.376211643218994,None,,,,,0,0,0,0,0,26,26,16,135.06295609474182,,,,,,,,,,,,,,,,,,,,,,,,,,,,,,,,,,,,,,,,,,,,,,,,,,,,,,,,,,,,,,,,,,,,,,,,,,,,,,,,,133.0,57.0,57.0,133.0,70.0,70.0,2.1,2.12,-191,-272,0,-269,198,258,135.04826617240906,135.04843163490295,135.0520839691162,135.06295609474182,135.21245288848877,135.21245288848877,135.21245288848877,135.21245288848877,135.21245288848877,135.21245288848877,135.21245288848877,140.4505352973938,1,5.376211643218994,None,,,,,,,,,,,,,,,,,,97,6,2025-02-24_13h18.49.109,comp,2024.2.4,43.6836590796893,2025-02-24 13h24.06.808627 -0500,
27,27,0,filler_random,None,None,None,None,None,None,None,None,None,None,1,1.5636825561523438,None,,,,,0,0,0,0,0,27,27,138,140.46680545806885,,,,,,,,,,,,,,,,,,,,,,,,,,,,,,,,,,,,,,,,,,,,,,,,,,,,,,,,,,,,,,,,,,,,,,,,,,,,,,,,,136.46789694592417,117.37320941818572,96.59457984074226,87.55044093119449,111.92792866356842,109.27508621934672,2.1,2.11,-198,259,0,270,194,-268,140.4527735710144,140.4529049396515,140.45603442192078,140.46680545806885,140.61915278434753,140.61915278434753,140.61915278434753,140.61915278434753,140.61915278434753,140.61915278434753,140.61915278434753,142.04746341705322,1,1.5636825561523438,None,,,,,,,,,,,,,,,,,,97,6,2025-02-24_13h18.49.109,comp,2024.2.4,43.6836590796893,2025-02-24 13h24.06.808627 -0500,
28,28,0,critical,whd,20.0,4.0,lower,57.0,133.0,133.0,57.0,78.0,78.0,2,3.095675230026245,None,,,,,0,0,0,0,0,28,28,94,142.06357192993164,,,,,,,,,,,,,,,,,,,,,,,,,,,,,,,,,,,,,,,,,,,,,,,,,,,,,,,,,,,,,,,,,,,,,,,,,,,,,,,,,57.0,133.0,133.0,57.0,78.0,78.0,4.0,4.1,-191,-251,0,17,164,-254,142.04897022247314,142.04904556274414,142.05332159996033,142.06357192993164,142.2125301361084,142.2125301361084,142.2125301361084,142.2125301361084,142.2125301361084,142.2125301361084,142.2125301361084,145.16898488998413,2,3.095675230026245,None,,,,,,,,,,,,,,,,,,97,6,2025-02-24_13h18.49.109,comp,2024.2.4,43.6836590796893,2025-02-24 13h24.06.808627 -0500,
29,29,0,filler_random,None,None,None,None,None,None,None,None,None,None,3,1.5228090286254883,None,,,,,0,0,0,0,0,29,29,142,145.18806076049805,,,,,,,,,,,,,,,,,,,,,,,,,,,,,,,,,,,,,,,,,,,,,,,,,,,,,,,,,,,,,,,,,,,,,,,,,,,,,,,,,57.436483378067976,150.60193235868155,144.9832573566365,69.71175636565718,193.40505883837636,114.1713766306935,1.0,1.3,274,-279,480,-273,668,-272,145.17106103897095,145.1711404323578,145.17488813400269,145.18806076049805,145.33269143104553,145.33269143104553,145.33269143104553,145.33269143104553,145.33269143104553,145.33269143104553,145.33269143104553,146.71447038650513,3,1.5228090286254883,None,,,,,,,,,,,,,,,,,,97,6,2025-02-24_13h18.49.109,comp,2024.2.4,43.6836590796893,2025-02-24 13h24.06.808627 -0500,
30,30,0,filler_random,None,None,None,None,None,None,None,None,None,None,3,1.3086223602294922,None,,,,,0,0,0,0,0,30,30,147,146.73157262802124,,,,,,,,,,,,,,,,,,,,,,,,,,,,,,,,,,,,,,,,,,,,,,,,,,,,,,,,,,,,,,,,,,,,,,,,,,,,,,,,,141.03181445007752,118.28730581219301,139.39407756248931,148.2132836060567,165.02740464944534,176.59450797334347,3.0,3.1,-229,252,0,-7,258,-253,146.71636724472046,146.71650576591492,146.7199103832245,146.73157262802124,146.894047498703,146.894047498703,146.894047498703,146.894047498703,146.894047498703,146.894047498703,146.894047498703,148.05046010017395,3,1.3086223602294922,None,,,,,,,,,,,,,,,,,,97,6,2025-02-24_13h18.49.109,comp,2024.2.4,43.6836590796893,2025-02-24 13h24.06.808627 -0500,
31,31,0,critical,hwd,35.0,1.0,upper,200.0,125.0,125.0,200.0,127.0,127.0,2,2.3085110187530518,None,,,,,0,0,0,0,0,31,31,97,148.06670260429382,,,,,,,,,,,,,,,,,,,,,,,,,,,,,,,,,,,,,,,,,,,,,,,,,,,,,,,,,,,,,,,,,,,,,,,,,,,,,,,,,200.0,125.0,125.0,200.0,127.0,127.0,1.0,1.2,-258,-16,0,-19,260,-3,148.05206823349,148.05219745635986,148.0559642314911,148.06670260429382,148.2162811756134,148.2162811756134,148.2162811756134,148.2162811756134,148.2162811756134,148.2162811756134,148.2162811756134,150.381667137146,2,2.3085110187530518,None,,,,,,,,,,,,,,,,,,97,6,2025-02-24_13h18.49.109,comp,2024.2.4,43.6836590796893,2025-02-24 13h24.06.808627 -0500,
32,32,0,catch,None,None,None,None,None,None,None,None,None,None,1,1.4807612895965576,None,,,,,0,0,0,0,0,32,32,121,150.39812779426575,,,,,,,,,,,,,,,,,,,,,,,,,,,,,,,,,,,,,,,,,,,,,,,,,,,,,,,,,,,,,,,,,,,,,,,,,,,,,,,,,194,131,95,95,58,132,1.0,1.2,-209,13,0,-8,210,4,150.38360261917114,150.3836851119995,150.3867769241333,150.39812779426575,150.54872870445251,150.54872870445251,150.54872870445251,150.54872870445251,150.54872870445251,150.54872870445251,150.54872870445251,151.8810658454895,1,1.4807612895965576,None,,,,,,,,,,,,,,,,,,97,6,2025-02-24_13h18.49.109,comp,2024.2.4,43.6836590796893,2025-02-24 13h24.06.808627 -0500,
33,33,0,filler_random,None,None,None,None,None,None,None,None,None,None,3,1.5566349029541016,None,,,,,0,0,0,0,0,33,33,131,151.8980691432953,,,,,,,,,,,,,,,,,,,,,,,,,,,,,,,,,,,,,,,,,,,,,,,,,,,,,,,,,,,,,,,,,,,,,,,,,,,,,,,,,73.41133942961261,95.36696740061618,73.32806724684836,93.08034182227189,182.87029111583684,123.91561329658231,2.1,2.11,-190,285,0,253,204,-260,151.8829264640808,151.88303565979004,151.88640832901,151.8980691432953,152.03356313705444,152.03356313705444,152.03356313705444,152.03356313705444,152.03356313705444,152.03356313705444,152.03356313705444,153.4691526889801,3,1.5566349029541016,None,,,,,,,,,,,,,,,,,,97,6,2025-02-24_13h18.49.109,comp,2024.2.4,43.6836590796893,2025-02-24 13h24.06.808627 -0500,
34,34,0,critical,dhw,35.0,3.0,upper,127.0,127.0,200.0,125.0,125.0,200.0,3,2.6488194465637207,None,,,,,0,0,0,0,0,34,34,51,153.48567295074463,,,,,,,,,,,,,,,,,,,,,,,,,,,,,,,,,,,,,,,,,,,,,,,,,,,,,,,,,,,,,,,,,,,,,,,,,,,,,,,,,127.0,127.0,200.0,125.0,125.0,200.0,3.0,3.2,-222,-284,0,-3,258,288,153.47086381912231,153.47096180915833,153.4749629497528,153.48567295074463,153.6329345703125,153.6329345703125,153.6329345703125,153.6329345703125,153.6329345703125,153.6329345703125,153.6329345703125,156.14446258544922,3,2.6488194465637207,None,,,,,,,,,,,,,,,,,,97,6,2025-02-24_13h18.49.109,comp,2024.2.4,43.6836590796893,2025-02-24 13h24.06.808627 -0500,
35,35,0,filler_square,None,None,None,None,None,None,None,None,None,None,3,1.8612473011016846,None,,,,,0,0,0,0,0,35,35,174,156.1612045764923,,,,,,,,,,,,,,,,,,,,,,,,,,,,,,,,,,,,,,,,,,,,,,,,,,,,,,,,,,,,,,,,,,,,,,,,,,,,,,,,,62.07308264889249,60.7621161768588,101.84119669849721,68.19405368871556,105.4234900345033,105.4234900345033,3.0,3.2,-160,-265,0,10,183,259,156.1464807987213,156.14656138420105,156.15000081062317,156.1612045764923,156.29890632629395,156.29890632629395,156.29890632629395,156.29890632629395,156.29890632629395,156.29890632629395,156.29890632629395,158.03689193725586,3,1.8612473011016846,None,,,,,,,,,,,,,,,,,,97,6,2025-02-24_13h18.49.109,comp,2024.2.4,43.6836590796893,2025-02-24 13h24.06.808627 -0500,
36,36,0,critical,dhw,20.0,2.1,upper,141.0,141.0,200.0,125.0,125.0,200.0,3,2.2339136600494385,None,,,,,0,0,0,0,0,36,36,27,158.05257391929626,,,,,,,,,,,,,,,,,,,,,,,,,,,,,,,,,,,,,,,,,,,,,,,,,,,,,,,,,,,,,,,,,,,,,,,,,,,,,,,,,141.0,141.0,200.0,125.0,125.0,200.0,2.1,2.11,-229,260,0,287,258,-289,158.03838872909546,158.03846740722656,158.04226160049438,158.05257391929626,158.2078332901001,158.2078332901001,158.2078332901001,158.2078332901001,158.2078332901001,158.2078332901001,158.2078332901001,160.30281162261963,3,2.2339136600494385,None,,,,,,,,,,,,,,,,,,97,6,2025-02-24_13h18.49.109,comp,2024.2.4,43.6836590796893,2025-02-24 13h24.06.808627 -0500,
37,37,0,critical,hdw,20.0,2.1,upper,200.0,125.0,141.0,141.0,125.0,200.0,3,1.7919797897338867,None,,,,,0,0,0,0,0,37,37,47,160.31853556632996,,,,,,,,,,,,,,,,,,,,,,,,,,,,,,,,,,,,,,,,,,,,,,,,,,,,,,,,,,,,,,,,,,,,,,,,,,,,,,,,,200.0,125.0,141.0,141.0,125.0,200.0,2.1,2.12,-229,-288,0,-265,266,278,160.30441975593567,160.3045151233673,160.3081774711609,160.31853556632996,160.46851181983948,160.46851181983948,160.46851181983948,160.46851181983948,160.46851181983948,160.46851181983948,160.46851181983948,162.12746405601501,3,1.7919797897338867,None,,,,,,,,,,,,,,,,,,97,6,2025-02-24_13h18.49.109,comp,2024.2.4,43.6836590796893,2025-02-24 13h24.06.808627 -0500,
38,38,0,filler_square,None,None,None,None,None,None,None,None,None,None,1,3.6853020191192627,None,,,,,0,0,0,0,0,38,38,173,162.14516496658325,,,,,,,,,,,,,,,,,,,,,,,,,,,,,,,,,,,,,,,,,,,,,,,,,,,,,,,,,,,,,,,,,,,,,,,,,,,,,,,,,106.83954270869324,106.83954270869324,72.96071226164399,84.63548065906788,79.77359562535875,98.69469702888293,3.0,3.1,-192,276,0,-5,188,-289,162.12920498847961,162.1292793750763,162.13248372077942,162.14516496658325,162.2873957157135,162.2873957157135,162.2873957157135,162.2873957157135,162.2873957157135,162.2873957157135,162.2873957157135,165.84413814544678,1,3.6853020191192627,None,,,,,,,,,,,,,,,,,,97,6,2025-02-24_13h18.49.109,comp,2024.2.4,43.6836590796893,2025-02-24 13h24.06.808627 -0500,
39,39,0,critical,whd,20.0,2.1,upper,125.0,200.0,200.0,125.0,141.0,141.0,2,5.222092151641846,None,,,,,0,0,0,0,0,39,39,15,165.86445689201355,,,,,,,,,,,,,,,,,,,,,,,,,,,,,,,,,,,,,,,,,,,,,,,,,,,,,,,,,,,,,,,,,,,,,,,,,,,,,,,,,125.0,200.0,200.0,125.0,141.0,141.0,2.1,2.11,-258,280,0,262,229,-270,165.84565615653992,165.84573245048523,165.84873127937317,165.86445689201355,166.00969552993774,166.00969552993774,166.00969552993774,166.00969552993774,166.00969552993774,166.00969552993774,166.00969552993774,171.0908441543579,2,5.222092151641846,None,,,,,,,,,,,,,,,,,,97,6,2025-02-24_13h18.49.109,comp,2024.2.4,43.6836590796893,2025-02-24 13h24.06.808627 -0500,
40,40,0,critical,wdh,20.0,2.1,lower,57.0,133.0,78.0,78.0,133.0,57.0,1,3.003319501876831,None,,,,,0,0,0,0,0,40,40,34,171.10722994804382,,,,,,,,,,,,,,,,,,,,,,,,,,,,,,,,,,,,,,,,,,,,,,,,,,,,,,,,,,,,,,,,,,,,,,,,,,,,,,,,,57.0,133.0,78.0,78.0,133.0,57.0,2.1,2.12,-202,-261,0,-276,164,266,171.09252429008484,171.09264302253723,171.09636807441711,171.10722994804382,171.2615761756897,171.2615761756897,171.2615761756897,171.2615761756897,171.2615761756897,171.2615761756897,171.2615761756897,174.1240508556366,1,3.003319501876831,None,,,,,,,,,,,,,,,,,,97,6,2025-02-24_13h18.49.109,comp,2024.2.4,43.6836590796893,2025-02-24 13h24.06.808627 -0500,
41,41,0,filler_square,None,None,None,None,None,None,None,None,None,None,2,3.1452865600585938,None,,,,,0,0,0,0,0,41,41,191,174.1412193775177,,,,,,,,,,,,,,,,,,,,,,,,,,,,,,,,,,,,,,,,,,,,,,,,,,,,,,,,,,,,,,,,,,,,,,,,,,,,,,,,,65.90157570636221,57.23524999991472,95.50752399851339,95.50752399851339,72.93235081104494,78.22756098942912,3.0,3.1,-172,251,0,-10,183,-255,174.1260941028595,174.12617230415344,174.13004446029663,174.1412193775177,174.28998255729675,174.28998255729675,174.28998255729675,174.28998255729675,174.28998255729675,174.28998255729675,174.28998255729675,177.29896664619446,2,3.1452865600585938,None,,,,,,,,,,,,,,,,,,97,6,2025-02-24_13h18.49.109,comp,2024.2.4,43.6836590796893,2025-02-24 13h24.06.808627 -0500,
42,42,0,critical,hdw,35.0,4.0,upper,200.0,125.0,127.0,127.0,125.0,200.0,3,9.268303155899048,None,,,,,0,0,0,0,0,42,42,113,177.31414771080017,,,,,,,,,,,,,,,,,,,,,,,,,,,,,,,,,,,,,,,,,,,,,,,,,,,,,,,,,,,,,,,,,,,,,,,,,,,,,,,,,200.0,125.0,127.0,127.0,125.0,200.0,4.0,4.1,-222,-266,0,-9,260,-286,177.3004915714264,177.30056738853455,177.30361795425415,177.31414771080017,177.45849084854126,177.45849084854126,177.45849084854126,177.45849084854126,177.45849084854126,177.45849084854126,177.45849084854126,186.59623956680298,3,9.268303155899048,None,,,,,,,,,,,,,,,,,,97,6,2025-02-24_13h18.49.109,comp,2024.2.4,43.6836590796893,2025-02-24 13h24.06.808627 -0500,
43,43,0,critical,dwh,35.0,2.1,lower,70.0,70.0,57.0,133.0,133.0,57.0,2,1.9809367656707764,None,,,,,0,0,0,0,0,43,43,28,186.617573261261,,,,,,,,,,,,,,,,,,,,,,,,,,,,,,,,,,,,,,,,,,,,,,,,,,,,,,,,,,,,,,,,,,,,,,,,,,,,,,,,,70.0,70.0,57.0,133.0,133.0,57.0,2.1,2.12,-198,-259,0,-286,191,252,186.5978662967682,186.59794759750366,186.60119485855103,186.617573261261,186.7619972229004,186.7619972229004,186.7619972229004,186.7619972229004,186.7619972229004,186.7619972229004,186.7619972229004,188.61169695854187,2,1.9809367656707764,None,,,,,,,,,,,,,,,,,,97,6,2025-02-24_13h18.49.109,comp,2024.2.4,43.6836590796893,2025-02-24 13h24.06.808627 -0500,
44,44,0,critical,wdh,35.0,2.1,lower,57.0,133.0,70.0,70.0,133.0,57.0,1,2.1421282291412354,None,,,,,0,0,0,0,0,44,44,8,188.62694382667542,,,,,,,,,,,,,,,,,,,,,,,,,,,,,,,,,,,,,,,,,,,,,,,,,,,,,,,,,,,,,,,,,,,,,,,,,,,,,,,,,57.0,133.0,70.0,70.0,133.0,57.0,2.1,2.11,-198,286,0,259,160,-274,188.61324310302734,188.61332273483276,188.61672139167786,188.62694382667542,188.77842783927917,188.77842783927917,188.77842783927917,188.77842783927917,188.77842783927917,188.77842783927917,188.77842783927917,190.7807333469391,1,2.1421282291412354,None,,,,,,,,,,,,,,,,,,97,6,2025-02-24_13h18.49.109,comp,2024.2.4,43.6836590796893,2025-02-24 13h24.06.808627 -0500,
45,45,0,filler_square,None,None,None,None,None,None,None,None,None,None,3,3.5616812705993652,None,,,,,0,0,0,0,0,45,45,183,190.79678559303284,,,,,,,,,,,,,,,,,,,,,,,,,,,,,,,,,,,,,,,,,,,,,,,,,,,,,,,,,,,,,,,,,,,,,,,,,,,,,,,,,150.59098846174624,96.3058789336073,188.29559722924802,163.7462050851111,193.7759743628777,193.7759743628777,1.0,1.2,-226,-8,0,12,275,-7,190.78275156021118,190.78283762931824,190.78619289398193,190.79678559303284,190.9438817501068,190.9438817501068,190.9438817501068,190.9438817501068,190.9438817501068,190.9438817501068,190.9438817501068,194.3712227344513,3,3.5616812705993652,None,,,,,,,,,,,,,,,,,,97,6,2025-02-24_13h18.49.109,comp,2024.2.4,43.6836590796893,2025-02-24 13h24.06.808627 -0500,
46,46,0,catch,None,None,None,None,None,None,None,None,None,None,3,2.2911038398742676,None,,,,,0,0,0,0,0,46,46,129,194.38752222061157,,,,,,,,,,,,,,,,,,,,,,,,,,,,,,,,,,,,,,,,,,,,,,,,,,,,,,,,,,,,,,,,,,,,,,,,,,,,,,,,,115,75,116,74,143,182,3.0,3.1,-170,284,0,16,224,-267,194.37314081192017,194.37322235107422,194.3762867450714,194.38752222061157,194.53426337242126,194.53426337242126,194.53426337242126,194.53426337242126,194.53426337242126,194.53426337242126,194.53426337242126,196.69601583480835,3,2.2911038398742676,None,,,,,,,,,,,,,,,,,,97,6,2025-02-24_13h18.49.109,comp,2024.2.4,43.6836590796893,2025-02-24 13h24.06.808627 -0500,
47,47,0,filler_random,None,None,None,None,None,None,None,None,None,None,1,1.6428067684173584,None,,,,,0,0,0,0,0,47,47,150,196.71614861488342,,,,,,,,,,,,,,,,,,,,,,,,,,,,,,,,,,,,,,,,,,,,,,,,,,,,,,,,,,,,,,,,,,,,,,,,,,,,,,,,,180.96289172336049,118.11901501331889,90.35110211724032,64.03479211264126,125.05093486552337,79.24395230866858,3.0,3.1,-187,284,0,-16,168,-255,196.6977038383484,196.69777917861938,196.70090699195862,196.71614861488342,196.86456084251404,196.86456084251404,196.86456084251404,196.86456084251404,196.86456084251404,196.86456084251404,196.86456084251404,198.36230874061584,1,1.6428067684173584,None,,,,,,,,,,,,,,,,,,97,6,2025-02-24_13h18.49.109,comp,2024.2.4,43.6836590796893,2025-02-24 13h24.06.808627 -0500,
48,48,0,filler_square,None,None,None,None,None,None,None,None,None,None,1,1.476212739944458,None,,,,,0,0,0,0,0,48,48,181,198.37841272354126,,,,,,,,,,,,,,,,,,,,,,,,,,,,,,,,,,,,,,,,,,,,,,,,,,,,,,,,,,,,,,,,,,,,,,,,,,,,,,,,,153.61674639892937,153.61674639892937,153.08246460514573,114.64659286718165,124.14970478438737,71.48525329043511,3.0,3.2,-230,-285,0,-8,189,283,198.36409759521484,198.36417889595032,198.3672227859497,198.37841272354126,198.53014516830444,198.53014516830444,198.53014516830444,198.53014516830444,198.53014516830444,198.53014516830444,198.53014516830444,199.86578154563904,1,1.476212739944458,None,,,,,,,,,,,,,,,,,,97,6,2025-02-24_13h18.49.109,comp,2024.2.4,43.6836590796893,2025-02-24 13h24.06.808627 -0500,
49,49,0,critical,whd,35.0,2.1,lower,57.0,133.0,133.0,57.0,70.0,70.0,1,2.4113576412200928,None,,,,,0,0,0,0,0,49,49,36,199.88340759277344,,,,,,,,,,,,,,,,,,,,,,,,,,,,,,,,,,,,,,,,,,,,,,,,,,,,,,,,,,,,,,,,,,,,,,,,,,,,,,,,,57.0,133.0,133.0,57.0,70.0,70.0,2.1,2.12,-191,-251,0,-268,160,282,199.8672637939453,199.86737155914307,199.87044191360474,199.88340759277344,200.03204703330994,200.03204703330994,200.03204703330994,200.03204703330994,200.03204703330994,200.03204703330994,200.03204703330994,202.29938387870789,1,2.4113576412200928,None,,,,,,,,,,,,,,,,,,97,6,2025-02-24_13h18.49.109,comp,2024.2.4,43.6836590796893,2025-02-24 13h24.06.808627 -0500,
50,50,0,filler_random,None,None,None,None,None,None,None,None,None,None,2,2.611907958984375,None,,,,,0,0,0,0,0,50,50,144,202.3152892589569,,,,,,,,,,,,,,,,,,,,,,,,,,,,,,,,,,,,,,,,,,,,,,,,,,,,,,,,,,,,,,,,,,,,,,,,,,,,,,,,,77.9646592174787,199.1004497203212,123.67338038552856,198.3120847473059,175.31667131350525,154.60180174725906,1.0,1.2,-295,3,0,-20,272,1,202.30101776123047,202.301096200943,202.30461716651917,202.3152892589569,202.46473574638367,202.46473574638367,202.46473574638367,202.46473574638367,202.46473574638367,202.46473574638367,202.46473574638367,204.9387903213501,2,2.611907958984375,None,,,,,,,,,,,,,,,,,,97,6,2025-02-24_13h18.49.109,comp,2024.2.4,43.6836590796893,2025-02-24 13h24.06.808627 -0500,
51,51,0,critical,dhw,35.0,4.0,upper,127.0,127.0,200.0,125.0,125.0,200.0,3,3.0523300170898438,None,,,,,0,0,0,0,0,51,51,53,204.9552595615387,,,,,,,,,,,,,,,,,,,,,,,,,,,,,,,,,,,,,,,,,,,,,,,,,,,,,,,,,,,,,,,,,,,,,,,,,,,,,,,,,127.0,127.0,200.0,125.0,125.0,200.0,4.0,4.2,-222,-5,0,-260,258,-16,204.94042325019836,204.9405059814453,204.94454264640808,204.9552595615387,205.10183191299438,205.10183191299438,205.10183191299438,205.10183191299438,205.10183191299438,205.10183191299438,205.10183191299438,208.01689076423645,3,3.0523300170898438,None,,,,,,,,,,,,,,,,,,97,6,2025-02-24_13h18.49.109,comp,2024.2.4,43.6836590796893,2025-02-24 13h24.06.808627 -0500,
52,52,0,critical,hdw,35.0,4.0,lower,133.0,57.0,70.0,70.0,57.0,133.0,1,1.9238357543945312,None,,,,,0,0,0,0,0,52,52,112,208.03519129753113,,,,,,,,,,,,,,,,,,,,,,,,,,,,,,,,,,,,,,,,,,,,,,,,,,,,,,,,,,,,,,,,,,,,,,,,,,,,,,,,,133.0,57.0,70.0,70.0,57.0,133.0,4.0,4.1,-160,-284,0,-7,198,-258,208.0184679031372,208.01854944229126,208.02194046974182,208.03519129753113,208.18536353111267,208.18536353111267,208.18536353111267,208.18536353111267,208.18536353111267,208.18536353111267,208.18536353111267,209.96750354766846,1,1.9238357543945312,None,,,,,,,,,,,,,,,,,,97,6,2025-02-24_13h18.49.109,comp,2024.2.4,43.6836590796893,2025-02-24 13h24.06.808627 -0500,
53,53,0,critical,whd,35.0,2.1,upper,125.0,200.0,200.0,125.0,127.0,127.0,2,2.351472854614258,None,,,,,0,0,0,0,0,53,53,37,209.98396229743958,,,,,,,,,,,,,,,,,,,,,,,,,,,,,,,,,,,,,,,,,,,,,,,,,,,,,,,,,,,,,,,,,,,,,,,,,,,,,,,,,125.0,200.0,200.0,125.0,127.0,127.0,2.1,2.11,-258,272,0,284,222,-287,209.9689862728119,209.96906423568726,209.97238206863403,209.98396229743958,210.13750290870667,210.13750290870667,210.13750290870667,210.13750290870667,210.13750290870667,210.13750290870667,210.13750290870667,212.3428874015808,2,2.351472854614258,None,,,,,,,,,,,,,,,,,,97,6,2025-02-24_13h18.49.109,comp,2024.2.4,43.6836590796893,2025-02-24 13h24.06.808627 -0500,
54,54,0,filler_square,None,None,None,None,None,None,None,None,None,None,2,1.3996567726135254,None,,,,,0,0,0,0,0,54,54,190,212.35976576805115,,,,,,,,,,,,,,,,,,,,,,,,,,,,,,,,,,,,,,,,,,,,,,,,,,,,,,,,,,,,,,,,,,,,,,,,,,,,,,,,,103.2947287034736,83.82401485134231,155.56235742664404,155.56235742664404,77.3400589895599,138.13589648110883,1.0,1.2,-216,4,0,-2,243,15,212.34483432769775,212.3449125289917,212.34837794303894,212.35976576805115,212.503821849823,212.503821849823,212.503821849823,212.503821849823,212.503821849823,212.503821849823,212.503821849823,213.77054977416992,2,1.3996567726135254,None,,,,,,,,,,,,,,,,,,97,6,2025-02-24_13h18.49.109,comp,2024.2.4,43.6836590796893,2025-02-24 13h24.06.808627 -0500,
55,55,0,critical,hdw,35.0,2.1,upper,200.0,125.0,127.0,127.0,125.0,200.0,3,2.0835187435150146,None,,,,,0,0,0,0,0,55,55,21,213.78695797920227,,,,,,,,,,,,,,,,,,,,,,,,,,,,,,,,,,,,,,,,,,,,,,,,,,,,,,,,,,,,,,,,,,,,,,,,,,,,,,,,,200.0,125.0,127.0,127.0,125.0,200.0,2.1,2.12,-222,-263,0,-261,260,256,213.77216410636902,213.77227973937988,213.77625560760498,213.78695797920227,213.94119095802307,213.94119095802307,213.94119095802307,213.94119095802307,213.94119095802307,213.94119095802307,213.94119095802307,215.8870415687561,3,2.0835187435150146,None,,,,,,,,,,,,,,,,,,97,6,2025-02-24_13h18.49.109,comp,2024.2.4,43.6836590796893,2025-02-24 13h24.06.808627 -0500,
56,56,0,filler_random,None,None,None,None,None,None,None,None,None,None,2,1.3036625385284424,None,,,,,0,0,0,0,0,56,56,163,215.90288281440735,,,,,,,,,,,,,,,,,,,,,,,,,,,,,,,,,,,,,,,,,,,,,,,,,,,,,,,,,,,,,,,,,,,,,,,,,,,,,,,,,104.62094595142364,172.9294070110604,122.71265136494456,167.77910850345967,110.24904695399287,71.9745971966208,1.0,1.2,-266,-20,0,-16,216,-15,215.88879656791687,215.8888761997223,215.89262437820435,215.90288281440735,216.05643510818481,216.05643510818481,216.05643510818481,216.05643510818481,216.05643510818481,216.05643510818481,216.05643510818481,217.2098798751831,2,1.3036625385284424,None,,,,,,,,,,,,,,,,,,97,6,2025-02-24_13h18.49.109,comp,2024.2.4,43.6836590796893,2025-02-24 13h24.06.808627 -0500,
57,57,0,critical,dhw,20.0,1.0,upper,141.0,141.0,200.0,125.0,125.0,200.0,2,3.640728235244751,None,,,,,0,0,0,0,0,57,57,55,217.23024463653564,,,,,,,,,,,,,,,,,,,,,,,,,,,,,,,,,,,,,,,,,,,,,,,,,,,,,,,,,,,,,,,,,,,,,,,,,,,,,,,,,141.0,141.0,200.0,125.0,125.0,200.0,1.0,1.1,-709,256,-480,277,-222,270,217.21143794059753,217.2115159034729,217.21460342407227,217.23024463653564,217.37830138206482,217.37830138206482,217.37830138206482,217.37830138206482,217.37830138206482,217.37830138206482,217.37830138206482,220.8729956150055,2,3.640728235244751,None,,,,,,,,,,,,,,,,,,97,6,2025-02-24_13h18.49.109,comp,2024.2.4,43.6836590796893,2025-02-24 13h24.06.808627 -0500,
58,58,0,critical,dwh,20.0,2.1,lower,78.0,78.0,57.0,133.0,133.0,57.0,2,5.717333793640137,None,,,,,0,0,0,0,0,58,58,6,220.88944005966187,,,,,,,,,,,,,,,,,,,,,,,,,,,,,,,,,,,,,,,,,,,,,,,,,,,,,,,,,,,,,,,,,,,,,,,,,,,,,,,,,78.0,78.0,57.0,133.0,133.0,57.0,2.1,2.11,-202,263,0,278,191,-272,220.87454652786255,220.87462401390076,220.87875127792358,220.88944005966187,221.03665471076965,221.03665471076965,221.03665471076965,221.03665471076965,221.03665471076965,221.03665471076965,221.03665471076965,226.62682557106018,2,5.717333793640137,None,,,,,,,,,,,,,,,,,,97,6,2025-02-24_13h18.49.109,comp,2024.2.4,43.6836590796893,2025-02-24 13h24.06.808627 -0500,
59,59,0,critical,dwh,35.0,3.0,upper,127.0,127.0,125.0,200.0,200.0,125.0,2,2.1937267780303955,None,,,,,0,0,0,0,0,59,59,63,226.64532375335693,,,,,,,,,,,,,,,,,,,,,,,,,,,,,,,,,,,,,,,,,,,,,,,,,,,,,,,,,,,,,,,,,,,,,,,,,,,,,,,,,127.0,127.0,125.0,200.0,200.0,125.0,3.0,3.1,-260,287,0,-18,258,-289,226.62860536575317,226.6287407875061,226.63225674629211,226.64532375335693,226.7902271747589,226.7902271747589,226.7902271747589,226.7902271747589,226.7902271747589,226.7902271747589,226.7902271747589,228.8435878753662,2,2.1937267780303955,None,,,,,,,,,,,,,,,,,,97,6,2025-02-24_13h18.49.109,comp,2024.2.4,43.6836590796893,2025-02-24 13h24.06.808627 -0500,
60,60,0,critical,hwd,35.0,2.1,lower,133.0,57.0,57.0,133.0,70.0,70.0,2,3.778580665588379,None,,,,,0,0,0,0,0,60,60,40,228.8601152896881,,,,,,,,,,,,,,,,,,,,,,,,,,,,,,,,,,,,,,,,,,,,,,,,,,,,,,,,,,,,,,,,,,,,,,,,,,,,,,,,,133.0,57.0,57.0,133.0,70.0,70.0,2.1,2.11,-191,255,0,282,198,-270,228.84536051750183,228.8454625606537,228.8493845462799,228.8601152896881,229.00092911720276,229.00092911720276,229.00092911720276,229.00092911720276,229.00092911720276,229.00092911720276,229.00092911720276,232.64273118972778,2,3.778580665588379,None,,,,,,,,,,,,,,,,,,97,6,2025-02-24_13h18.49.109,comp,2024.2.4,43.6836590796893,2025-02-24 13h24.06.808627 -0500,
61,61,0,critical,hwd,20.0,4.0,lower,133.0,57.0,57.0,133.0,78.0,78.0,1,2.083750009536743,None,,,,,0,0,0,0,0,61,61,106,232.6594557762146,,,,,,,,,,,,,,,,,,,,,,,,,,,,,,,,,,,,,,,,,,,,,,,,,,,,,,,,,,,,,,,,,,,,,,,,,,,,,,,,,133.0,57.0,57.0,133.0,78.0,78.0,4.0,4.2,-191,-3,0,-269,202,0,232.64416241645813,232.6442379951477,232.6475305557251,232.6594557762146,232.80771231651306,232.80771231651306,232.80771231651306,232.80771231651306,232.80771231651306,232.80771231651306,232.80771231651306,234.75094032287598,1,2.083750009536743,None,,,,,,,,,,,,,,,,,,97,6,2025-02-24_13h18.49.109,comp,2024.2.4,43.6836590796893,2025-02-24 13h24.06.808627 -0500,
62,62,0,filler_square,None,None,None,None,None,None,None,None,None,None,3,2.1763694286346436,None,,,,,0,0,0,0,0,62,62,189,234.76649379730225,,,,,,,,,,,,,,,,,,,,,,,,,,,,,,,,,,,,,,,,,,,,,,,,,,,,,,,,,,,,,,,,,,,,,,,,,,,,,,,,,66.79114093582892,63.15944554949454,58.54306764668782,62.15339459406297,70.44135835281683,70.44135835281683,2.1,2.12,-159,-282,0,-288,162,256,234.75265264511108,234.75272798538208,234.7558274269104,234.76649379730225,234.90700435638428,234.90700435638428,234.90700435638428,234.90700435638428,234.90700435638428,234.90700435638428,234.90700435638428,236.95170974731445,3,2.1763694286346436,None,,,,,,,,,,,,,,,,,,97,6,2025-02-24_13h18.49.109,comp,2024.2.4,43.6836590796893,2025-02-24 13h24.06.808627 -0500,
63,63,0,critical,dhw,20.0,3.0,lower,78.0,78.0,133.0,57.0,57.0,133.0,3,1.6298108100891113,None,,,,,0,0,0,0,0,63,63,56,236.96859669685364,,,,,,,,,,,,,,,,,,,,,,,,,,,,,,,,,,,,,,,,,,,,,,,,,,,,,,,,,,,,,,,,,,,,,,,,,,,,,,,,,78.0,78.0,133.0,57.0,57.0,133.0,3.0,3.1,-164,273,0,-20,191,-277,236.9532446861267,236.9533236026764,236.95700883865356,236.96859669685364,237.10856199264526,237.10856199264526,237.10856199264526,237.10856199264526,237.10856199264526,237.10856199264526,237.10856199264526,238.61305332183838,3,1.6298108100891113,None,,,,,,,,,,,,,,,,,,97,6,2025-02-24_13h18.49.109,comp,2024.2.4,43.6836590796893,2025-02-24 13h24.06.808627 -0500,
64,64,0,filler_random,None,None,None,None,None,None,None,None,None,None,2,1.4930903911590576,None,,,,,0,0,0,0,0,64,64,133,238.6334490776062,,,,,,,,,,,,,,,,,,,,,,,,,,,,,,,,,,,,,,,,,,,,,,,,,,,,,,,,,,,,,,,,,,,,,,,,,,,,,,,,,116.64025788962354,58.709446250816484,72.26933581227317,153.0617180075202,70.08908760995631,122.81206166359678,2.2,2.22,-202,277,0,-265,234,-251,238.61504983901978,238.6151602268219,238.6187126636505,238.6334490776062,238.7799847126007,238.7799847126007,238.7799847126007,238.7799847126007,238.7799847126007,238.7799847126007,238.7799847126007,240.14358639717102,2,1.4930903911590576,None,,,,,,,,,,,,,,,,,,97,6,2025-02-24_13h18.49.109,comp,2024.2.4,43.6836590796893,2025-02-24 13h24.06.808627 -0500,
65,65,0,filler_square,None,None,None,None,None,None,None,None,None,None,1,2.007033586502075,None,,,,,0,0,0,0,0,65,65,176,240.1601185798645,,,,,,,,,,,,,,,,,,,,,,,,,,,,,,,,,,,,,,,,,,,,,,,,,,,,,,,,,,,,,,,,,,,,,,,,,,,,,,,,,60.50043347760729,57.37791024685552,58.32905523925278,57.26143974367223,63.661617075417745,63.661617075417745,3.0,3.2,-153,-254,0,10,156,250,240.1453230381012,240.1454267501831,240.1487421989441,240.1601185798645,240.3139843940735,240.3139843940735,240.3139843940735,240.3139843940735,240.3139843940735,240.3139843940735,240.3139843940735,242.17516112327576,1,2.007033586502075,None,,,,,,,,,,,,,,,,,,97,6,2025-02-24_13h18.49.109,comp,2024.2.4,43.6836590796893,2025-02-24 13h24.06.808627 -0500,
66,66,0,critical,dwh,20.0,4.0,lower,78.0,78.0,57.0,133.0,133.0,57.0,2,1.9505584239959717,None,,,,,0,0,0,0,0,66,66,70,242.1924979686737,,,,,,,,,,,,,,,,,,,,,,,,,,,,,,,,,,,,,,,,,,,,,,,,,,,,,,,,,,,,,,,,,,,,,,,,,,,,,,,,,78.0,78.0,57.0,133.0,133.0,57.0,4.0,4.1,-202,-289,0,-13,191,-280,242.1766381263733,242.17671370506287,242.17974281311035,242.1924979686737,242.32824420928955,242.32824420928955,242.32824420928955,242.32824420928955,242.32824420928955,242.32824420928955,242.32824420928955,244.14947938919067,2,1.9505584239959717,None,,,,,,,,,,,,,,,,,,97,6,2025-02-24_13h18.49.109,comp,2024.2.4,43.6836590796893,2025-02-24 13h24.06.808627 -0500,
67,67,0,critical,hwd,35.0,3.0,lower,133.0,57.0,57.0,133.0,70.0,70.0,2,1.624953269958496,None,,,,,0,0,0,0,0,67,67,98,244.1658420562744,,,,,,,,,,,,,,,,,,,,,,,,,,,,,,,,,,,,,,,,,,,,,,,,,,,,,,,,,,,,,,,,,,,,,,,,,,,,,,,,,133.0,57.0,57.0,133.0,70.0,70.0,3.0,3.1,-191,259,0,6,198,-280,244.1511573791504,244.1512575149536,244.1548924446106,244.1658420562744,244.31302452087402,244.31302452087402,244.31302452087402,244.31302452087402,244.31302452087402,244.31302452087402,244.31302452087402,245.79721236228943,2,1.624953269958496,None,,,,,,,,,,,,,,,,,,97,6,2025-02-24_13h18.49.109,comp,2024.2.4,43.6836590796893,2025-02-24 13h24.06.808627 -0500,
68,68,0,catch,None,None,None,None,None,None,None,None,None,None,1,None,None,,,,,0,0,0,0,0,68,68,128,245.81477427482605,,,,,,,,,,,,,,,,,,,,,,,,,,,,,,,,,,,,,,,,,,,,,,,,,,,,,,,,,,,,,,,,,,,,,,,,,,,,,,,,,104,86,60,130,145,180,1.0,1.3,276,-272,480,-285,731,-286,245.79993510246277,245.8000729084015,245.80379724502563,245.81477427482605,,,,,,,,245.87859654426575,1,None,None,,,,,,,,,,,,,,,,,,97,6,2025-02-24_13h18.49.109,comp,2024.2.4,43.6836590796893,2025-02-24 13h24.06.808627 -0500,
69,69,0,critical,wdh,20.0,1.0,upper,125.0,200.0,141.0,141.0,200.0,125.0,3,2.0836870670318604,None,,,,,0,0,0,0,0,69,69,79,245.89869832992554,,,,,,,,,,,,,,,,,,,,,,,,,,,,,,,,,,,,,,,,,,,,,,,,,,,,,,,,,,,,,,,,,,,,,,,,,,,,,,,,,125.0,200.0,141.0,141.0,200.0,125.0,1.0,1.2,-266,-3,0,7,229,4,245.88009214401245,245.8801724910736,245.88354229927063,245.89869832992554,246.04671669006348,246.04671669006348,246.04671669006348,246.04671669006348,246.04671669006348,246.04671669006348,246.04671669006348,247.99664878845215,3,2.0836870670318604,None,,,,,,,,,,,,,,,,,,97,6,2025-02-24_13h18.49.109,comp,2024.2.4,43.6836590796893,2025-02-24 13h24.06.808627 -0500,
70,70,0,critical,hwd,35.0,3.0,upper,200.0,125.0,125.0,200.0,127.0,127.0,2,2.2733263969421387,None,,,,,0,0,0,0,0,70,70,99,248.01310276985168,,,,,,,,,,,,,,,,,,,,,,,,,,,,,,,,,,,,,,,,,,,,,,,,,,,,,,,,,,,,,,,,,,,,,,,,,,,,,,,,,200.0,125.0,125.0,200.0,127.0,127.0,3.0,3.1,-258,263,0,13,260,-283,247.9982385635376,247.99835753440857,248.0019040107727,248.01310276985168,248.16385340690613,248.16385340690613,248.16385340690613,248.16385340690613,248.16385340690613,248.16385340690613,248.16385340690613,250.30173254013062,2,2.2733263969421387,None,,,,,,,,,,,,,,,,,,97,6,2025-02-24_13h18.49.109,comp,2024.2.4,43.6836590796893,2025-02-24 13h24.06.808627 -0500,
71,71,0,filler_square,None,None,None,None,None,None,None,None,None,None,3,2.833073616027832,None,,,,,0,0,0,0,0,71,71,203,250.31743335723877,,,,,,,,,,,,,,,,,,,,,,,,,,,,,,,,,,,,,,,,,,,,,,,,,,,,,,,,,,,,,,,,,,,,,,,,,,,,,,,,,83.15867867896952,99.69899750432137,114.06991068004227,82.79073674089031,118.65420723737816,118.65420723737816,2.1,2.11,-187,257,0,264,197,-257,250.3036665916443,250.30374574661255,250.30708241462708,250.31743335723877,250.4659457206726,250.4659457206726,250.4659457206726,250.4659457206726,250.4659457206726,250.4659457206726,250.4659457206726,253.1718852519989,3,2.833073616027832,None,,,,,,,,,,,,,,,,,,97,6,2025-02-24_13h18.49.109,comp,2024.2.4,43.6836590796893,2025-02-24 13h24.06.808627 -0500,
72,72,0,critical,dwh,20.0,1.0,lower,78.0,78.0,57.0,133.0,133.0,57.0,2,5.29471492767334,None,,,,,0,0,0,0,0,72,72,66,253.1919436454773,,,,,,,,,,,,,,,,,,,,,,,,,,,,,,,,,,,,,,,,,,,,,,,,,,,,,,,,,,,,,,,,,,,,,,,,,,,,,,,,,78.0,78.0,57.0,133.0,133.0,57.0,1.0,1.2,-202,-14,0,11,191,-3,253.17346096038818,253.17354130744934,253.17664241790771,253.1919436454773,253.3319113254547,253.3319113254547,253.3319113254547,253.3319113254547,253.3319113254547,253.3319113254547,253.3319113254547,258.50128507614136,2,5.29471492767334,None,,,,,,,,,,,,,,,,,,97,6,2025-02-24_13h18.49.109,comp,2024.2.4,43.6836590796893,2025-02-24 13h24.06.808627 -0500,
73,73,0,filler_random,None,None,None,None,None,None,None,None,None,None,3,2.4421706199645996,None,,,,,0,0,0,0,0,73,73,167,258.5185868740082,,,,,,,,,,,,,,,,,,,,,,,,,,,,,,,,,,,,,,,,,,,,,,,,,,,,,,,,,,,,,,,,,,,,,,,,,,,,,,,,,105.40252464533559,111.44130313153872,118.27521250651884,173.99820437476382,191.52829969782408,182.94895158269264,2.2,2.21,-239,-273,0,273,274,288,258.50315141677856,258.50328969955444,258.5070972442627,258.5185868740082,258.6754493713379,258.6754493713379,258.6754493713379,258.6754493713379,258.6754493713379,258.6754493713379,258.6754493713379,260.96837306022644,3,2.4421706199645996,None,,,,,,,,,,,,,,,,,,97,6,2025-02-24_13h18.49.109,comp,2024.2.4,43.6836590796893,2025-02-24 13h24.06.808627 -0500,
74,74,0,critical,hdw,20.0,4.0,upper,200.0,125.0,141.0,141.0,125.0,200.0,3,3.9134011268615723,None,,,,,0,0,0,0,0,74,74,119,260.98911452293396,,,,,,,,,,,,,,,,,,,,,,,,,,,,,,,,,,,,,,,,,,,,,,,,,,,,,,,,,,,,,,,,,,,,,,,,,,,,,,,,,200.0,125.0,141.0,141.0,125.0,200.0,4.0,4.2,-229,1,0,-276,266,-6,260.96994066238403,260.97001695632935,260.9736998081207,260.98911452293396,261.1369879245758,261.1369879245758,261.1369879245758,261.1369879245758,261.1369879245758,261.1369879245758,261.1369879245758,264.9064106941223,3,3.9134011268615723,None,,,,,,,,,,,,,,,,,,97,6,2025-02-24_13h18.49.109,comp,2024.2.4,43.6836590796893,2025-02-24 13h24.06.808627 -0500,
75,75,0,filler_random,None,None,None,None,None,None,None,None,None,None,1,1.4488446712493896,None,,,,,0,0,0,0,0,75,75,130,264.9271171092987,,,,,,,,,,,,,,,,,,,,,,,,,,,,,,,,,,,,,,,,,,,,,,,,,,,,,,,,,,,,,,,,,,,,,,,,,,,,,,,,,168.1333677677511,190.70004976603295,87.42061299222152,59.46072468186414,57.16476937010903,158.63266946243377,2.2,2.21,-221,-279,0,277,205,278,264.9082279205322,264.9083094596863,264.91143703460693,264.9271171092987,265.0663893222809,265.0663893222809,265.0663893222809,265.0663893222809,265.0663893222809,265.0663893222809,265.0663893222809,266.38737440109253,1,1.4488446712493896,None,,,,,,,,,,,,,,,,,,97,6,2025-02-24_13h18.49.109,comp,2024.2.4,43.6836590796893,2025-02-24 13h24.06.808627 -0500,
76,76,0,filler_random,None,None,None,None,None,None,None,None,None,None,2,2.6117348670959473,None,,,,,0,0,0,0,0,76,76,137,266.4034421443939,,,,,,,,,,,,,,,,,,,,,,,,,,,,,,,,,,,,,,,,,,,,,,,,,,,,,,,,,,,,,,,,,,,,,,,,,,,,,,,,,78.41872638404631,193.5121036442664,191.5640699276633,140.77933233038652,85.05514743360901,88.05406818458225,2.1,2.12,-263,-281,0,-290,210,262,266.3892068862915,266.38929057121277,266.3927743434906,266.4034421443939,266.55663108825684,266.55663108825684,266.55663108825684,266.55663108825684,266.55663108825684,266.55663108825684,266.55663108825684,269.02167439460754,2,2.6117348670959473,None,,,,,,,,,,,,,,,,,,97,6,2025-02-24_13h18.49.109,comp,2024.2.4,43.6836590796893,2025-02-24 13h24.06.808627 -0500,
77,77,0,critical,dwh,35.0,4.0,upper,127.0,127.0,125.0,200.0,200.0,125.0,3,2.2251877784729004,None,,,,,0,0,0,0,0,77,77,65,269.0379869937897,,,,,,,,,,,,,,,,,,,,,,,,,,,,,,,,,,,,,,,,,,,,,,,,,,,,,,,,,,,,,,,,,,,,,,,,,,,,,,,,,127.0,127.0,125.0,200.0,200.0,125.0,4.0,4.2,-260,-8,0,-264,258,3,269.0233631134033,269.023469209671,269.0271236896515,269.0379869937897,269.18996024131775,269.18996024131775,269.18996024131775,269.18996024131775,269.18996024131775,269.18996024131775,269.18996024131775,271.2710831165314,3,2.2251877784729004,None,,,,,,,,,,,,,,,,,,97,6,2025-02-24_13h18.49.109,comp,2024.2.4,43.6836590796893,2025-02-24 13h24.06.808627 -0500,
78,78,0,critical,dwh,35.0,2.1,upper,127.0,127.0,125.0,200.0,200.0,125.0,2,1.7124671936035156,None,,,,,0,0,0,0,0,78,78,29,271.2868618965149,,,,,,,,,,,,,,,,,,,,,,,,,,,,,,,,,,,,,,,,,,,,,,,,,,,,,,,,,,,,,,,,,,,,,,,,,,,,,,,,,127.0,127.0,125.0,200.0,200.0,125.0,2.1,2.12,-260,-277,0,-288,258,286,271.27261304855347,271.272691488266,271.276154756546,271.2868618965149,271.43594241142273,271.43594241142273,271.43594241142273,271.43594241142273,271.43594241142273,271.43594241142273,271.43594241142273,273.0070939064026,2,1.7124671936035156,None,,,,,,,,,,,,,,,,,,97,6,2025-02-24_13h18.49.109,comp,2024.2.4,43.6836590796893,2025-02-24 13h24.06.808627 -0500,
79,79,0,critical,hwd,20.0,3.0,lower,133.0,57.0,57.0,133.0,78.0,78.0,2,1.8402047157287598,None,,,,,0,0,0,0,0,79,79,104,273.02290892601013,,,,,,,,,,,,,,,,,,,,,,,,,,,,,,,,,,,,,,,,,,,,,,,,,,,,,,,,,,,,,,,,,,,,,,,,,,,,,,,,,133.0,57.0,57.0,133.0,78.0,78.0,3.0,3.1,-191,283,0,5,202,-279,273.0087237358093,273.0088038444519,273.0121569633484,273.02290892601013,273.1759798526764,273.1759798526764,273.1759798526764,273.1759798526764,273.1759798526764,273.1759798526764,273.1759798526764,274.8724639415741,2,1.8402047157287598,None,,,,,,,,,,,,,,,,,,97,6,2025-02-24_13h18.49.109,comp,2024.2.4,43.6836590796893,2025-02-24 13h24.06.808627 -0500,
80,80,0,critical,hdw,35.0,1.0,lower,133.0,57.0,70.0,70.0,57.0,133.0,3,3.213395833969116,None,,,,,0,0,0,0,0,80,80,108,274.88896656036377,,,,,,,,,,,,,,,,,,,,,,,,,,,,,,,,,,,,,,,,,,,,,,,,,,,,,,,,,,,,,,,,,,,,,,,,,,,,,,,,,133.0,57.0,70.0,70.0,57.0,133.0,1.0,1.3,320,-277,480,-268,678,-263,274.87411236763,274.87422585487366,274.877863407135,274.88896656036377,275.0377163887024,275.0377163887024,275.0377163887024,275.0377163887024,275.0377163887024,275.0377163887024,275.0377163887024,278.11848425865173,3,3.213395833969116,None,,,,,,,,,,,,,,,,,,97,6,2025-02-24_13h18.49.109,comp,2024.2.4,43.6836590796893,2025-02-24 13h24.06.808627 -0500,
81,81,0,filler_random,None,None,None,None,None,None,None,None,None,None,2,1.333759069442749,None,,,,,0,0,0,0,0,81,81,155,278.1370680332184,,,,,,,,,,,,,,,,,,,,,,,,,,,,,,,,,,,,,,,,,,,,,,,,,,,,,,,,,,,,,,,,,,,,,,,,,,,,,,,,,77.63586556761126,60.77322805519387,181.86084121092856,188.50868290389636,113.74221135600102,156.18549766463684,4.0,4.1,-221,-282,0,6,268,-259,278.1202063560486,278.1202838420868,278.12374782562256,278.1370680332184,278.2718663215637,278.2718663215637,278.2718663215637,278.2718663215637,278.2718663215637,278.2718663215637,278.2718663215637,279.47560381889343,2,1.333759069442749,None,,,,,,,,,,,,,,,,,,97,6,2025-02-24_13h18.49.109,comp,2024.2.4,43.6836590796893,2025-02-24 13h24.06.808627 -0500,
82,82,0,filler_square,None,None,None,None,None,None,None,None,None,None,2,3.322725772857666,None,,,,,0,0,0,0,0,82,82,175,279.4917640686035,,,,,,,,,,,,,,,,,,,,,,,,,,,,,,,,,,,,,,,,,,,,,,,,,,,,,,,,,,,,,,,,,,,,,,,,,,,,,,,,,65.59381732465039,64.20403810163809,68.21017125334272,68.21017125334272,67.06867769706064,60.45770096498279,4.0,4.2,-162,-4,0,-260,160,1,279.4776177406311,279.4776978492737,279.4810206890106,279.4917640686035,279.6395695209503,279.6395695209503,279.6395695209503,279.6395695209503,279.6395695209503,279.6395695209503,279.6395695209503,282.83067870140076,2,3.322725772857666,None,,,,,,,,,,,,,,,,,,97,6,2025-02-24_13h18.49.109,comp,2024.2.4,43.6836590796893,2025-02-24 13h24.06.808627 -0500,
83,83,0,critical,dhw,20.0,1.0,lower,78.0,78.0,133.0,57.0,57.0,133.0,3,4.302617311477661,None,,,,,0,0,0,0,0,83,83,54,282.84822177886963,,,,,,,,,,,,,,,,,,,,,,,,,,,,,,,,,,,,,,,,,,,,,,,,,,,,,,,,,,,,,,,,,,,,,,,,,,,,,,,,,78.0,78.0,133.0,57.0,57.0,133.0,1.0,1.2,-164,2,0,-18,191,8,282.8324363231659,282.83251762390137,282.8356523513794,282.84822177886963,282.9925422668457,282.9925422668457,282.9925422668457,282.9925422668457,282.9925422668457,282.9925422668457,282.9925422668457,287.16170859336853,3,4.302617311477661,None,,,,,,,,,,,,,,,,,,97,6,2025-02-24_13h18.49.109,comp,2024.2.4,43.6836590796893,2025-02-24 13h24.06.808627 -0500,
84,84,0,critical,dwh,35.0,1.0,lower,70.0,70.0,57.0,133.0,133.0,57.0,2,7.808199405670166,None,,,,,0,0,0,0,0,84,84,60,287.18296790122986,,,,,,,,,,,,,,,,,,,,,,,,,,,,,,,,,,,,,,,,,,,,,,,,,,,,,,,,,,,,,,,,,,,,,,,,,,,,,,,,,70.0,70.0,57.0,133.0,133.0,57.0,1.0,1.2,-198,5,0,0,191,-4,287.16339349746704,287.16353607177734,287.16711497306824,287.18296790122986,287.3338906764984,287.3338906764984,287.3338906764984,287.3338906764984,287.3338906764984,287.3338906764984,287.3338906764984,294.9978713989258,2,7.808199405670166,None,,,,,,,,,,,,,,,,,,97,6,2025-02-24_13h18.49.109,comp,2024.2.4,43.6836590796893,2025-02-24 13h24.06.808627 -0500,
85,85,0,filler_square,None,None,None,None,None,None,None,None,None,None,2,2.3209068775177,None,,,,,0,0,0,0,0,85,85,199,295.01471281051636,,,,,,,,,,,,,,,,,,,,,,,,,,,,,,,,,,,,,,,,,,,,,,,,,,,,,,,,,,,,,,,,,,,,,,,,,,,,,,,,,68.86625377208657,75.62287533747684,101.05334144938641,101.05334144938641,90.6404109920098,78.1065998215143,2.1,2.11,-184,279,0,262,186,-267,294.9999363422394,295.00002121925354,295.00374937057495,295.01471281051636,295.16485142707825,295.16485142707825,295.16485142707825,295.16485142707825,295.16485142707825,295.16485142707825,295.16485142707825,297.34715604782104,2,2.3209068775177,None,,,,,,,,,,,,,,,,,,97,6,2025-02-24_13h18.49.109,comp,2024.2.4,43.6836590796893,2025-02-24 13h24.06.808627 -0500,
86,86,0,filler_random,None,None,None,None,None,None,None,None,None,None,3,4.963389158248901,None,,,,,0,0,0,0,0,86,86,159,297.36364555358887,,,,,,,,,,,,,,,,,,,,,,,,,,,,,,,,,,,,,,,,,,,,,,,,,,,,,,,,,,,,,,,,,,,,,,,,,,,,,,,,,97.6808551887743,162.4885404782759,185.33621315295733,78.43551224721408,99.10575395121435,160.79002695850693,2.1,2.11,-216,281,0,257,216,-256,297.34896326065063,297.3490960597992,297.3529417514801,297.36364555358887,297.5117840766907,297.5117840766907,297.5117840766907,297.5117840766907,297.5117840766907,297.5117840766907,297.5117840766907,302.34576416015625,3,4.963389158248901,None,,,,,,,,,,,,,,,,,,97,6,2025-02-24_13h18.49.109,comp,2024.2.4,43.6836590796893,2025-02-24 13h24.06.808627 -0500,
87,87,0,filler_square,None,None,None,None,None,None,None,None,None,None,1,2.6647701263427734,None,,,,,0,0,0,0,0,87,87,205,302.3659598827362,,,,,,,,,,,,,,,,,,,,,,,,,,,,,,,,,,,,,,,,,,,,,,,,,,,,,,,,,,,,,,,,,,,,,,,,,,,,,,,,,107.35303686068549,107.35303686068549,99.63696566759432,73.08138064373867,63.61693844456773,101.65310787579233,4.0,4.2,-186,2,0,-263,183,-19,302.34765887260437,302.34775710105896,302.3511347770691,302.3659598827362,302.49978041648865,302.49978041648865,302.49978041648865,302.49978041648865,302.49978041648865,302.49978041648865,302.49978041648865,305.0358407497406,1,2.6647701263427734,None,,,,,,,,,,,,,,,,,,97,6,2025-02-24_13h18.49.109,comp,2024.2.4,43.6836590796893,2025-02-24 13h24.06.808627 -0500,
88,88,0,critical,whd,35.0,1.0,lower,57.0,133.0,133.0,57.0,70.0,70.0,2,3.861624240875244,None,,,,,0,0,0,0,0,88,88,84,305.056768655777,,,,,,,,,,,,,,,,,,,,,,,,,,,,,,,,,,,,,,,,,,,,,,,,,,,,,,,,,,,,,,,,,,,,,,,,,,,,,,,,,57.0,133.0,133.0,57.0,70.0,70.0,1.0,1.1,-671,284,-480,251,-320,274,305.03759717941284,305.03771686553955,305.04111766815186,305.056768655777,305.1986005306244,305.1986005306244,305.1986005306244,305.1986005306244,305.1986005306244,305.1986005306244,305.1986005306244,308.9342646598816,2,3.861624240875244,None,,,,,,,,,,,,,,,,,,97,6,2025-02-24_13h18.49.109,comp,2024.2.4,43.6836590796893,2025-02-24 13h24.06.808627 -0500,
89,89,0,critical,wdh,20.0,1.0,lower,57.0,133.0,78.0,78.0,133.0,57.0,3,4.896642446517944,None,,,,,0,0,0,0,0,89,89,78,308.9503881931305,,,,,,,,,,,,,,,,,,,,,,,,,,,,,,,,,,,,,,,,,,,,,,,,,,,,,,,,,,,,,,,,,,,,,,,,,,,,,,,,,57.0,133.0,78.0,78.0,133.0,57.0,1.0,1.3,278,-267,480,-289,644,-277,308.9359276294708,308.93606543540955,308.94009351730347,308.9503881931305,309.09861278533936,309.09861278533936,309.09861278533936,309.09861278533936,309.09861278533936,309.09861278533936,309.09861278533936,313.8562867641449,3,4.896642446517944,None,,,,,,,,,,,,,,,,,,97,6,2025-02-24_13h18.49.109,comp,2024.2.4,43.6836590796893,2025-02-24 13h24.06.808627 -0500,
90,90,0,critical,hdw,35.0,1.0,upper,200.0,125.0,127.0,127.0,125.0,200.0,3,3.228224277496338,None,,,,,0,0,0,0,0,90,90,109,313.8741409778595,,,,,,,,,,,,,,,,,,,,,,,,,,,,,,,,,,,,,,,,,,,,,,,,,,,,,,,,,,,,,,,,,,,,,,,,,,,,,,,,,200.0,125.0,127.0,127.0,125.0,200.0,1.0,1.2,-222,11,0,-4,260,13,313.857812166214,313.8579070568085,313.86103677749634,313.8741409778595,314.0229001045227,314.0229001045227,314.0229001045227,314.0229001045227,314.0229001045227,314.0229001045227,314.0229001045227,317.11808252334595,3,3.228224277496338,None,,,,,,,,,,,,,,,,,,97,6,2025-02-24_13h18.49.109,comp,2024.2.4,43.6836590796893,2025-02-24 13h24.06.808627 -0500,
91,91,0,filler_random,None,None,None,None,None,None,None,None,None,None,2,3.6324703693389893,None,,,,,0,0,0,0,0,91,91,156,317.1346435546875,,,,,,,,,,,,,,,,,,,,,,,,,,,,,,,,,,,,,,,,,,,,,,,,,,,,,,,,,,,,,,,,,,,,,,,,,,,,,,,,,74.13505565677626,183.7570496520035,92.3687508984335,181.58497051833444,95.24785664208659,135.531858379185,2.2,2.22,-279,253,0,-256,255,-284,317.11987686157227,317.12001371383667,317.1234378814697,317.1346435546875,317.28564977645874,317.28564977645874,317.28564977645874,317.28564977645874,317.28564977645874,317.28564977645874,317.28564977645874,320.7732717990875,2,3.6324703693389893,None,,,,,,,,,,,,,,,,,,97,6,2025-02-24_13h18.49.109,comp,2024.2.4,43.6836590796893,2025-02-24 13h24.06.808627 -0500,
92,92,0,filler_random,None,None,None,None,None,None,None,None,None,None,3,1.9498555660247803,None,,,,,0,0,0,0,0,92,92,157,320.7936096191406,,,,,,,,,,,,,,,,,,,,,,,,,,,,,,,,,,,,,,,,,,,,,,,,,,,,,,,,,,,,,,,,,,,,,,,,,,,,,,,,,79.12871682467927,116.52304531348328,113.87704956826254,149.17697485366068,115.10654663237021,186.71478738706153,2.2,2.21,-229,-281,0,282,264,258,320.77522373199463,320.77531242370605,320.7787380218506,320.7936096191406,320.93712973594666,320.93712973594666,320.93712973594666,320.93712973594666,320.93712973594666,320.93712973594666,320.93712973594666,322.7563750743866,3,1.9498555660247803,None,,,,,,,,,,,,,,,,,,97,6,2025-02-24_13h18.49.109,comp,2024.2.4,43.6836590796893,2025-02-24 13h24.06.808627 -0500,
93,93,0,filler_random,None,None,None,None,None,None,None,None,None,None,3,1.723174810409546,None,,,,,0,0,0,0,0,93,93,168,322.77178597450256,,,,,,,,,,,,,,,,,,,,,,,,,,,,,,,,,,,,,,,,,,,,,,,,,,,,,,,,,,,,,,,,,,,,,,,,,,,,,,,,,89.851716477547,73.80615917611593,102.42607592018908,93.30757539236004,116.68707078115511,99.09835377353582,4.0,4.2,-180,-19,0,-281,192,2,322.7581539154053,322.75823068618774,322.7615268230438,322.77178597450256,322.9196569919586,322.9196569919586,322.9196569919586,322.9196569919586,322.9196569919586,322.9196569919586,322.9196569919586,324.5046944618225,3,1.723174810409546,None,,,,,,,,,,,,,,,,,,97,6,2025-02-24_13h18.49.109,comp,2024.2.4,43.6836590796893,2025-02-24 13h24.06.808627 -0500,
94,94,0,critical,wdh,35.0,1.0,lower,57.0,133.0,70.0,70.0,133.0,57.0,3,2.278503179550171,None,,,,,0,0,0,0,0,94,94,72,324.5204589366913,,,,,,,,,,,,,,,,,,,,,,,,,,,,,,,,,,,,,,,,,,,,,,,,,,,,,,,,,,,,,,,,,,,,,,,,,,,,,,,,,57.0,133.0,70.0,70.0,133.0,57.0,1.0,1.1,-678,257,-480,285,-320,257,324.50628876686096,324.5064136981964,324.50987696647644,324.5204589366913,324.6789951324463,324.6789951324463,324.6789951324463,324.6789951324463,324.6789951324463,324.6789951324463,324.6789951324463,326.80714178085327,3,2.278503179550171,None,,,,,,,,,,,,,,,,,,97,6,2025-02-24_13h18.49.109,comp,2024.2.4,43.6836590796893,2025-02-24 13h24.06.808627 -0500,
95,95,0,critical,hwd,35.0,4.0,upper,200.0,125.0,125.0,200.0,127.0,127.0,1,1.3030779361724854,None,,,,,0,0,0,0,0,95,95,101,326.8233048915863,,,,,,,,,,,,,,,,,,,,,,,,,,,,,,,,,,,,,,,,,,,,,,,,,,,,,,,,,,,,,,,,,,,,,,,,,,,,,,,,,200.0,125.0,125.0,200.0,127.0,127.0,4.0,4.1,-258,-264,0,-12,260,-257,326.8088412284851,326.80892539024353,326.8123195171356,326.8233048915863,326.96975660324097,326.96975660324097,326.96975660324097,326.96975660324097,326.96975660324097,326.96975660324097,326.96975660324097,328.1410162448883,1,1.3030779361724854,None,,,,,,,,,,,,,,,,,,97,6,2025-02-24_13h18.49.109,comp,2024.2.4,43.6836590796893,2025-02-24 13h24.06.808627 -0500,
96,96,0,critical,wdh,20.0,2.1,lower,57.0,133.0,78.0,78.0,133.0,57.0,1,3.1084635257720947,None,,,,,0,0,0,0,0,96,96,10,328.1618752479553,,,,,,,,,,,,,,,,,,,,,,,,,,,,,,,,,,,,,,,,,,,,,,,,,,,,,,,,,,,,,,,,,,,,,,,,,,,,,,,,,57.0,133.0,78.0,78.0,133.0,57.0,2.1,2.12,-202,-267,0,-286,164,263,328.1426510810852,328.14277935028076,328.1465253829956,328.1618752479553,328.31379675865173,328.31379675865173,328.31379675865173,328.31379675865173,328.31379675865173,328.31379675865173,328.31379675865173,331.2887170314789,1,3.1084635257720947,None,,,,,,,,,,,,,,,,,,97,6,2025-02-24_13h18.49.109,comp,2024.2.4,43.6836590796893,2025-02-24 13h24.06.808627 -0500,
97,97,0,critical,wdh,20.0,4.0,lower,57.0,133.0,78.0,78.0,133.0,57.0,1,3.80570650100708,None,,,,,0,0,0,0,0,97,97,82,331.3046441078186,,,,,,,,,,,,,,,,,,,,,,,,,,,,,,,,,,,,,,,,,,,,,,,,,,,,,,,,,,,,,,,,,,,,,,,,,,,,,,,,,57.0,133.0,78.0,78.0,133.0,57.0,4.0,4.1,-202,-250,0,-12,164,-266,331.29035997390747,331.2904977798462,331.2939803600311,331.3046441078186,331.4573242664337,331.4573242664337,331.4573242664337,331.4573242664337,331.4573242664337,331.4573242664337,331.4573242664337,335.1277244091034,1,3.80570650100708,None,,,,,,,,,,,,,,,,,,97,6,2025-02-24_13h18.49.109,comp,2024.2.4,43.6836590796893,2025-02-24 13h24.06.808627 -0500,
98,98,0,filler_random,None,None,None,None,None,None,None,None,None,None,1,0.9153635501861572,None,,,,,0,0,0,0,0,98,98,154,335.1481440067291,,,,,,,,,,,,,,,,,,,,,,,,,,,,,,,,,,,,,,,,,,,,,,,,,,,,,,,,,,,,,,,,,,,,,,,,,,,,,,,,,187.75271726150257,156.19181379272027,116.0543254554945,94.66721883260107,181.325093874523,64.81577836421302,3.0,3.1,-221,269,0,-20,176,-266,335.1295008659363,335.1296064853668,335.13292479515076,335.1481440067291,335.2915086746216,335.2915086746216,335.2915086746216,335.2915086746216,335.2915086746216,335.2915086746216,335.2915086746216,336.0727972984314,1,0.9153635501861572,None,,,,,,,,,,,,,,,,,,97,6,2025-02-24_13h18.49.109,comp,2024.2.4,43.6836590796893,2025-02-24 13h24.06.808627 -0500,
99,99,0,critical,whd,35.0,2.1,lower,57.0,133.0,133.0,57.0,70.0,70.0,1,5.171459913253784,None,,,,,0,0,0,0,0,99,99,12,336.09097480773926,,,,,,,,,,,,,,,,,,,,,,,,,,,,,,,,,,,,,,,,,,,,,,,,,,,,,,,,,,,,,,,,,,,,,,,,,,,,,,,,,57.0,133.0,133.0,57.0,70.0,70.0,2.1,2.11,-191,275,0,284,160,-276,336.074373960495,336.0744559764862,336.0779252052307,336.09097480773926,336.22542691230774,336.22542691230774,336.22542691230774,336.22542691230774,336.22542691230774,336.22542691230774,336.22542691230774,341.27636098861694,1,5.171459913253784,None,,,,,,,,,,,,,,,,,,97,6,2025-02-24_13h18.49.109,comp,2024.2.4,43.6836590796893,2025-02-24 13h24.06.808627 -0500,
100,100,0,filler_random,None,None,None,None,None,None,None,None,None,None,2,1.0896344184875488,None,,,,,0,0,0,0,0,100,100,132,341.2926993370056,,,,,,,,,,,,,,,,,,,,,,,,,,,,,,,,,,,,,,,,,,,,,,,,,,,,,,,,,,,,,,,,,,,,,,,,,,,,,,,,,119.37749100713692,126.17362387746422,114.83540131823989,190.73395377111265,61.513407455222094,115.12215974446896,2.2,2.21,-254,-252,0,252,249,272,341.2780776023865,341.27815532684326,341.2824535369873,341.2926993370056,341.4538381099701,341.4538381099701,341.4538381099701,341.4538381099701,341.4538381099701,341.4538381099701,341.4538381099701,342.3957235813141,2,1.0896344184875488,None,,,,,,,,,,,,,,,,,,97,6,2025-02-24_13h18.49.109,comp,2024.2.4,43.6836590796893,2025-02-24 13h24.06.808627 -0500,
101,101,0,filler_random,None,None,None,None,None,None,None,None,None,None,3,1.2752916812896729,None,,,,,0,0,0,0,0,101,101,153,342.41160893440247,,,,,,,,,,,,,,,,,,,,,,,,,,,,,,,,,,,,,,,,,,,,,,,,,,,,,,,,,,,,,,,,,,,,,,,,,,,,,,,,,105.01897885814176,134.30366247335155,88.99585316976042,120.35885110245451,135.6972472518928,155.58753242393536,4.0,4.2,-223,10,0,-281,234,19,342.3977527618408,342.3978650569916,342.4012551307678,342.41160893440247,342.56014752388,342.56014752388,342.56014752388,342.56014752388,342.56014752388,342.56014752388,342.56014752388,343.6959455013275,3,1.2752916812896729,None,,,,,,,,,,,,,,,,,,97,6,2025-02-24_13h18.49.109,comp,2024.2.4,43.6836590796893,2025-02-24 13h24.06.808627 -0500,
102,102,0,critical,wdh,35.0,1.0,upper,125.0,200.0,127.0,127.0,200.0,125.0,1,1.812190055847168,None,,,,,0,0,0,0,0,102,102,73,343.7141869068146,,,,,,,,,,,,,,,,,,,,,,,,,,,,,,,,,,,,,,,,,,,,,,,,,,,,,,,,,,,,,,,,,,,,,,,,,,,,,,,,,125.0,200.0,127.0,127.0,200.0,125.0,1.0,1.3,220,-260,480,-270,702,-275,343.6978726387024,343.6980035305023,343.70122051239014,343.7141869068146,343.85985803604126,343.85985803604126,343.85985803604126,343.85985803604126,343.85985803604126,343.85985803604126,343.85985803604126,345.54284596443176,1,1.812190055847168,None,,,,,,,,,,,,,,,,,,97,6,2025-02-24_13h18.49.109,comp,2024.2.4,43.6836590796893,2025-02-24 13h24.06.808627 -0500,
103,103,0,critical,dhw,35.0,2.1,lower,70.0,70.0,133.0,57.0,57.0,133.0,3,2.031964063644409,None,,,,,0,0,0,0,0,103,103,24,345.55920243263245,,,,,,,,,,,,,,,,,,,,,,,,,,,,,,,,,,,,,,,,,,,,,,,,,,,,,,,,,,,,,,,,,,,,,,,,,,,,,,,,,70.0,70.0,133.0,57.0,57.0,133.0,2.1,2.12,-160,-272,0,-263,191,267,345.54431319236755,345.5444185733795,345.54790210723877,345.55920243263245,345.70930337905884,345.70930337905884,345.70930337905884,345.70930337905884,345.70930337905884,345.70930337905884,345.70930337905884,347.59677243232727,3,2.031964063644409,None,,,,,,,,,,,,,,,,,,97,6,2025-02-24_13h18.49.109,comp,2024.2.4,43.6836590796893,2025-02-24 13h24.06.808627 -0500,
104,104,0,filler_square,None,None,None,None,None,None,None,None,None,None,2,2.033003807067871,None,,,,,0,0,0,0,0,104,104,193,347.61336970329285,,,,,,,,,,,,,,,,,,,,,,,,,,,,,,,,,,,,,,,,,,,,,,,,,,,,,,,,,,,,,,,,,,,,,,,,,,,,,,,,,90.7390413767794,102.65666532271408,141.208373500762,141.208373500762,136.32334147861565,131.65261351980303,4.0,4.2,-218,-5,0,-289,232,-20,347.5986874103546,347.59877014160156,347.60191106796265,347.61336970329285,347.7617311477661,347.7617311477661,347.7617311477661,347.7617311477661,347.7617311477661,347.7617311477661,347.7617311477661,349.6622929573059,2,2.033003807067871,None,,,,,,,,,,,,,,,,,,97,6,2025-02-24_13h18.49.109,comp,2024.2.4,43.6836590796893,2025-02-24 13h24.06.808627 -0500,
105,105,0,critical,whd,20.0,1.0,lower,57.0,133.0,133.0,57.0,78.0,78.0,2,9.449465274810791,None,,,,,0,0,0,0,0,105,105,90,349.67773389816284,,,,,,,,,,,,,,,,,,,,,,,,,,,,,,,,,,,,,,,,,,,,,,,,,,,,,,,,,,,,,,,,,,,,,,,,,,,,,,,,,57.0,133.0,133.0,57.0,78.0,78.0,1.0,1.2,-191,-19,0,15,164,-5,349.6638557910919,349.66393637657166,349.6674835681915,349.67773389816284,349.8320813179016,349.8320813179016,349.8320813179016,349.8320813179016,349.8320813179016,349.8320813179016,349.8320813179016,359.13602089881897,2,9.449465274810791,None,,,,,,,,,,,,,,,,,,97,6,2025-02-24_13h18.49.109,comp,2024.2.4,43.6836590796893,2025-02-24 13h24.06.808627 -0500,
106,106,0,critical,dwh,20.0,2.1,upper,141.0,141.0,125.0,200.0,200.0,125.0,2,2.9879138469696045,None,,,,,0,0,0,0,0,106,106,31,359.1544873714447,,,,,,,,,,,,,,,,,,,,,,,,,,,,,,,,,,,,,,,,,,,,,,,,,,,,,,,,,,,,,,,,,,,,,,,,,,,,,,,,,141.0,141.0,125.0,200.0,200.0,125.0,2.1,2.12,-266,-285,0,-252,258,256,359.1377317905426,359.1378700733185,359.141384601593,359.1544873714447,359.29902482032776,359.29902482032776,359.29902482032776,359.29902482032776,359.29902482032776,359.29902482032776,359.29902482032776,362.15781569480896,2,2.9879138469696045,None,,,,,,,,,,,,,,,,,,97,6,2025-02-24_13h18.49.109,comp,2024.2.4,43.6836590796893,2025-02-24 13h24.06.808627 -0500,
107,107,0,filler_random,None,None,None,None,None,None,None,None,None,None,2,1.144240379333496,None,,,,,0,0,0,0,0,107,107,169,362.1744432449341,,,,,,,,,,,,,,,,,,,,,,,,,,,,,,,,,,,,,,,,,,,,,,,,,,,,,,,,,,,,,,,,,,,,,,,,,,,,,,,,,84.89358358417886,141.8467622346562,98.89518172690256,153.98859525249878,57.56239697245875,125.38117988727889,1.0,1.1,-724,268,-480,264,-244,254,362.15960144996643,362.15973353385925,362.16311597824097,362.1744432449341,362.3152611255646,362.3152611255646,362.3152611255646,362.3152611255646,362.3152611255646,362.3152611255646,362.3152611255646,363.32419085502625,2,1.144240379333496,None,,,,,,,,,,,,,,,,,,97,6,2025-02-24_13h18.49.109,comp,2024.2.4,43.6836590796893,2025-02-24 13h24.06.808627 -0500,
108,108,0,critical,whd,20.0,2.1,upper,125.0,200.0,200.0,125.0,141.0,141.0,1,1.9259357452392578,None,,,,,0,0,0,0,0,108,108,39,363.3445529937744,,,,,,,,,,,,,,,,,,,,,,,,,,,,,,,,,,,,,,,,,,,,,,,,,,,,,,,,,,,,,,,,,,,,,,,,,,,,,,,,,125.0,200.0,200.0,125.0,141.0,141.0,2.1,2.11,-258,282,0,260,229,-260,363.32571744918823,363.3257939815521,363.32886123657227,363.3445529937744,363.48955631256104,363.48955631256104,363.48955631256104,363.48955631256104,363.48955631256104,363.48955631256104,363.48955631256104,365.28885889053345,1,1.9259357452392578,None,,,,,,,,,,,,,,,,,,97,6,2025-02-24_13h18.49.109,comp,2024.2.4,43.6836590796893,2025-02-24 13h24.06.808627 -0500,
109,109,0,critical,dhw,20.0,2.1,lower,78.0,78.0,133.0,57.0,57.0,133.0,3,3.2950844764709473,None,,,,,0,0,0,0,0,109,109,2,365.30449986457825,,,,,,,,,,,,,,,,,,,,,,,,,,,,,,,,,,,,,,,,,,,,,,,,,,,,,,,,,,,,,,,,,,,,,,,,,,,,,,,,,78.0,78.0,133.0,57.0,57.0,133.0,2.1,2.12,-164,-269,0,-252,191,289,365.29041957855225,365.290500164032,365.2936158180237,365.30449986457825,365.4508936405182,365.4508936405182,365.4508936405182,365.4508936405182,365.4508936405182,365.4508936405182,365.4508936405182,368.6080684661865,3,3.2950844764709473,None,,,,,,,,,,,,,,,,,,97,6,2025-02-24_13h18.49.109,comp,2024.2.4,43.6836590796893,2025-02-24 13h24.06.808627 -0500,
110,110,0,catch,None,None,None,None,None,None,None,None,None,None,1,1.347430944442749,None,,,,,0,0,0,0,0,110,110,126,368.62770557403564,,,,,,,,,,,,,,,,,,,,,,,,,,,,,,,,,,,,,,,,,,,,,,,,,,,,,,,,,,,,,,,,,,,,,,,,,,,,,,,,,190,135,124,66,124,66,1.0,1.1,-676,258,-480,285,-318,267,368.61017894744873,368.6102600097656,368.61387181282043,368.62770557403564,368.7727155685425,368.7727155685425,368.7727155685425,368.7727155685425,368.7727155685425,368.7727155685425,368.7727155685425,369.9854779243469,1,1.347430944442749,None,,,,,,,,,,,,,,,,,,97,6,2025-02-24_13h18.49.109,comp,2024.2.4,43.6836590796893,2025-02-24 13h24.06.808627 -0500,
111,111,0,critical,hdw,35.0,2.1,lower,133.0,57.0,70.0,70.0,57.0,133.0,3,2.10271954536438,None,,,,,0,0,0,0,0,111,111,44,369.9997799396515,,,,,,,,,,,,,,,,,,,,,,,,,,,,,,,,,,,,,,,,,,,,,,,,,,,,,,,,,,,,,,,,,,,,,,,,,,,,,,,,,133.0,57.0,70.0,70.0,57.0,133.0,2.1,2.11,-160,253,0,255,198,-264,369.9870069026947,369.98708295822144,369.99032282829285,369.9997799396515,370.14965534210205,370.14965534210205,370.14965534210205,370.14965534210205,370.14965534210205,370.14965534210205,370.14965534210205,372.10848212242126,3,2.10271954536438,None,,,,,,,,,,,,,,,,,,97,6,2025-02-24_13h18.49.109,comp,2024.2.4,43.6836590796893,2025-02-24 13h24.06.808627 -0500,
112,112,0,critical,wdh,35.0,3.0,lower,57.0,133.0,70.0,70.0,133.0,57.0,1,2.0776121616363525,None,,,,,0,0,0,0,0,112,112,74,372.12877321243286,,,,,,,,,,,,,,,,,,,,,,,,,,,,,,,,,,,,,,,,,,,,,,,,,,,,,,,,,,,,,,,,,,,,,,,,,,,,,,,,,57.0,133.0,70.0,70.0,133.0,57.0,3.0,3.1,-198,287,0,11,160,-257,372.10999298095703,372.11007380485535,372.11315417289734,372.12877321243286,372.26917243003845,372.26917243003845,372.26917243003845,372.26917243003845,372.26917243003845,372.26917243003845,372.26917243003845,374.21821641921997,1,2.0776121616363525,None,,,,,,,,,,,,,,,,,,97,6,2025-02-24_13h18.49.109,comp,2024.2.4,43.6836590796893,2025-02-24 13h24.06.808627 -0500,
113,113,0,filler_square,None,None,None,None,None,None,None,None,None,None,3,0.8356978893280029,None,,,,,0,0,0,0,0,113,113,194,374.2348132133484,,,,,,,,,,,,,,,,,,,,,,,,,,,,,,,,,,,,,,,,,,,,,,,,,,,,,,,,,,,,,,,,,,,,,,,,,,,,,,,,,112.63052412910113,107.28854048497365,75.80973915840272,160.66411285761416,193.25650200008127,193.25650200008127,2.1,2.11,-230,289,0,281,273,-261,374.2200360298157,374.2201108932495,374.2235105037689,374.2348132133484,374.3837351799011,374.3837351799011,374.3837351799011,374.3837351799011,374.3837351799011,374.3837351799011,374.3837351799011,375.0876955986023,3,0.8356978893280029,None,,,,,,,,,,,,,,,,,,97,6,2025-02-24_13h18.49.109,comp,2024.2.4,43.6836590796893,2025-02-24 13h24.06.808627 -0500,
114,114,0,filler_random,None,None,None,None,None,None,None,None,None,None,1,1.7445168495178223,None,,,,,0,0,0,0,0,114,114,161,375.1034359931946,,,,,,,,,,,,,,,,,,,,,,,,,,,,,,,,,,,,,,,,,,,,,,,,,,,,,,,,,,,,,,,,,,,,,,,,,,,,,,,,,172.17278212385966,92.5399130127271,84.42622211707777,138.10369114226916,74.35444677441225,143.81679198291226,4.0,4.1,-211,-251,0,2,237,-254,375.0895621776581,375.08968901634216,375.0931718349457,375.1034359931946,375.2594561576843,375.2594561576843,375.2594561576843,375.2594561576843,375.2594561576843,375.2594561576843,375.2594561576843,376.8529496192932,1,1.7445168495178223,None,,,,,,,,,,,,,,,,,,97,6,2025-02-24_13h18.49.109,comp,2024.2.4,43.6836590796893,2025-02-24 13h24.06.808627 -0500,
115,115,0,critical,wdh,20.0,2.1,upper,125.0,200.0,141.0,141.0,200.0,125.0,1,2.698167324066162,None,,,,,0,0,0,0,0,115,115,35,376.8691740036011,,,,,,,,,,,,,,,,,,,,,,,,,,,,,,,,,,,,,,,,,,,,,,,,,,,,,,,,,,,,,,,,,,,,,,,,,,,,,,,,,125.0,200.0,141.0,141.0,200.0,125.0,2.1,2.11,-266,285,0,285,229,-252,376.8543074131012,376.8544034957886,376.85754466056824,376.8691740036011,377.0237557888031,377.0237557888031,377.0237557888031,377.0237557888031,377.0237557888031,377.0237557888031,377.0237557888031,379.5736300945282,1,2.698167324066162,None,,,,,,,,,,,,,,,,,,97,6,2025-02-24_13h18.49.109,comp,2024.2.4,43.6836590796893,2025-02-24 13h24.06.808627 -0500,
116,116,0,critical,hdw,20.0,3.0,upper,200.0,125.0,141.0,141.0,125.0,200.0,3,1.6976318359375,None,,,,,0,0,0,0,0,116,116,117,379.5894310474396,,,,,,,,,,,,,,,,,,,,,,,,,,,,,,,,,,,,,,,,,,,,,,,,,,,,,,,,,,,,,,,,,,,,,,,,,,,,,,,,,200.0,125.0,141.0,141.0,125.0,200.0,3.0,3.2,-229,-281,0,-11,266,282,379.5752913951874,379.57541608810425,379.57874155044556,379.5894310474396,379.7388060092926,379.7388060092926,379.7388060092926,379.7388060092926,379.7388060092926,379.7388060092926,379.7388060092926,381.29393243789673,3,1.6976318359375,None,,,,,,,,,,,,,,,,,,97,6,2025-02-24_13h18.49.109,comp,2024.2.4,43.6836590796893,2025-02-24 13h24.06.808627 -0500,
117,117,0,filler_random,None,None,None,None,None,None,None,None,None,None,2,2.1564345359802246,None,,,,,0,0,0,0,0,117,117,162,381.3143033981323,,,,,,,,,,,,,,,,,,,,,,,,,,,,,,,,,,,,,,,,,,,,,,,,,,,,,,,,,,,,,,,,,,,,,,,,,,,,,,,,,83.20655942018647,159.53829236827892,132.8102516812991,79.59997762587842,88.6024894440296,88.34308822255402,2.1,2.11,-216,251,0,266,180,-257,381.2955768108368,381.2956519126892,381.2987217903137,381.3143033981323,381.45829916000366,381.45829916000366,381.45829916000366,381.45829916000366,381.45829916000366,381.45829916000366,381.45829916000366,383.4761242866516,2,2.1564345359802246,None,,,,,,,,,,,,,,,,,,97,6,2025-02-24_13h18.49.109,comp,2024.2.4,43.6836590796893,2025-02-24 13h24.06.808627 -0500,
118,118,0,critical,hdw,35.0,2.1,lower,133.0,57.0,70.0,70.0,57.0,133.0,1,None,None,,,,,0,0,0,0,0,118,118,20,383.492050409317,,,,,,,,,,,,,,,,,,,,,,,,,,,,,,,,,,,,,,,,,,,,,,,,,,,,,,,,,,,,,,,,,,,,,,,,,,,,,,,,,133.0,57.0,70.0,70.0,57.0,133.0,2.1,2.12,-160,-262,0,-257,198,286,383.4777021408081,383.4778428077698,383.48118567466736,383.492050409317,,,,,,,,383.5727729797363,1,None,None,,,,,,,,,,,,,,,,,,97,6,2025-02-24_13h18.49.109,comp,2024.2.4,43.6836590796893,2025-02-24 13h24.06.808627 -0500,
119,119,0,filler_square,None,None,None,None,None,None,None,None,None,None,2,1.0255212783813477,None,,,,,0,0,0,0,0,119,119,195,383.58902311325073,,,,,,,,,,,,,,,,,,,,,,,,,,,,,,,,,,,,,,,,,,,,,,,,,,,,,,,,,,,,,,,,,,,,,,,,,,,,,,,,,150.9367946602722,101.84276429354654,180.45200598486616,180.45200598486616,177.59356451584438,115.22371577733219,4.0,4.2,-237,-6,0,-286,244,14,383.57456064224243,383.57463932037354,383.57875180244446,383.58902311325073,383.7384786605835,383.7384786605835,383.7384786605835,383.7384786605835,383.7384786605835,383.7384786605835,383.7384786605835,384.6268153190613,2,1.0255212783813477,None,,,,,,,,,,,,,,,,,,97,6,2025-02-24_13h18.49.109,comp,2024.2.4,43.6836590796893,2025-02-24 13h24.06.808627 -0500,
120,120,0,critical,whd,20.0,3.0,lower,57.0,133.0,133.0,57.0,78.0,78.0,1,2.8186445236206055,None,,,,,0,0,0,0,0,120,120,92,384.6465334892273,,,,,,,,,,,,,,,,,,,,,,,,,,,,,,,,,,,,,,,,,,,,,,,,,,,,,,,,,,,,,,,,,,,,,,,,,,,,,,,,,57.0,133.0,133.0,57.0,78.0,78.0,3.0,3.2,-191,-253,0,18,164,287,384.6283254623413,384.62842988967896,384.63155817985535,384.6465334892273,384.7896158695221,384.7896158695221,384.7896158695221,384.7896158695221,384.7896158695221,384.7896158695221,384.7896158695221,387.47521567344666,1,2.8186445236206055,None,,,,,,,,,,,,,,,,,,97,6,2025-02-24_13h18.49.109,comp,2024.2.4,43.6836590796893,2025-02-24 13h24.06.808627 -0500,
121,121,0,critical,wdh,35.0,2.1,upper,125.0,200.0,127.0,127.0,200.0,125.0,1,1.027189016342163,None,,,,,0,0,0,0,0,121,121,33,387.4914276599884,,,,,,,,,,,,,,,,,,,,,,,,,,,,,,,,,,,,,,,,,,,,,,,,,,,,,,,,,,,,,,,,,,,,,,,,,,,,,,,,,125.0,200.0,127.0,127.0,200.0,125.0,2.1,2.12,-260,-253,0,-284,222,277,387.47687292099,387.47695088386536,387.4805746078491,387.4914276599884,387.63424015045166,387.63424015045166,387.63424015045166,387.63424015045166,387.63424015045166,387.63424015045166,387.63424015045166,388.52108001708984,1,1.027189016342163,None,,,,,,,,,,,,,,,,,,97,6,2025-02-24_13h18.49.109,comp,2024.2.4,43.6836590796893,2025-02-24 13h24.06.808627 -0500,
122,122,0,filler_random,None,None,None,None,None,None,None,None,None,None,1,1.1642711162567139,None,,,,,0,0,0,0,0,122,122,165,388.53871154785156,,,,,,,,,,,,,,,,,,,,,,,,,,,,,,,,,,,,,,,,,,,,,,,,,,,,,,,,,,,,,,,,,,,,,,,,,,,,,,,,,138.7388189745185,110.20784947044159,185.16419598422826,165.7321381441385,63.56306379870757,177.30115040125548,1.0,1.1,-714,268,-480,260,-212,273,388.52287769317627,388.5229775905609,388.52640748023987,388.53871154785156,388.69437432289124,388.69437432289124,388.69437432289124,388.69437432289124,388.69437432289124,388.69437432289124,388.69437432289124,389.71286368370056,1,1.1642711162567139,None,,,,,,,,,,,,,,,,,,97,6,2025-02-24_13h18.49.109,comp,2024.2.4,43.6836590796893,2025-02-24 13h24.06.808627 -0500,
123,123,0,catch,None,None,None,None,None,None,None,None,None,None,2,0.9471738338470459,None,,,,,0,0,0,0,0,123,123,125,389.7315936088562,,,,,,,,,,,,,,,,,,,,,,,,,,,,,,,,,,,,,,,,,,,,,,,,,,,,,,,,,,,,,,,,,,,,,,,,,,,,,,,,,109,81,180,145,125,65,2.1,2.11,-209,259,0,264,201,-270,389.7148349285126,389.7149121761322,389.7184934616089,389.7315936088562,389.8747239112854,389.8747239112854,389.8747239112854,389.8747239112854,389.8747239112854,389.8747239112854,389.8747239112854,390.68365478515625,2,0.9471738338470459,None,,,,,,,,,,,,,,,,,,97,6,2025-02-24_13h18.49.109,comp,2024.2.4,43.6836590796893,2025-02-24 13h24.06.808627 -0500,
124,124,0,critical,wdh,35.0,2.1,lower,57.0,133.0,70.0,70.0,133.0,57.0,1,1.3716437816619873,None,,,,,0,0,0,0,0,124,124,32,390.69910192489624,,,,,,,,,,,,,,,,,,,,,,,,,,,,,,,,,,,,,,,,,,,,,,,,,,,,,,,,,,,,,,,,,,,,,,,,,,,,,,,,,57.0,133.0,70.0,70.0,133.0,57.0,2.1,2.11,-198,289,0,277,160,-271,390.6851694583893,390.6852490901947,390.6883702278137,390.69910192489624,390.8403699398041,390.8403699398041,390.8403699398041,390.8403699398041,390.8403699398041,390.8403699398041,390.8403699398041,392.0743796825409,1,1.3716437816619873,None,,,,,,,,,,,,,,,,,,97,6,2025-02-24_13h18.49.109,comp,2024.2.4,43.6836590796893,2025-02-24 13h24.06.808627 -0500,
125,125,0,catch,None,None,None,None,None,None,None,None,None,None,3,0.9635260105133057,None,,,,,0,0,0,0,0,125,125,124,392.09112524986267,,,,,,,,,,,,,,,,,,,,,,,,,,,,,,,,,,,,,,,,,,,,,,,,,,,,,,,,,,,,,,,,,,,,,,,,,,,,,,,,,108,82,132,58,175,150,3.0,3.2,-166,-289,0,-4,200,254,392.0762174129486,392.0762939453125,392.0795545578003,392.09112524986267,392.24081897735596,392.24081897735596,392.24081897735596,392.24081897735596,392.24081897735596,392.24081897735596,392.24081897735596,393.06666231155396,3,0.9635260105133057,None,,,,,,,,,,,,,,,,,,97,6,2025-02-24_13h18.49.109,comp,2024.2.4,43.6836590796893,2025-02-24 13h24.06.808627 -0500,
126,126,0,critical,hdw,20.0,2.1,upper,200.0,125.0,141.0,141.0,125.0,200.0,3,0.8274562358856201,None,,,,,0,0,0,0,0,126,126,23,393.08290672302246,,,,,,,,,,,,,,,,,,,,,,,,,,,,,,,,,,,,,,,,,,,,,,,,,,,,,,,,,,,,,,,,,,,,,,,,,,,,,,,,,200.0,125.0,141.0,141.0,125.0,200.0,2.1,2.12,-229,-272,0,-252,266,258,393.06828713417053,393.06839966773987,393.07188415527344,393.08290672302246,393.2246370315552,393.2246370315552,393.2246370315552,393.2246370315552,393.2246370315552,393.2246370315552,393.2246370315552,393.9251685142517,3,0.8274562358856201,None,,,,,,,,,,,,,,,,,,97,6,2025-02-24_13h18.49.109,comp,2024.2.4,43.6836590796893,2025-02-24 13h24.06.808627 -0500,
127,127,0,filler_random,None,None,None,None,None,None,None,None,None,None,2,1.5694847106933594,None,,,,,0,0,0,0,0,127,127,139,393.94095373153687,,,,,,,,,,,,,,,,,,,,,,,,,,,,,,,,,,,,,,,,,,,,,,,,,,,,,,,,,,,,,,,,,,,,,,,,,,,,,,,,,118.05107185687098,144.75206875293168,172.52121695806525,187.76498597099527,148.97761418217578,167.72844483411495,3.0,3.1,-262,259,0,-1,274,-280,393.9268989562988,393.92697858810425,393.930584192276,393.94095373153687,394.092675447464,394.092675447464,394.092675447464,394.092675447464,394.092675447464,394.092675447464,394.092675447464,395.5255060195923,2,1.5694847106933594,None,,,,,,,,,,,,,,,,,,97,6,2025-02-24_13h18.49.109,comp,2024.2.4,43.6836590796893,2025-02-24 13h24.06.808627 -0500,
128,128,0,critical,dwh,35.0,4.0,lower,70.0,70.0,57.0,133.0,133.0,57.0,2,3.8409950733184814,None,,,,,0,0,0,0,0,128,128,64,395.5421805381775,,,,,,,,,,,,,,,,,,,,,,,,,,,,,,,,,,,,,,,,,,,,,,,,,,,,,,,,,,,,,,,,,,,,,,,,,,,,,,,,,70.0,70.0,57.0,133.0,133.0,57.0,4.0,4.1,-198,-253,0,-18,191,-278,395.52710366249084,395.52720761299133,395.53077459335327,395.5421805381775,395.69565987586975,395.69565987586975,395.69565987586975,395.69565987586975,395.69565987586975,395.69565987586975,395.69565987586975,399.3915967941284,2,3.8409950733184814,None,,,,,,,,,,,,,,,,,,97,6,2025-02-24_13h18.49.109,comp,2024.2.4,43.6836590796893,2025-02-24 13h24.06.808627 -0500,
129,129,0,critical,hdw,35.0,2.1,upper,200.0,125.0,127.0,127.0,125.0,200.0,1,0.9264585971832275,None,,,,,0,0,0,0,0,129,129,45,399.4084870815277,,,,,,,,,,,,,,,,,,,,,,,,,,,,,,,,,,,,,,,,,,,,,,,,,,,,,,,,,,,,,,,,,,,,,,,,,,,,,,,,,200.0,125.0,127.0,127.0,125.0,200.0,2.1,2.12,-222,-287,0,-286,260,278,399.39307737350464,399.39315271377563,399.3962330818176,399.4084870815277,399.5652229785919,399.5652229785919,399.5652229785919,399.5652229785919,399.5652229785919,399.5652229785919,399.5652229785919,400.3371868133545,1,0.9264585971832275,None,,,,,,,,,,,,,,,,,,97,6,2025-02-24_13h18.49.109,comp,2024.2.4,43.6836590796893,2025-02-24 13h24.06.808627 -0500,
130,130,0,filler_random,None,None,None,None,None,None,None,None,None,None,1,1.6447477340698242,None,,,,,0,0,0,0,0,130,130,148,400.35363268852234,,,,,,,,,,,,,,,,,,,,,,,,,,,,,,,,,,,,,,,,,,,,,,,,,,,,,,,,,,,,,,,,,,,,,,,,,,,,,,,,,189.35150066783248,169.62005933540394,124.04954331577402,139.5199087134934,121.59242360376518,198.5871451960576,4.0,4.1,-251,-280,0,14,265,-265,400.338800907135,400.3388772010803,400.34190678596497,400.35363268852234,400.4956142902374,400.4956142902374,400.4956142902374,400.4956142902374,400.4956142902374,400.4956142902374,400.4956142902374,402.01196551322937,1,1.6447477340698242,None,,,,,,,,,,,,,,,,,,97,6,2025-02-24_13h18.49.109,comp,2024.2.4,43.6836590796893,2025-02-24 13h24.06.808627 -0500,
131,131,0,critical,hwd,20.0,4.0,upper,200.0,125.0,125.0,200.0,141.0,141.0,2,2.219052314758301,None,,,,,0,0,0,0,0,131,131,107,402.0279757976532,,,,,,,,,,,,,,,,,,,,,,,,,,,,,,,,,,,,,,,,,,,,,,,,,,,,,,,,,,,,,,,,,,,,,,,,,,,,,,,,,200.0,125.0,125.0,200.0,141.0,141.0,4.0,4.1,-258,-275,0,5,266,-278,402.01347303390503,402.013551235199,402.0167763233185,402.0279757976532,402.18118476867676,402.18118476867676,402.18118476867676,402.18118476867676,402.18118476867676,402.18118476867676,402.18118476867676,404.25026655197144,2,2.219052314758301,None,,,,,,,,,,,,,,,,,,97,6,2025-02-24_13h18.49.109,comp,2024.2.4,43.6836590796893,2025-02-24 13h24.06.808627 -0500,
132,132,0,filler_random,None,None,None,None,None,None,None,None,None,None,2,1.0912971496582031,None,,,,,0,0,0,0,0,132,132,152,404.26745319366455,,,,,,,,,,,,,,,,,,,,,,,,,,,,,,,,,,,,,,,,,,,,,,,,,,,,,,,,,,,,,,,,,,,,,,,,,,,,,,,,,63.748199577857484,78.3892618177998,159.64905747395989,111.23204850255405,76.24010881747091,181.41379270304145,3.0,3.1,-191,277,0,-8,242,-274,404.2520875930786,404.25221991539,404.2558789253235,404.26745319366455,404.412428855896,404.412428855896,404.412428855896,404.412428855896,404.412428855896,404.412428855896,404.412428855896,405.3618881702423,2,1.0912971496582031,None,,,,,,,,,,,,,,,,,,97,6,2025-02-24_13h18.49.109,comp,2024.2.4,43.6836590796893,2025-02-24 13h24.06.808627 -0500,
133,133,0,filler_square,None,None,None,None,None,None,None,None,None,None,2,0.8200128078460693,None,,,,,0,0,0,0,0,133,133,180,405.3783814907074,,,,,,,,,,,,,,,,,,,,,,,,,,,,,,,,,,,,,,,,,,,,,,,,,,,,,,,,,,,,,,,,,,,,,,,,,,,,,,,,,71.61259322359177,139.93895842030548,148.7467997849643,148.7467997849643,103.14309496708076,98.12301322104159,2.2,2.21,-240,-262,0,285,219,279,405.36361742019653,405.363694190979,405.3668336868286,405.3783814907074,405.5298638343811,405.5298638343811,405.5298638343811,405.5298638343811,405.5298638343811,405.5298638343811,405.5298638343811,406.212366104126,2,0.8200128078460693,None,,,,,,,,,,,,,,,,,,97,6,2025-02-24_13h18.49.109,comp,2024.2.4,43.6836590796893,2025-02-24 13h24.06.808627 -0500,
134,134,0,critical,whd,35.0,1.0,upper,125.0,200.0,200.0,125.0,127.0,127.0,1,1.602344274520874,None,,,,,0,0,0,0,0,134,134,85,406.2280898094177,,,,,,,,,,,,,,,,,,,,,,,,,,,,,,,,,,,,,,,,,,,,,,,,,,,,,,,,,,,,,,,,,,,,,,,,,,,,,,,,,125.0,200.0,200.0,125.0,127.0,127.0,1.0,1.2,-258,13,0,8,222,-14,406.21377420425415,406.2138466835022,406.21689653396606,406.2280898094177,406.37893629074097,406.37893629074097,406.37893629074097,406.37893629074097,406.37893629074097,406.37893629074097,406.37893629074097,407.83250880241394,1,1.602344274520874,None,,,,,,,,,,,,,,,,,,97,6,2025-02-24_13h18.49.109,comp,2024.2.4,43.6836590796893,2025-02-24 13h24.06.808627 -0500,
135,135,0,filler_random,None,None,None,None,None,None,None,None,None,None,2,1.1559007167816162,None,,,,,0,0,0,0,0,135,135,140,407.851420879364,,,,,,,,,,,,,,,,,,,,,,,,,,,,,,,,,,,,,,,,,,,,,,,,,,,,,,,,,,,,,,,,,,,,,,,,,,,,,,,,,152.4151527691331,124.17968240837482,146.2568143990764,191.77435680202757,183.36735095828118,96.82492094004016,1.0,1.3,226,-277,480,-267,720,-267,407.83449935913086,407.834596157074,407.83817529678345,407.851420879364,407.99830174446106,407.99830174446106,407.99830174446106,407.99830174446106,407.99830174446106,407.99830174446106,407.99830174446106,409.01362919807434,2,1.1559007167816162,None,,,,,,,,,,,,,,,,,,97,6,2025-02-24_13h18.49.109,comp,2024.2.4,43.6836590796893,2025-02-24 13h24.06.808627 -0500,
136,136,0,critical,hwd,20.0,3.0,upper,200.0,125.0,125.0,200.0,141.0,141.0,1,2.4387998580932617,None,,,,,0,0,0,0,0,136,136,105,409.0316665172577,,,,,,,,,,,,,,,,,,,,,,,,,,,,,,,,,,,,,,,,,,,,,,,,,,,,,,,,,,,,,,,,,,,,,,,,,,,,,,,,,200.0,125.0,125.0,200.0,141.0,141.0,3.0,3.2,-258,-273,0,-19,266,261,409.0151493549347,409.01522994041443,409.0186161994934,409.0316665172577,409.18194675445557,409.18194675445557,409.18194675445557,409.18194675445557,409.18194675445557,409.18194675445557,409.18194675445557,411.48357796669006,1,2.4387998580932617,None,,,,,,,,,,,,,,,,,,97,6,2025-02-24_13h18.49.109,comp,2024.2.4,43.6836590796893,2025-02-24 13h24.06.808627 -0500,
137,137,0,filler_square,None,None,None,None,None,None,None,None,None,None,1,3.483774185180664,None,,,,,0,0,0,0,0,137,137,170,411.4990601539612,,,,,,,,,,,,,,,,,,,,,,,,,,,,,,,,,,,,,,,,,,,,,,,,,,,,,,,,,,,,,,,,,,,,,,,,,,,,,,,,,67.27805654206689,67.27805654206689,59.328069712152804,60.098860998635985,57.27867103085569,58.53542670027468,2.1,2.12,-160,-252,0,-280,155,252,411.48545813560486,411.48553586006165,411.4888074398041,411.4990601539612,411.653995513916,411.653995513916,411.653995513916,411.653995513916,411.653995513916,411.653995513916,411.653995513916,415.0049924850464,1,3.483774185180664,None,,,,,,,,,,,,,,,,,,97,6,2025-02-24_13h18.49.109,comp,2024.2.4,43.6836590796893,2025-02-24 13h24.06.808627 -0500,
138,138,0,critical,dhw,20.0,2.1,upper,141.0,141.0,200.0,125.0,125.0,200.0,3,1.486663818359375,None,,,,,0,0,0,0,0,138,138,3,415.0238661766052,,,,,,,,,,,,,,,,,,,,,,,,,,,,,,,,,,,,,,,,,,,,,,,,,,,,,,,,,,,,,,,,,,,,,,,,,,,,,,,,,141.0,141.0,200.0,125.0,125.0,200.0,2.1,2.12,-229,-252,0,-256,258,266,415.0065405368805,415.00661993026733,415.0096755027771,415.0238661766052,415.16410398483276,415.16410398483276,415.16410398483276,415.16410398483276,415.16410398483276,415.16410398483276,415.16410398483276,416.52345061302185,3,1.486663818359375,None,,,,,,,,,,,,,,,,,,97,6,2025-02-24_13h18.49.109,comp,2024.2.4,43.6836590796893,2025-02-24 13h24.06.808627 -0500,
139,139,0,critical,hwd,20.0,1.0,lower,133.0,57.0,57.0,133.0,78.0,78.0,1,8.211477279663086,None,,,,,0,0,0,0,0,139,139,102,416.5389289855957,,,,,,,,,,,,,,,,,,,,,,,,,,,,,,,,,,,,,,,,,,,,,,,,,,,,,,,,,,,,,,,,,,,,,,,,,,,,,,,,,133.0,57.0,57.0,133.0,78.0,78.0,1.0,1.3,289,-259,480,-281,682,-258,416.52510023117065,416.5251815319061,416.5286343097687,416.5389289855957,416.681978225708,416.681978225708,416.681978225708,416.681978225708,416.681978225708,416.681978225708,416.681978225708,424.7680299282074,1,8.211477279663086,None,,,,,,,,,,,,,,,,,,97,6,2025-02-24_13h18.49.109,comp,2024.2.4,43.6836590796893,2025-02-24 13h24.06.808627 -0500,
140,140,0,filler_random,None,None,None,None,None,None,None,None,None,None,3,1.7330846786499023,None,,,,,0,0,0,0,0,140,140,158,424.78605484962463,,,,,,,,,,,,,,,,,,,,,,,,,,,,,,,,,,,,,,,,,,,,,,,,,,,,,,,,,,,,,,,,,,,,,,,,,,,,,,,,,78.75373677302252,58.19374347006433,68.84648859315088,68.90660319687237,160.61566978599973,111.67158661730966,4.0,4.1,-160,-250,0,-13,186,-283,424.7696874141693,424.7697594165802,424.77294921875,424.78605484962463,424.9364478588104,424.9364478588104,424.9364478588104,424.9364478588104,424.9364478588104,424.9364478588104,424.9364478588104,426.5255489349365,3,1.7330846786499023,None,,,,,,,,,,,,,,,,,,97,6,2025-02-24_13h18.49.109,comp,2024.2.4,43.6836590796893,2025-02-24 13h24.06.808627 -0500,
