thisN,thisTrialN,thisRepN,effect,order,distance,config,diag,h_1,w_1,h_2,w_2,h_3,w_3,rect_choice.keys,rect_choice.rt,rect_choice.duration,instructions_loop.thisRepN,instructions_loop.thisTrialN,instructions_loop.thisN,instructions_loop.thisIndex,blocks.thisRepN,blocks.thisTrialN,blocks.thisN,blocks.thisIndex,trials.thisRepN,trials.thisTrialN,trials.thisN,trials.thisIndex,thisRow.t,notes,consent.started,agree_button.started,decline_button.started,consent_img.started,mouse.started,consent.stopped,agree_button.numClicks,agree_button.timesOn,agree_button.timesOff,decline_button.numClicks,decline_button.timesOn,decline_button.timesOff,mouse.x,mouse.y,mouse.leftButton,mouse.midButton,mouse.rightButton,mouse.time,mouse.clicked_name,exp_params.started,exp_params.stopped,welcome.started,welcome_text.started,welcome.stopped,instructions_1.started,instructions_1_text_1.started,instructions_1_text_2.started,key_resp.started,instructions_1.stopped,instructions_loop.key_resp.keys,instructions_loop.key_resp.rt,instructions_loop.key_resp.duration,instructions_2.started,instructions_2_text_1.started,instructions_2_text_2.started,key_resp_2.started,instructions_2.stopped,instructions_loop.key_resp_2.keys,instructions_loop.key_resp_2.rt,instructions_loop.key_resp_2.duration,instructions_3.started,instructions_3_text_1.started,r1_instr3.started,r2_instr3.started,r3_instr3.started,r1_instr3_label.started,r2_instr3_label.started,r3_instr3_label.started,instructions_3_text_3.started,instructions_3_text_4.started,key_resp_3.started,instructions_3.stopped,instructions_loop.key_resp_3.keys,instructions_loop.key_resp_3.rt,instructions_loop.key_resp_3.duration,instructions_4.started,instructions_4_text_1.started,instructions_4_text_3.started,instructions_4_text_2.started,key_resp_4.started,instructions_4.stopped,instructions_loop.key_resp_4.keys,instructions_loop.key_resp_4.rt,instructions_loop.key_resp_4.duration,instructions_5.started,instructions_5_text_1.started,instructions_5_text_2.started,key_resp_5.started,instructions_5.stopped,instructions_loop.key_resp_5.keys,instructions_loop.key_resp_5.rt,instructions_loop.key_resp_5.duration,start_exp.started,start_exp_text.started,key_resp_6.started,start_exp.stopped,key_resp_6.keys,key_resp_6.rt,key_resp_6.duration,h_1_tmp,w_1_tmp,h_2_tmp,w_2_tmp,h_3_tmp,w_3_tmp,config_tmp,config_tmp_1,r_1_x,r_1_y,r_2_x,r_2_y,r_3_x,r_3_y,pre_trial.started,pre_trial.stopped,choice_trial.started,rect_choice.started,r_1.started,r_2.started,r_3.started,r_1_label.started,r_2_label.started,r_3_label.started,prompt.started,choice_trial.stopped,trials.rect_choice.keys,trials.rect_choice.rt,trials.rect_choice.duration,end_block.started,end_block_text.started,end_block.stopped,end.started,end_text.started,key_resp_7.started,end.stopped,key_resp_7.keys,key_resp_7.rt,key_resp_7.duration,debriefing.started,debrief_form.started,end_debrief.started,debriefing.stopped,end_debrief.keys,end_debrief.rt,end_debrief.duration,participant,computer,date,expName,psychopyVersion,frameRate,expStart,
,,,,,,,,,,,,,,,,,,,,,,,,,,,,,,,0.014919757843017578,0.03759193420410156,0.03759193420410156,0.03759193420410156,0.0147247314453125,83.07505440711975,1,[83.03482985496521],[83.0348527431488],0,,,[-67.0],[-514.0],[1],[0],[0],[83.05971765518188],['agree_button'],,,,,,,,,,,,,,,,,,,,,,,,,,,,,,,,,,,,,,,,,,,,,,,,,,,,,,,,,,,,,,,,,,,,,,,,,,,,,,,,,,,,,,,,,,,,,,,,,,,,,,,,,,,98,1,2025-02-24_14h58.03.711,comp,2024.2.4,56.07748132223095,2025-02-24 14h58.18.324599 -0500,
,,,,,,,,,,,,,,,,,,,,,,,,,,,,,,,,,,,,,,,,,,,,,,,,,,83.07552599906921,83.07562446594238,,,,,,,,,,,,,,,,,,,,,,,,,,,,,,,,,,,,,,,,,,,,,,,,,,,,,,,,,,,,,,,,,,,,,,,,,,,,,,,,,,,,,,,,,,,,,,,,,,,,,,,,,98,1,2025-02-24_14h58.03.711,comp,2024.2.4,56.07748132223095,2025-02-24 14h58.18.324599 -0500,
,,,,,,,,,,,,,,,,,,,,,,,,,,,,,,,,,,,,,,,,,,,,,,,,,,,,83.07569694519043,83.09352493286133,85.07850337028503,,,,,,,,,,,,,,,,,,,,,,,,,,,,,,,,,,,,,,,,,,,,,,,,,,,,,,,,,,,,,,,,,,,,,,,,,,,,,,,,,,,,,,,,,,,,,,,,,,,,,,98,1,2025-02-24_14h58.03.711,comp,2024.2.4,56.07748132223095,2025-02-24 14h58.18.324599 -0500,
0,0,0,,,,,,,,,,,,,,,0,0,0,0,,,,,,,,,85.09471869468689,,,,,,,,,,,,,,,,,,,,,,,,,,85.07940220832825,85.09471869468689,85.09471869468689,86.57770991325378,91.879065990448,space,5.292526483535767,None,91.87921500205994,91.89587044715881,91.89587044715881,93.37994337081909,100.55013751983643,space,7.162471532821655,None,100.55028820037842,100.57994794845581,100.57994794845581,100.57994794845581,100.57994794845581,100.57994794845581,100.57994794845581,100.57994794845581,100.57994794845581,100.57994794845581,102.05307817459106,107.6358425617218,space,5.577203989028931,None,107.63607597351074,107.65352058410645,107.65352058410645,107.65352058410645,109.15013527870178,118.67365837097168,space,9.512485265731812,None,118.67381405830383,118.68866467475891,118.68866467475891,120.18677091598511,121.55621719360352,space,1.3551807403564453,None,121.55641388893127,121.56874632835388,121.56874632835388,123.12224292755127,space,1.5493066310882568,None,,,,,,,,,,,,,,,,,,,,,,,,,,,,,,,,,,,,,,,,,,,,,,,98,1,2025-02-24_14h58.03.711,comp,2024.2.4,56.07748132223095,2025-02-24 14h58.18.324599 -0500,
0,0,0,critical,whd,35.0,2.1,upper,125.0,200.0,200.0,125.0,127.0,127.0,2,14.272051572799683,None,,,,,0,0,0,0,0,0,0,37,123.1998827457428,,,,,,,,,,,,,,,,,,,,,,,,,,,,,,,,,,,,,,,,,,,,,,,,,,,,,,,,,,,,,,,,,,,,,,,,,,,,,,,,,125.0,200.0,200.0,125.0,127.0,127.0,2.1,2.12,-258,-253,0,-255,222,273,123.18302631378174,123.18306612968445,123.1844642162323,123.1998827457428,123.34998393058777,123.34998393058777,123.34998393058777,123.34998393058777,123.34998393058777,123.34998393058777,123.34998393058777,137.4773850440979,2,14.272051572799683,None,,,,,,,,,,,,,,,,,,98,1,2025-02-24_14h58.03.711,comp,2024.2.4,56.07748132223095,2025-02-24 14h58.18.324599 -0500,
1,1,0,filler_random,None,None,None,None,None,None,None,None,None,None,2,10.736435890197754,None,,,,,0,0,0,0,0,1,1,142,137.49387502670288,,,,,,,,,,,,,,,,,,,,,,,,,,,,,,,,,,,,,,,,,,,,,,,,,,,,,,,,,,,,,,,,,,,,,,,,,,,,,,,,,195.40986314258706,199.3477262627153,156.2008554512463,132.79815843107815,135.89028597039476,122.88232932751917,2.2,2.22,-262,278,0,-277,224,-277,137.47908449172974,137.4791600704193,137.48222160339355,137.49387502670288,137.64727067947388,137.64727067947388,137.64727067947388,137.64727067947388,137.64727067947388,137.64727067947388,137.64727067947388,148.2363555431366,2,10.736435890197754,None,,,,,,,,,,,,,,,,,,98,1,2025-02-24_14h58.03.711,comp,2024.2.4,56.07748132223095,2025-02-24 14h58.18.324599 -0500,
2,2,0,catch,None,None,None,None,None,None,None,None,None,None,1,3.0761682987213135,None,,,,,0,0,0,0,0,2,2,124,148.25760197639465,,,,,,,,,,,,,,,,,,,,,,,,,,,,,,,,,,,,,,,,,,,,,,,,,,,,,,,,,,,,,,,,,,,,,,,,,,,,,,,,,177,148,121,69,72,118,1.0,1.2,-204,17,0,6,190,-15,148.23856163024902,148.23864722251892,148.24197912216187,148.25760197639465,148.39797520637512,148.39797520637512,148.39797520637512,148.39797520637512,148.39797520637512,148.39797520637512,148.39797520637512,151.34861946105957,1,3.0761682987213135,None,,,,,,,,,,,,,,,,,,98,1,2025-02-24_14h58.03.711,comp,2024.2.4,56.07748132223095,2025-02-24 14h58.18.324599 -0500,
3,3,0,critical,wdh,20.0,4.0,upper,125.0,200.0,141.0,141.0,200.0,125.0,3,4.218225479125977,None,,,,,0,0,0,0,0,3,3,83,151.36368083953857,,,,,,,,,,,,,,,,,,,,,,,,,,,,,,,,,,,,,,,,,,,,,,,,,,,,,,,,,,,,,,,,,,,,,,,,,,,,,,,,,125.0,200.0,141.0,141.0,200.0,125.0,4.0,4.2,-266,1,0,-278,229,-9,151.35007882118225,151.3501524925232,151.35297656059265,151.36368083953857,151.51657342910767,151.51657342910767,151.51657342910767,151.51657342910767,151.51657342910767,151.51657342910767,151.51657342910767,155.58676648139954,3,4.218225479125977,None,,,,,,,,,,,,,,,,,,98,1,2025-02-24_14h58.03.711,comp,2024.2.4,56.07748132223095,2025-02-24 14h58.18.324599 -0500,
4,4,0,critical,hwd,35.0,3.0,upper,200.0,125.0,125.0,200.0,127.0,127.0,1,5.97652530670166,None,,,,,0,0,0,0,0,4,4,99,155.60593700408936,,,,,,,,,,,,,,,,,,,,,,,,,,,,,,,,,,,,,,,,,,,,,,,,,,,,,,,,,,,,,,,,,,,,,,,,,,,,,,,,,200.0,125.0,125.0,200.0,127.0,127.0,3.0,3.2,-258,-264,0,-17,260,282,155.58836603164673,155.58847165107727,155.59187126159668,155.60593700408936,155.75125169754028,155.75125169754028,155.75125169754028,155.75125169754028,155.75125169754028,155.75125169754028,155.75125169754028,161.58803129196167,1,5.97652530670166,None,,,,,,,,,,,,,,,,,,98,1,2025-02-24_14h58.03.711,comp,2024.2.4,56.07748132223095,2025-02-24 14h58.18.324599 -0500,
5,5,0,filler_random,None,None,None,None,None,None,None,None,None,None,2,4.043433666229248,None,,,,,0,0,0,0,0,5,5,168,161.60411977767944,,,,,,,,,,,,,,,,,,,,,,,,,,,,,,,,,,,,,,,,,,,,,,,,,,,,,,,,,,,,,,,,,,,,,,,,,,,,,,,,,115.33956785270874,88.63207138917187,159.9114625908118,83.58229878653862,67.71033795165624,62.46561342645545,3.0,3.2,-182,-262,0,6,169,278,161.589852809906,161.58993101119995,161.59321761131287,161.60411977767944,161.75972652435303,161.75972652435303,161.75972652435303,161.75972652435303,161.75972652435303,161.75972652435303,161.75972652435303,165.65265250205994,2,4.043433666229248,None,,,,,,,,,,,,,,,,,,98,1,2025-02-24_14h58.03.711,comp,2024.2.4,56.07748132223095,2025-02-24 14h58.18.324599 -0500,
6,6,0,critical,dhw,20.0,3.0,lower,78.0,78.0,133.0,57.0,57.0,133.0,2,3.816938877105713,None,,,,,0,0,0,0,0,6,6,56,165.6691188812256,,,,,,,,,,,,,,,,,,,,,,,,,,,,,,,,,,,,,,,,,,,,,,,,,,,,,,,,,,,,,,,,,,,,,,,,,,,,,,,,,78.0,78.0,133.0,57.0,57.0,133.0,3.0,3.2,-164,-269,0,-4,191,282,165.65416169166565,165.65423679351807,165.65731954574585,165.6691188812256,165.8098328113556,165.8098328113556,165.8098328113556,165.8098328113556,165.8098328113556,165.8098328113556,165.8098328113556,169.49152326583862,2,3.816938877105713,None,,,,,,,,,,,,,,,,,,98,1,2025-02-24_14h58.03.711,comp,2024.2.4,56.07748132223095,2025-02-24 14h58.18.324599 -0500,
7,7,0,catch,None,None,None,None,None,None,None,None,None,None,3,3.354334592819214,None,,,,,0,0,0,0,0,7,7,126,169.50738906860352,,,,,,,,,,,,,,,,,,,,,,,,,,,,,,,,,,,,,,,,,,,,,,,,,,,,,,,,,,,,,,,,,,,,,,,,,,,,,,,,,106,84,99,91,170,155,2.1,2.12,-184,-285,0,-251,219,272,169.49363112449646,169.49370741844177,169.49665212631226,169.50738906860352,169.65628862380981,169.65628862380981,169.65628862380981,169.65628862380981,169.65628862380981,169.65628862380981,169.65628862380981,172.87171983718872,3,3.354334592819214,None,,,,,,,,,,,,,,,,,,98,1,2025-02-24_14h58.03.711,comp,2024.2.4,56.07748132223095,2025-02-24 14h58.18.324599 -0500,
8,8,0,filler_square,None,None,None,None,None,None,None,None,None,None,1,6.538118362426758,None,,,,,0,0,0,0,0,8,8,183,172.89162039756775,,,,,,,,,,,,,,,,,,,,,,,,,,,,,,,,,,,,,,,,,,,,,,,,,,,,,,,,,,,,,,,,,,,,,,,,,,,,,,,,,98.5070401320166,73.83985010063768,99.28063603423189,95.79406001759659,141.72185862094028,141.72185862094028,2.1,2.12,-181,-286,0,-266,215,278,172.87348794937134,172.87359404563904,172.87677693367004,172.89162039756775,173.038733959198,173.038733959198,173.038733959198,173.038733959198,173.038733959198,173.038733959198,173.038733959198,179.4399607181549,1,6.538118362426758,None,,,,,,,,,,,,,,,,,,98,1,2025-02-24_14h58.03.711,comp,2024.2.4,56.07748132223095,2025-02-24 14h58.18.324599 -0500,
9,9,0,critical,wdh,20.0,3.0,lower,57.0,133.0,78.0,78.0,133.0,57.0,1,2.8060097694396973,None,,,,,0,0,0,0,0,9,9,80,179.45612287521362,,,,,,,,,,,,,,,,,,,,,,,,,,,,,,,,,,,,,,,,,,,,,,,,,,,,,,,,,,,,,,,,,,,,,,,,,,,,,,,,,57.0,133.0,78.0,78.0,133.0,57.0,3.0,3.2,-202,-279,0,-10,164,286,179.44143748283386,179.44151163101196,179.44438910484314,179.45612287521362,179.59650826454163,179.59650826454163,179.59650826454163,179.59650826454163,179.59650826454163,179.59650826454163,179.59650826454163,182.26542162895203,1,2.8060097694396973,None,,,,,,,,,,,,,,,,,,98,1,2025-02-24_14h58.03.711,comp,2024.2.4,56.07748132223095,2025-02-24 14h58.18.324599 -0500,
10,10,0,critical,dhw,20.0,2.1,upper,141.0,141.0,200.0,125.0,125.0,200.0,3,8.47010064125061,None,,,,,0,0,0,0,0,10,10,3,182.28063321113586,,,,,,,,,,,,,,,,,,,,,,,,,,,,,,,,,,,,,,,,,,,,,,,,,,,,,,,,,,,,,,,,,,,,,,,,,,,,,,,,,141.0,141.0,200.0,125.0,125.0,200.0,2.1,2.11,-229,274,0,263,258,-256,182.26697826385498,182.26705360412598,182.26982498168945,182.28063321113586,182.42609882354736,182.42609882354736,182.42609882354736,182.42609882354736,182.42609882354736,182.42609882354736,182.42609882354736,190.7604432106018,3,8.47010064125061,None,,,,,,,,,,,,,,,,,,98,1,2025-02-24_14h58.03.711,comp,2024.2.4,56.07748132223095,2025-02-24 14h58.18.324599 -0500,
11,11,0,filler_random,None,None,None,None,None,None,None,None,None,None,2,3.96905779838562,None,,,,,0,0,0,0,0,11,11,159,190.78081512451172,,,,,,,,,,,,,,,,,,,,,,,,,,,,,,,,,,,,,,,,,,,,,,,,,,,,,,,,,,,,,,,,,,,,,,,,,,,,,,,,,84.4355639296626,123.13091931266426,76.27133993820269,188.25809746973982,192.4104687740362,189.70101209073894,3.0,3.2,-252,-275,0,2,285,283,190.76226234436035,190.7623679637909,190.76581954956055,190.78081512451172,190.9162564277649,190.9162564277649,190.9162564277649,190.9162564277649,190.9162564277649,190.9162564277649,190.9162564277649,194.76594710350037,2,3.96905779838562,None,,,,,,,,,,,,,,,,,,98,1,2025-02-24_14h58.03.711,comp,2024.2.4,56.07748132223095,2025-02-24 14h58.18.324599 -0500,
12,12,0,critical,hdw,20.0,1.0,lower,133.0,57.0,78.0,78.0,57.0,133.0,1,4.158771276473999,None,,,,,0,0,0,0,0,12,12,114,194.78367161750793,,,,,,,,,,,,,,,,,,,,,,,,,,,,,,,,,,,,,,,,,,,,,,,,,,,,,,,,,,,,,,,,,,,,,,,,,,,,,,,,,133.0,57.0,78.0,78.0,57.0,133.0,1.0,1.3,316,-265,480,-269,682,-277,194.76777458190918,194.76790046691895,194.77095103263855,194.78367161750793,194.92915558815002,194.92915558815002,194.92915558815002,194.92915558815002,194.92915558815002,194.92915558815002,194.92915558815002,198.94740676879883,1,4.158771276473999,None,,,,,,,,,,,,,,,,,,98,1,2025-02-24_14h58.03.711,comp,2024.2.4,56.07748132223095,2025-02-24 14h58.18.324599 -0500,
13,13,0,filler_random,None,None,None,None,None,None,None,None,None,None,2,3.5384161472320557,None,,,,,0,0,0,0,0,13,13,147,198.96349430084229,,,,,,,,,,,,,,,,,,,,,,,,,,,,,,,,,,,,,,,,,,,,,,,,,,,,,,,,,,,,,,,,,,,,,,,,,,,,,,,,,130.68227668241963,71.71905150630732,136.51609335413303,154.76126852835097,89.48296456012501,145.5749142588259,1.0,1.1,-689,257,-480,286,-234,260,198.9491765499115,198.9492518901825,198.9525830745697,198.96349430084229,199.10472583770752,199.10472583770752,199.10472583770752,199.10472583770752,199.10472583770752,199.10472583770752,199.10472583770752,202.51887202262878,2,3.5384161472320557,None,,,,,,,,,,,,,,,,,,98,1,2025-02-24_14h58.03.711,comp,2024.2.4,56.07748132223095,2025-02-24 14h58.18.324599 -0500,
14,14,0,critical,dwh,20.0,4.0,lower,78.0,78.0,57.0,133.0,133.0,57.0,3,3.8791229724884033,None,,,,,0,0,0,0,0,14,14,70,202.53542160987854,,,,,,,,,,,,,,,,,,,,,,,,,,,,,,,,,,,,,,,,,,,,,,,,,,,,,,,,,,,,,,,,,,,,,,,,,,,,,,,,,78.0,78.0,57.0,133.0,133.0,57.0,4.0,4.1,-202,-287,0,14,191,-275,202.52043962478638,202.52051401138306,202.5241870880127,202.53542160987854,202.68241620063782,202.68241620063782,202.68241620063782,202.68241620063782,202.68241620063782,202.68241620063782,202.68241620063782,206.4170207977295,3,3.8791229724884033,None,,,,,,,,,,,,,,,,,,98,1,2025-02-24_14h58.03.711,comp,2024.2.4,56.07748132223095,2025-02-24 14h58.18.324599 -0500,
15,15,0,critical,hwd,35.0,2.1,upper,200.0,125.0,125.0,200.0,127.0,127.0,1,3.0857763290405273,None,,,,,0,0,0,0,0,15,15,17,206.4323012828827,,,,,,,,,,,,,,,,,,,,,,,,,,,,,,,,,,,,,,,,,,,,,,,,,,,,,,,,,,,,,,,,,,,,,,,,,,,,,,,,,200.0,125.0,125.0,200.0,127.0,127.0,2.1,2.11,-258,260,0,283,260,-253,206.41861057281494,206.41868448257446,206.42161583900452,206.4323012828827,206.5839343070984,206.5839343070984,206.5839343070984,206.5839343070984,206.5839343070984,206.5839343070984,206.5839343070984,209.5213806629181,1,3.0857763290405273,None,,,,,,,,,,,,,,,,,,98,1,2025-02-24_14h58.03.711,comp,2024.2.4,56.07748132223095,2025-02-24 14h58.18.324599 -0500,
16,16,0,critical,hwd,20.0,2.1,lower,133.0,57.0,57.0,133.0,78.0,78.0,1,2.6478030681610107,None,,,,,0,0,0,0,0,16,16,42,209.54225897789001,,,,,,,,,,,,,,,,,,,,,,,,,,,,,,,,,,,,,,,,,,,,,,,,,,,,,,,,,,,,,,,,,,,,,,,,,,,,,,,,,133.0,57.0,57.0,133.0,78.0,78.0,2.1,2.12,-191,-275,0,-267,202,279,209.5230667591095,209.52315616607666,209.5264003276825,209.54225897789001,209.68763947486877,209.68763947486877,209.68763947486877,209.68763947486877,209.68763947486877,209.68763947486877,209.68763947486877,212.2043297290802,1,2.6478030681610107,None,,,,,,,,,,,,,,,,,,98,1,2025-02-24_14h58.03.711,comp,2024.2.4,56.07748132223095,2025-02-24 14h58.18.324599 -0500,
17,17,0,critical,hdw,20.0,2.1,lower,133.0,57.0,78.0,78.0,57.0,133.0,3,7.380973815917969,None,,,,,0,0,0,0,0,17,17,22,212.22495484352112,,,,,,,,,,,,,,,,,,,,,,,,,,,,,,,,,,,,,,,,,,,,,,,,,,,,,,,,,,,,,,,,,,,,,,,,,,,,,,,,,133.0,57.0,78.0,78.0,57.0,133.0,2.1,2.11,-164,267,0,276,202,-274,212.2060375213623,212.20615768432617,212.20924520492554,212.22495484352112,212.36790561676025,212.36790561676025,212.36790561676025,212.36790561676025,212.36790561676025,212.36790561676025,212.36790561676025,219.62350916862488,3,7.380973815917969,None,,,,,,,,,,,,,,,,,,98,1,2025-02-24_14h58.03.711,comp,2024.2.4,56.07748132223095,2025-02-24 14h58.18.324599 -0500,
18,18,0,filler_square,None,None,None,None,None,None,None,None,None,None,1,6.60691237449646,None,,,,,0,0,0,0,0,18,18,190,219.63964200019836,,,,,,,,,,,,,,,,,,,,,,,,,,,,,,,,,,,,,,,,,,,,,,,,,,,,,,,,,,,,,,,,,,,,,,,,,,,,,,,,,57.98444921816405,57.98444921816405,57.01219854789781,57.39653116104316,57.309367175141546,57.6264086735116,2.1,2.12,-154,-258,0,-255,154,261,219.62550449371338,219.62561535835266,219.6293864250183,219.63964200019836,219.79002928733826,219.79002928733826,219.79002928733826,219.79002928733826,219.79002928733826,219.79002928733826,219.79002928733826,226.25499820709229,1,6.60691237449646,None,,,,,,,,,,,,,,,,,,98,1,2025-02-24_14h58.03.711,comp,2024.2.4,56.07748132223095,2025-02-24 14h58.18.324599 -0500,
19,19,0,filler_random,None,None,None,None,None,None,None,None,None,None,3,4.618232250213623,None,,,,,0,0,0,0,0,19,19,166,226.2758014202118,,,,,,,,,,,,,,,,,,,,,,,,,,,,,,,,,,,,,,,,,,,,,,,,,,,,,,,,,,,,,,,,,,,,,,,,,,,,,,,,,153.74822540165982,153.63858521011377,194.53091515995874,62.410725172331865,139.9366505488109,169.6864404916791,2.1,2.12,-204,-279,0,-273,212,289,226.25674438476562,226.25683879852295,226.2600588798523,226.2758014202118,226.4223117828369,226.4223117828369,226.4223117828369,226.4223117828369,226.4223117828369,226.4223117828369,226.4223117828369,230.90734457969666,3,4.618232250213623,None,,,,,,,,,,,,,,,,,,98,1,2025-02-24_14h58.03.711,comp,2024.2.4,56.07748132223095,2025-02-24 14h58.18.324599 -0500,
20,20,0,filler_square,None,None,None,None,None,None,None,None,None,None,2,4.402411222457886,None,,,,,0,0,0,0,0,20,20,182,230.92353081703186,,,,,,,,,,,,,,,,,,,,,,,,,,,,,,,,,,,,,,,,,,,,,,,,,,,,,,,,,,,,,,,,,,,,,,,,,,,,,,,,,111.97327270866145,111.97327270866145,107.68413063668135,88.06973783638757,87.47909877001572,86.25244004679146,4.0,4.2,-196,5,0,-250,183,12,230.90931749343872,230.90944027900696,230.9129433631897,230.92353081703186,231.07262134552002,231.07262134552002,231.07262134552002,231.07262134552002,231.07262134552002,231.07262134552002,231.07262134552002,235.34201097488403,2,4.402411222457886,None,,,,,,,,,,,,,,,,,,98,1,2025-02-24_14h58.03.711,comp,2024.2.4,56.07748132223095,2025-02-24 14h58.18.324599 -0500,
21,21,0,critical,wdh,20.0,3.0,upper,125.0,200.0,141.0,141.0,200.0,125.0,1,3.0281691551208496,None,,,,,0,0,0,0,0,21,21,81,235.35596919059753,,,,,,,,,,,,,,,,,,,,,,,,,,,,,,,,,,,,,,,,,,,,,,,,,,,,,,,,,,,,,,,,,,,,,,,,,,,,,,,,,125.0,200.0,141.0,141.0,200.0,125.0,3.0,3.1,-266,286,0,-6,229,-279,235.3435184955597,235.34362316131592,235.34672689437866,235.35596919059753,235.51005840301514,235.51005840301514,235.51005840301514,235.51005840301514,235.51005840301514,235.51005840301514,235.51005840301514,238.39416575431824,1,3.0281691551208496,None,,,,,,,,,,,,,,,,,,98,1,2025-02-24_14h58.03.711,comp,2024.2.4,56.07748132223095,2025-02-24 14h58.18.324599 -0500,
22,22,0,critical,dhw,20.0,1.0,upper,141.0,141.0,200.0,125.0,125.0,200.0,2,2.621081590652466,None,,,,,0,0,0,0,0,22,22,55,238.4088134765625,,,,,,,,,,,,,,,,,,,,,,,,,,,,,,,,,,,,,,,,,,,,,,,,,,,,,,,,,,,,,,,,,,,,,,,,,,,,,,,,,141.0,141.0,200.0,125.0,125.0,200.0,1.0,1.1,-709,261,-480,273,-222,285,238.39568066596985,238.395756483078,238.39895367622375,238.4088134765625,238.56051898002625,238.56051898002625,238.56051898002625,238.56051898002625,238.56051898002625,238.56051898002625,238.56051898002625,241.0432243347168,2,2.621081590652466,None,,,,,,,,,,,,,,,,,,98,1,2025-02-24_14h58.03.711,comp,2024.2.4,56.07748132223095,2025-02-24 14h58.18.324599 -0500,
23,23,0,filler_square,None,None,None,None,None,None,None,None,None,None,3,7.394367933273315,None,,,,,0,0,0,0,0,23,23,208,241.0597333908081,,,,,,,,,,,,,,,,,,,,,,,,,,,,,,,,,,,,,,,,,,,,,,,,,,,,,,,,,,,,,,,,,,,,,,,,,,,,,,,,,63.131922885671024,95.89463952311439,113.09806677833214,113.09806677833214,111.29088855006742,78.72869834487886,1.0,1.2,-200,3,0,-7,192,-1,241.0451853275299,241.045259475708,241.04836893081665,241.0597333908081,241.21428656578064,241.21428656578064,241.21428656578064,241.21428656578064,241.21428656578064,241.21428656578064,241.21428656578064,248.45616626739502,3,7.394367933273315,None,,,,,,,,,,,,,,,,,,98,1,2025-02-24_14h58.03.711,comp,2024.2.4,56.07748132223095,2025-02-24 14h58.18.324599 -0500,
24,24,0,filler_random,None,None,None,None,None,None,None,None,None,None,1,3.0783865451812744,None,,,,,0,0,0,0,0,24,24,131,248.47178030014038,,,,,,,,,,,,,,,,,,,,,,,,,,,,,,,,,,,,,,,,,,,,,,,,,,,,,,,,,,,,,,,,,,,,,,,,,,,,,,,,,199.81689543085798,129.96724544660003,61.55518699053681,117.78216604412233,108.63872905299223,171.34345533632057,3.0,3.2,-220,-286,0,-12,241,264,248.45794367790222,248.45801973342896,248.46088933944702,248.47178030014038,248.61340260505676,248.61340260505676,248.61340260505676,248.61340260505676,248.61340260505676,248.61340260505676,248.61340260505676,251.56617665290833,1,3.0783865451812744,None,,,,,,,,,,,,,,,,,,98,1,2025-02-24_14h58.03.711,comp,2024.2.4,56.07748132223095,2025-02-24 14h58.18.324599 -0500,
25,25,0,filler_random,None,None,None,None,None,None,None,None,None,None,3,2.209390640258789,None,,,,,0,0,0,0,0,25,25,151,251.5808072090149,,,,,,,,,,,,,,,,,,,,,,,,,,,,,,,,,,,,,,,,,,,,,,,,,,,,,,,,,,,,,,,,,,,,,,,,,,,,,,,,,142.0849977132345,75.71663091521894,76.06607200765411,81.78999060365956,178.32195890869784,125.11783934605944,4.0,4.1,-175,-282,0,3,199,-263,251.56782746315002,251.56788682937622,251.5700261592865,251.5808072090149,251.73108839988708,251.73108839988708,251.73108839988708,251.73108839988708,251.73108839988708,251.73108839988708,251.73108839988708,253.80688309669495,3,2.209390640258789,None,,,,,,,,,,,,,,,,,,98,1,2025-02-24_14h58.03.711,comp,2024.2.4,56.07748132223095,2025-02-24 14h58.18.324599 -0500,
26,26,0,critical,wdh,35.0,1.0,upper,125.0,200.0,127.0,127.0,200.0,125.0,1,2.3905210494995117,None,,,,,0,0,0,0,0,26,26,73,253.82362961769104,,,,,,,,,,,,,,,,,,,,,,,,,,,,,,,,,,,,,,,,,,,,,,,,,,,,,,,,,,,,,,,,,,,,,,,,,,,,,,,,,125.0,200.0,127.0,127.0,200.0,125.0,1.0,1.1,-740,276,-480,288,-258,271,253.80843710899353,253.8085117340088,253.8113877773285,253.82362961769104,253.9636471271515,253.9636471271515,253.9636471271515,253.9636471271515,253.9636471271515,253.9636471271515,253.9636471271515,256.21807885169983,1,2.3905210494995117,None,,,,,,,,,,,,,,,,,,98,1,2025-02-24_14h58.03.711,comp,2024.2.4,56.07748132223095,2025-02-24 14h58.18.324599 -0500,
27,27,0,filler_square,None,None,None,None,None,None,None,None,None,None,1,2.824583053588867,None,,,,,0,0,0,0,0,27,27,170,256.2376334667206,,,,,,,,,,,,,,,,,,,,,,,,,,,,,,,,,,,,,,,,,,,,,,,,,,,,,,,,,,,,,,,,,,,,,,,,,,,,,,,,,128.1707860926379,91.70784670558935,93.46008883968923,96.28566893096507,143.27363597815173,143.27363597815173,4.0,4.2,-190,14,0,-276,216,1,256.2199339866638,256.2200083732605,256.2229096889496,256.2376334667206,256.3846309185028,256.3846309185028,256.3846309185028,256.3846309185028,256.3846309185028,256.3846309185028,256.3846309185028,259.0683584213257,1,2.824583053588867,None,,,,,,,,,,,,,,,,,,98,1,2025-02-24_14h58.03.711,comp,2024.2.4,56.07748132223095,2025-02-24 14h58.18.324599 -0500,
28,28,0,critical,wdh,20.0,2.1,upper,125.0,200.0,141.0,141.0,200.0,125.0,1,2.7202365398406982,None,,,,,0,0,0,0,0,28,28,11,259.0857741832733,,,,,,,,,,,,,,,,,,,,,,,,,,,,,,,,,,,,,,,,,,,,,,,,,,,,,,,,,,,,,,,,,,,,,,,,,,,,,,,,,125.0,200.0,141.0,141.0,200.0,125.0,2.1,2.11,-266,253,0,282,229,-268,259.06990146636963,259.06997776031494,259.07290601730347,259.0857741832733,259.2332706451416,259.2332706451416,259.2332706451416,259.2332706451416,259.2332706451416,259.2332706451416,259.2332706451416,261.81733107566833,1,2.7202365398406982,None,,,,,,,,,,,,,,,,,,98,1,2025-02-24_14h58.03.711,comp,2024.2.4,56.07748132223095,2025-02-24 14h58.18.324599 -0500,
29,29,0,critical,wdh,20.0,1.0,lower,57.0,133.0,78.0,78.0,133.0,57.0,3,2.3325982093811035,None,,,,,0,0,0,0,0,29,29,78,261.8336205482483,,,,,,,,,,,,,,,,,,,,,,,,,,,,,,,,,,,,,,,,,,,,,,,,,,,,,,,,,,,,,,,,,,,,,,,,,,,,,,,,,57.0,133.0,78.0,78.0,133.0,57.0,1.0,1.1,-682,273,-480,275,-316,286,261.8188638687134,261.81893944740295,261.82288002967834,261.8336205482483,261.98461270332336,261.98461270332336,261.98461270332336,261.98461270332336,261.98461270332336,261.98461270332336,261.98461270332336,264.16929721832275,3,2.3325982093811035,None,,,,,,,,,,,,,,,,,,98,1,2025-02-24_14h58.03.711,comp,2024.2.4,56.07748132223095,2025-02-24 14h58.18.324599 -0500,
30,30,0,filler_random,None,None,None,None,None,None,None,None,None,None,1,4.479781627655029,None,,,,,0,0,0,0,0,30,30,162,264.1903100013733,,,,,,,,,,,,,,,,,,,,,,,,,,,,,,,,,,,,,,,,,,,,,,,,,,,,,,,,,,,,,,,,,,,,,,,,,,,,,,,,,170.7381764930842,163.94787925726555,88.6878866806517,115.644621862816,102.5961678683156,125.73198344735782,2.1,2.11,-236,257,0,279,217,-274,264.1711812019348,264.1712951660156,264.1741352081299,264.1903100013733,264.33704018592834,264.33704018592834,264.33704018592834,264.33704018592834,264.33704018592834,264.33704018592834,264.33704018592834,268.6720972061157,1,4.479781627655029,None,,,,,,,,,,,,,,,,,,98,1,2025-02-24_14h58.03.711,comp,2024.2.4,56.07748132223095,2025-02-24 14h58.18.324599 -0500,
31,31,0,critical,dwh,35.0,1.0,upper,127.0,127.0,125.0,200.0,200.0,125.0,2,2.0696558952331543,None,,,,,0,0,0,0,0,31,31,61,268.68830251693726,,,,,,,,,,,,,,,,,,,,,,,,,,,,,,,,,,,,,,,,,,,,,,,,,,,,,,,,,,,,,,,,,,,,,,,,,,,,,,,,,127.0,127.0,125.0,200.0,200.0,125.0,1.0,1.1,-740,276,-480,286,-222,285,268.67404866218567,268.67417192459106,268.67758655548096,268.68830251693726,268.8367693424225,268.8367693424225,268.8367693424225,268.8367693424225,268.8367693424225,268.8367693424225,268.8367693424225,270.76905584335327,2,2.0696558952331543,None,,,,,,,,,,,,,,,,,,98,1,2025-02-24_14h58.03.711,comp,2024.2.4,56.07748132223095,2025-02-24 14h58.18.324599 -0500,
32,32,0,critical,dwh,35.0,4.0,lower,70.0,70.0,57.0,133.0,133.0,57.0,3,2.1004245281219482,None,,,,,0,0,0,0,0,32,32,64,270.7856047153473,,,,,,,,,,,,,,,,,,,,,,,,,,,,,,,,,,,,,,,,,,,,,,,,,,,,,,,,,,,,,,,,,,,,,,,,,,,,,,,,,70.0,70.0,57.0,133.0,133.0,57.0,4.0,4.1,-198,-287,0,7,191,-268,270.77077531814575,270.7708749771118,270.77415800094604,270.7856047153473,270.9416627883911,270.9416627883911,270.9416627883911,270.9416627883911,270.9416627883911,270.9416627883911,270.9416627883911,272.9026894569397,3,2.1004245281219482,None,,,,,,,,,,,,,,,,,,98,1,2025-02-24_14h58.03.711,comp,2024.2.4,56.07748132223095,2025-02-24 14h58.18.324599 -0500,
33,33,0,critical,dwh,20.0,2.1,lower,78.0,78.0,57.0,133.0,133.0,57.0,3,1.9197304248809814,None,,,,,0,0,0,0,0,33,33,30,272.9183554649353,,,,,,,,,,,,,,,,,,,,,,,,,,,,,,,,,,,,,,,,,,,,,,,,,,,,,,,,,,,,,,,,,,,,,,,,,,,,,,,,,78.0,78.0,57.0,133.0,133.0,57.0,2.1,2.11,-202,254,0,258,191,-260,272.9041645526886,272.90423703193665,272.9071536064148,272.9183554649353,273.05446195602417,273.05446195602417,273.05446195602417,273.05446195602417,273.05446195602417,273.05446195602417,273.05446195602417,274.84607577323914,3,1.9197304248809814,None,,,,,,,,,,,,,,,,,,98,1,2025-02-24_14h58.03.711,comp,2024.2.4,56.07748132223095,2025-02-24 14h58.18.324599 -0500,
34,34,0,filler_random,None,None,None,None,None,None,None,None,None,None,3,1.8923845291137695,None,,,,,0,0,0,0,0,34,34,146,274.86563539505005,,,,,,,,,,,,,,,,,,,,,,,,,,,,,,,,,,,,,,,,,,,,,,,,,,,,,,,,,,,,,,,,,,,,,,,,,,,,,,,,,159.44089908803053,148.33471061570597,128.56332227949719,134.6283906255526,173.81495899004767,92.5903621965372,2.1,2.11,-237,272,0,274,210,-281,274.84790444374084,274.84803891181946,274.85123109817505,274.86563539505005,275.00479078292847,275.00479078292847,275.00479078292847,275.00479078292847,275.00479078292847,275.00479078292847,275.00479078292847,276.7720594406128,3,1.8923845291137695,None,,,,,,,,,,,,,,,,,,98,1,2025-02-24_14h58.03.711,comp,2024.2.4,56.07748132223095,2025-02-24 14h58.18.324599 -0500,
35,35,0,critical,wdh,35.0,3.0,lower,57.0,133.0,70.0,70.0,133.0,57.0,3,1.9623947143554688,None,,,,,0,0,0,0,0,35,35,74,276.787948846817,,,,,,,,,,,,,,,,,,,,,,,,,,,,,,,,,,,,,,,,,,,,,,,,,,,,,,,,,,,,,,,,,,,,,,,,,,,,,,,,,57.0,133.0,70.0,70.0,133.0,57.0,3.0,3.1,-198,288,0,16,160,-287,276.7735183238983,276.7736110687256,276.77750730514526,276.787948846817,276.941960811615,276.941960811615,276.941960811615,276.941960811615,276.941960811615,276.941960811615,276.941960811615,278.7569696903229,3,1.9623947143554688,None,,,,,,,,,,,,,,,,,,98,1,2025-02-24_14h58.03.711,comp,2024.2.4,56.07748132223095,2025-02-24 14h58.18.324599 -0500,
36,36,0,critical,whd,35.0,1.0,upper,125.0,200.0,200.0,125.0,127.0,127.0,2,1.7692310810089111,None,,,,,0,0,0,0,0,36,36,85,278.77285051345825,,,,,,,,,,,,,,,,,,,,,,,,,,,,,,,,,,,,,,,,,,,,,,,,,,,,,,,,,,,,,,,,,,,,,,,,,,,,,,,,,125.0,200.0,200.0,125.0,127.0,127.0,1.0,1.1,-738,266,-480,261,-258,284,278.7585325241089,278.75863766670227,278.76203775405884,278.77285051345825,278.9229407310486,278.9229407310486,278.9229407310486,278.9229407310486,278.9229407310486,278.9229407310486,278.9229407310486,280.55660820007324,2,1.7692310810089111,None,,,,,,,,,,,,,,,,,,98,1,2025-02-24_14h58.03.711,comp,2024.2.4,56.07748132223095,2025-02-24 14h58.18.324599 -0500,
37,37,0,critical,hwd,20.0,2.1,lower,133.0,57.0,57.0,133.0,78.0,78.0,1,2.7006802558898926,None,,,,,0,0,0,0,0,37,37,18,280.57037115097046,,,,,,,,,,,,,,,,,,,,,,,,,,,,,,,,,,,,,,,,,,,,,,,,,,,,,,,,,,,,,,,,,,,,,,,,,,,,,,,,,133.0,57.0,57.0,133.0,78.0,78.0,2.1,2.12,-191,-250,0,-260,202,278,280.5581154823303,280.55818915367126,280.56132459640503,280.57037115097046,280.70897817611694,280.70897817611694,280.70897817611694,280.70897817611694,280.70897817611694,280.70897817611694,280.70897817611694,283.2749433517456,1,2.7006802558898926,None,,,,,,,,,,,,,,,,,,98,1,2025-02-24_14h58.03.711,comp,2024.2.4,56.07748132223095,2025-02-24 14h58.18.324599 -0500,
38,38,0,filler_square,None,None,None,None,None,None,None,None,None,None,3,5.640722274780273,None,,,,,0,0,0,0,0,38,38,174,283.2859003543854,,,,,,,,,,,,,,,,,,,,,,,,,,,,,,,,,,,,,,,,,,,,,,,,,,,,,,,,,,,,,,,,,,,,,,,,,,,,,,,,,192.79643979657465,192.79643979657465,152.54845709973023,68.10045671557624,81.75643676617807,169.7433491320968,4.0,4.1,-226,-281,0,4,215,-289,283.2757341861725,283.27576518058777,283.2770805358887,283.2859003543854,283.44493651390076,283.44493651390076,283.44493651390076,283.44493651390076,283.44493651390076,283.44493651390076,283.44493651390076,288.93020701408386,3,5.640722274780273,None,,,,,,,,,,,,,,,,,,98,1,2025-02-24_14h58.03.711,comp,2024.2.4,56.07748132223095,2025-02-24 14h58.18.324599 -0500,
39,39,0,filler_random,None,None,None,None,None,None,None,None,None,None,3,1.9011056423187256,None,,,,,0,0,0,0,0,39,39,157,288.94576048851013,,,,,,,,,,,,,,,,,,,,,,,,,,,,,,,,,,,,,,,,,,,,,,,,,,,,,,,,,,,,,,,,,,,,,,,,,,,,,,,,,61.667631748479614,92.23070724094336,60.71403157786264,182.21301910260945,152.74364582248268,198.49465842924084,1.0,1.2,-233,-17,0,-4,286,-15,288.931848526001,288.9319248199463,288.9350893497467,288.94576048851013,289.0898051261902,289.0898051261902,289.0898051261902,289.0898051261902,289.0898051261902,289.0898051261902,289.0898051261902,290.8495919704437,3,1.9011056423187256,None,,,,,,,,,,,,,,,,,,98,1,2025-02-24_14h58.03.711,comp,2024.2.4,56.07748132223095,2025-02-24 14h58.18.324599 -0500,
40,40,0,critical,whd,35.0,2.1,lower,57.0,133.0,133.0,57.0,70.0,70.0,2,2.2713661193847656,None,,,,,0,0,0,0,0,40,40,12,290.8656198978424,,,,,,,,,,,,,,,,,,,,,,,,,,,,,,,,,,,,,,,,,,,,,,,,,,,,,,,,,,,,,,,,,,,,,,,,,,,,,,,,,57.0,133.0,133.0,57.0,70.0,70.0,2.1,2.11,-191,269,0,260,160,-269,290.85107493400574,290.8511493206024,290.8539535999298,290.8656198978424,291.00971031188965,291.00971031188965,291.00971031188965,291.00971031188965,291.00971031188965,291.00971031188965,291.00971031188965,293.1438012123108,2,2.2713661193847656,None,,,,,,,,,,,,,,,,,,98,1,2025-02-24_14h58.03.711,comp,2024.2.4,56.07748132223095,2025-02-24 14h58.18.324599 -0500,
41,41,0,critical,dwh,20.0,1.0,upper,141.0,141.0,125.0,200.0,200.0,125.0,2,2.646111249923706,None,,,,,0,0,0,0,0,41,41,67,293.15993428230286,,,,,,,,,,,,,,,,,,,,,,,,,,,,,,,,,,,,,,,,,,,,,,,,,,,,,,,,,,,,,,,,,,,,,,,,,,,,,,,,,141.0,141.0,125.0,200.0,200.0,125.0,1.0,1.1,-746,284,-480,265,-222,261,293.1452372074127,293.1453146934509,293.1483609676361,293.15993428230286,293.3122367858887,293.3122367858887,293.3122367858887,293.3122367858887,293.3122367858887,293.3122367858887,293.3122367858887,295.8182373046875,2,2.646111249923706,None,,,,,,,,,,,,,,,,,,98,1,2025-02-24_14h58.03.711,comp,2024.2.4,56.07748132223095,2025-02-24 14h58.18.324599 -0500,
42,42,0,filler_random,None,None,None,None,None,None,None,None,None,None,2,2.1899569034576416,None,,,,,0,0,0,0,0,42,42,164,295.8332087993622,,,,,,,,,,,,,,,,,,,,,,,,,,,,,,,,,,,,,,,,,,,,,,,,,,,,,,,,,,,,,,,,,,,,,,,,,,,,,,,,,137.18407382055562,143.50221426181474,168.02846986073507,144.2318727825825,167.20936496780752,173.823711889293,2.2,2.22,-240,282,0,-289,255,-277,295.8198838233948,295.8199579715729,295.82271933555603,295.8332087993622,295.97813868522644,295.97813868522644,295.97813868522644,295.97813868522644,295.97813868522644,295.97813868522644,295.97813868522644,298.0295946598053,2,2.1899569034576416,None,,,,,,,,,,,,,,,,,,98,1,2025-02-24_14h58.03.711,comp,2024.2.4,56.07748132223095,2025-02-24 14h58.18.324599 -0500,
43,43,0,critical,whd,35.0,3.0,lower,57.0,133.0,133.0,57.0,70.0,70.0,2,2.5603039264678955,None,,,,,0,0,0,0,0,43,43,86,298.04580783843994,,,,,,,,,,,,,,,,,,,,,,,,,,,,,,,,,,,,,,,,,,,,,,,,,,,,,,,,,,,,,,,,,,,,,,,,,,,,,,,,,57.0,133.0,133.0,57.0,70.0,70.0,3.0,3.2,-191,-261,0,7,160,274,298.0310823917389,298.0311574935913,298.0350923538208,298.04580783843994,298.1954927444458,298.1954927444458,298.1954927444458,298.1954927444458,298.1954927444458,298.1954927444458,298.1954927444458,300.61612606048584,2,2.5603039264678955,None,,,,,,,,,,,,,,,,,,98,1,2025-02-24_14h58.03.711,comp,2024.2.4,56.07748132223095,2025-02-24 14h58.18.324599 -0500,
44,44,0,critical,whd,20.0,2.1,upper,125.0,200.0,200.0,125.0,141.0,141.0,1,2.142245054244995,None,,,,,0,0,0,0,0,44,44,39,300.6325206756592,,,,,,,,,,,,,,,,,,,,,,,,,,,,,,,,,,,,,,,,,,,,,,,,,,,,,,,,,,,,,,,,,,,,,,,,,,,,,,,,,125.0,200.0,200.0,125.0,141.0,141.0,2.1,2.12,-258,-250,0,-257,229,279,300.61808013916016,300.6181581020355,300.6209931373596,300.6325206756592,300.7795729637146,300.7795729637146,300.7795729637146,300.7795729637146,300.7795729637146,300.7795729637146,300.7795729637146,302.7808794975281,1,2.142245054244995,None,,,,,,,,,,,,,,,,,,98,1,2025-02-24_14h58.03.711,comp,2024.2.4,56.07748132223095,2025-02-24 14h58.18.324599 -0500,
45,45,0,critical,hdw,20.0,3.0,lower,133.0,57.0,78.0,78.0,57.0,133.0,3,3.0850813388824463,None,,,,,0,0,0,0,0,45,45,116,302.8010108470917,,,,,,,,,,,,,,,,,,,,,,,,,,,,,,,,,,,,,,,,,,,,,,,,,,,,,,,,,,,,,,,,,,,,,,,,,,,,,,,,,133.0,57.0,78.0,78.0,57.0,133.0,3.0,3.1,-164,287,0,4,202,-281,302.783096075058,302.78322649002075,302.7885341644287,302.8010108470917,302.9493501186371,302.9493501186371,302.9493501186371,302.9493501186371,302.9493501186371,302.9493501186371,302.9493501186371,305.89741802215576,3,3.0850813388824463,None,,,,,,,,,,,,,,,,,,98,1,2025-02-24_14h58.03.711,comp,2024.2.4,56.07748132223095,2025-02-24 14h58.18.324599 -0500,
46,46,0,critical,hdw,35.0,4.0,upper,200.0,125.0,127.0,127.0,125.0,200.0,1,3.237053155899048,None,,,,,0,0,0,0,0,46,46,113,305.91312980651855,,,,,,,,,,,,,,,,,,,,,,,,,,,,,,,,,,,,,,,,,,,,,,,,,,,,,,,,,,,,,,,,,,,,,,,,,,,,,,,,,200.0,125.0,127.0,127.0,125.0,200.0,4.0,4.2,-222,1,0,-264,260,-3,305.8990135192871,305.899090051651,305.90241169929504,305.91312980651855,306.06439113616943,306.06439113616943,306.06439113616943,306.06439113616943,306.06439113616943,306.06439113616943,306.06439113616943,309.1554353237152,1,3.237053155899048,None,,,,,,,,,,,,,,,,,,98,1,2025-02-24_14h58.03.711,comp,2024.2.4,56.07748132223095,2025-02-24 14h58.18.324599 -0500,
47,47,0,critical,dwh,35.0,2.1,lower,70.0,70.0,57.0,133.0,133.0,57.0,3,1.5059916973114014,None,,,,,0,0,0,0,0,47,47,4,309.17251229286194,,,,,,,,,,,,,,,,,,,,,,,,,,,,,,,,,,,,,,,,,,,,,,,,,,,,,,,,,,,,,,,,,,,,,,,,,,,,,,,,,70.0,70.0,57.0,133.0,133.0,57.0,2.1,2.12,-198,-268,0,-286,191,273,309.15693736076355,309.1570119857788,309.1609482765198,309.17251229286194,309.3142673969269,309.3142673969269,309.3142673969269,309.3142673969269,309.3142673969269,309.3142673969269,309.3142673969269,310.68156719207764,3,1.5059916973114014,None,,,,,,,,,,,,,,,,,,98,1,2025-02-24_14h58.03.711,comp,2024.2.4,56.07748132223095,2025-02-24 14h58.18.324599 -0500,
48,48,0,filler_square,None,None,None,None,None,None,None,None,None,None,1,2.212954044342041,None,,,,,0,0,0,0,0,48,48,205,310.69786405563354,,,,,,,,,,,,,,,,,,,,,,,,,,,,,,,,,,,,,,,,,,,,,,,,,,,,,,,,,,,,,,,,,,,,,,,,,,,,,,,,,57.683179669985506,179.4434958153443,191.2786015719763,191.2786015719763,142.29815755014323,152.75759924018698,3.0,3.1,-281,261,0,-13,268,-280,310.6833574771881,310.68343329429626,310.68641686439514,310.69786405563354,310.8488886356354,310.8488886356354,310.8488886356354,310.8488886356354,310.8488886356354,310.8488886356354,310.8488886356354,312.91742300987244,1,2.212954044342041,None,,,,,,,,,,,,,,,,,,98,1,2025-02-24_14h58.03.711,comp,2024.2.4,56.07748132223095,2025-02-24 14h58.18.324599 -0500,
49,49,0,critical,whd,20.0,3.0,lower,57.0,133.0,133.0,57.0,78.0,78.0,2,2.2900640964508057,None,,,,,0,0,0,0,0,49,49,92,312.9337947368622,,,,,,,,,,,,,,,,,,,,,,,,,,,,,,,,,,,,,,,,,,,,,,,,,,,,,,,,,,,,,,,,,,,,,,,,,,,,,,,,,57.0,133.0,133.0,57.0,78.0,78.0,3.0,3.2,-191,-256,0,0,164,252,312.91902685165405,312.91910552978516,312.9231450557709,312.9337947368622,313.083509683609,313.083509683609,313.083509683609,313.083509683609,313.083509683609,313.083509683609,313.083509683609,315.23460841178894,2,2.2900640964508057,None,,,,,,,,,,,,,,,,,,98,1,2025-02-24_14h58.03.711,comp,2024.2.4,56.07748132223095,2025-02-24 14h58.18.324599 -0500,
50,50,0,catch,None,None,None,None,None,None,None,None,None,None,1,1.787973165512085,None,,,,,0,0,0,0,0,50,50,128,315.2502543926239,,,,,,,,,,,,,,,,,,,,,,,,,,,,,,,,,,,,,,,,,,,,,,,,,,,,,,,,,,,,,,,,,,,,,,,,,,,,,,,,,134,191,121,69,86,104,4.0,4.2,-226,-14,0,-255,182,12,315.23653626441956,315.2366352081299,315.2395966053009,315.2502543926239,315.4013569355011,315.4013569355011,315.4013569355011,315.4013569355011,315.4013569355011,315.4013569355011,315.4013569355011,317.05115962028503,1,1.787973165512085,None,,,,,,,,,,,,,,,,,,98,1,2025-02-24_14h58.03.711,comp,2024.2.4,56.07748132223095,2025-02-24 14h58.18.324599 -0500,
51,51,0,filler_random,None,None,None,None,None,None,None,None,None,None,3,2.1950621604919434,None,,,,,0,0,0,0,0,51,51,143,317.06761932373047,,,,,,,,,,,,,,,,,,,,,,,,,,,,,,,,,,,,,,,,,,,,,,,,,,,,,,,,,,,,,,,,,,,,,,,,,,,,,,,,,101.67684778728022,124.28365555695297,159.71944773346786,155.85452497171656,130.6986071609934,188.0272394367181,2.1,2.11,-236,256,0,251,268,-280,317.05287194252014,317.0529456138611,317.0568723678589,317.06761932373047,317.2061245441437,317.2061245441437,317.2061245441437,317.2061245441437,317.2061245441437,317.2061245441437,317.2061245441437,319.2700345516205,3,2.1950621604919434,None,,,,,,,,,,,,,,,,,,98,1,2025-02-24_14h58.03.711,comp,2024.2.4,56.07748132223095,2025-02-24 14h58.18.324599 -0500,
52,52,0,critical,wdh,35.0,3.0,upper,125.0,200.0,127.0,127.0,200.0,125.0,1,2.4003260135650635,None,,,,,0,0,0,0,0,52,52,75,319.2860267162323,,,,,,,,,,,,,,,,,,,,,,,,,,,,,,,,,,,,,,,,,,,,,,,,,,,,,,,,,,,,,,,,,,,,,,,,,,,,,,,,,125.0,200.0,127.0,127.0,200.0,125.0,3.0,3.2,-260,-251,0,3,222,265,319.2716155052185,319.27169132232666,319.2745180130005,319.2860267162323,319.43482518196106,319.43482518196106,319.43482518196106,319.43482518196106,319.43482518196106,319.43482518196106,319.43482518196106,321.70216608047485,1,2.4003260135650635,None,,,,,,,,,,,,,,,,,,98,1,2025-02-24_14h58.03.711,comp,2024.2.4,56.07748132223095,2025-02-24 14h58.18.324599 -0500,
53,53,0,critical,wdh,20.0,2.1,upper,125.0,200.0,141.0,141.0,200.0,125.0,1,4.27163553237915,None,,,,,0,0,0,0,0,53,53,35,321.7184455394745,,,,,,,,,,,,,,,,,,,,,,,,,,,,,,,,,,,,,,,,,,,,,,,,,,,,,,,,,,,,,,,,,,,,,,,,,,,,,,,,,125.0,200.0,141.0,141.0,200.0,125.0,2.1,2.11,-266,271,0,250,229,-275,321.7037477493286,321.7038230895996,321.70709586143494,321.7184455394745,321.87013697624207,321.87013697624207,321.87013697624207,321.87013697624207,321.87013697624207,321.87013697624207,321.87013697624207,326.0039744377136,1,4.27163553237915,None,,,,,,,,,,,,,,,,,,98,1,2025-02-24_14h58.03.711,comp,2024.2.4,56.07748132223095,2025-02-24 14h58.18.324599 -0500,
54,54,0,critical,whd,20.0,2.1,upper,125.0,200.0,200.0,125.0,141.0,141.0,1,1.8918602466583252,None,,,,,0,0,0,0,0,54,54,15,326.01933312416077,,,,,,,,,,,,,,,,,,,,,,,,,,,,,,,,,,,,,,,,,,,,,,,,,,,,,,,,,,,,,,,,,,,,,,,,,,,,,,,,,125.0,200.0,200.0,125.0,141.0,141.0,2.1,2.12,-258,-266,0,-272,229,255,326.0055637359619,326.00568437576294,326.0090253353119,326.01933312416077,326.1708037853241,326.1708037853241,326.1708037853241,326.1708037853241,326.1708037853241,326.1708037853241,326.1708037853241,327.9220623970032,1,1.8918602466583252,None,,,,,,,,,,,,,,,,,,98,1,2025-02-24_14h58.03.711,comp,2024.2.4,56.07748132223095,2025-02-24 14h58.18.324599 -0500,
55,55,0,critical,dhw,20.0,4.0,upper,141.0,141.0,200.0,125.0,125.0,200.0,3,1.692561149597168,None,,,,,0,0,0,0,0,55,55,59,327.93775367736816,,,,,,,,,,,,,,,,,,,,,,,,,,,,,,,,,,,,,,,,,,,,,,,,,,,,,,,,,,,,,,,,,,,,,,,,,,,,,,,,,141.0,141.0,200.0,125.0,125.0,200.0,4.0,4.2,-229,14,0,-271,258,-12,327.9236972332001,327.92377257347107,327.9270775318146,327.93775367736816,328.0924961566925,328.0924961566925,328.0924961566925,328.0924961566925,328.0924961566925,328.0924961566925,328.0924961566925,329.6480641365051,3,1.692561149597168,None,,,,,,,,,,,,,,,,,,98,1,2025-02-24_14h58.03.711,comp,2024.2.4,56.07748132223095,2025-02-24 14h58.18.324599 -0500,
56,56,0,filler_square,None,None,None,None,None,None,None,None,None,None,1,1.524916410446167,None,,,,,0,0,0,0,0,56,56,181,329.66574215888977,,,,,,,,,,,,,,,,,,,,,,,,,,,,,,,,,,,,,,,,,,,,,,,,,,,,,,,,,,,,,,,,,,,,,,,,,,,,,,,,,89.9071687907252,181.33034932684706,192.7639281410439,192.7639281410439,68.67494600449423,85.49921430978765,3.0,3.2,-283,-257,0,17,235,261,329.64991426467896,329.64999079704285,329.6529619693756,329.66574215888977,329.8039834499359,329.8039834499359,329.8039834499359,329.8039834499359,329.8039834499359,329.8039834499359,329.8039834499359,331.1971986293793,1,1.524916410446167,None,,,,,,,,,,,,,,,,,,98,1,2025-02-24_14h58.03.711,comp,2024.2.4,56.07748132223095,2025-02-24 14h58.18.324599 -0500,
57,57,0,filler_square,None,None,None,None,None,None,None,None,None,None,2,6.706082582473755,None,,,,,0,0,0,0,0,57,57,177,331.2126820087433,,,,,,,,,,,,,,,,,,,,,,,,,,,,,,,,,,,,,,,,,,,,,,,,,,,,,,,,,,,,,,,,,,,,,,,,,,,,,,,,,57.09327184126958,57.0994791019413,58.059214556143715,58.059214556143715,57.49249321183228,57.346989919777,4.0,4.2,-154,20,0,-274,154,3,331.19893741607666,331.1990101337433,331.2019717693329,331.2126820087433,331.35548210144043,331.35548210144043,331.35548210144043,331.35548210144043,331.35548210144043,331.35548210144043,331.35548210144043,337.924503326416,2,6.706082582473755,None,,,,,,,,,,,,,,,,,,98,1,2025-02-24_14h58.03.711,comp,2024.2.4,56.07748132223095,2025-02-24 14h58.18.324599 -0500,
58,58,0,filler_square,None,None,None,None,None,None,None,None,None,None,2,2.4101004600524902,None,,,,,0,0,0,0,0,58,58,188,337.9405701160431,,,,,,,,,,,,,,,,,,,,,,,,,,,,,,,,,,,,,,,,,,,,,,,,,,,,,,,,,,,,,,,,,,,,,,,,,,,,,,,,,60.71862763456939,73.34849049097541,63.67135557971402,74.7554156160296,75.35967756864753,75.35967756864753,1.0,1.3,310,-260,480,-270,651,-272,337.9263436794281,337.92641854286194,337.92969608306885,337.9405701160431,338.0976288318634,338.0976288318634,338.0976288318634,338.0976288318634,338.0976288318634,338.0976288318634,338.0976288318634,340.3595242500305,2,2.4101004600524902,None,,,,,,,,,,,,,,,,,,98,1,2025-02-24_14h58.03.711,comp,2024.2.4,56.07748132223095,2025-02-24 14h58.18.324599 -0500,
59,59,0,filler_random,None,None,None,None,None,None,None,None,None,None,3,4.398758172988892,None,,,,,0,0,0,0,0,59,59,133,340.3753447532654,,,,,,,,,,,,,,,,,,,,,,,,,,,,,,,,,,,,,,,,,,,,,,,,,,,,,,,,,,,,,,,,,,,,,,,,,,,,,,,,,109.6597479062533,98.57995804601254,103.45330029460251,65.8794144550069,76.37696344710677,138.05492393116788,2.1,2.11,-178,261,0,281,198,-263,340.3612163066864,340.3612892627716,340.3646471500397,340.3753447532654,340.52469396591187,340.52469396591187,340.52469396591187,340.52469396591187,340.52469396591187,340.52469396591187,340.52469396591187,344.77669167518616,3,4.398758172988892,None,,,,,,,,,,,,,,,,,,98,1,2025-02-24_14h58.03.711,comp,2024.2.4,56.07748132223095,2025-02-24 14h58.18.324599 -0500,
60,60,0,critical,hwd,20.0,1.0,upper,200.0,125.0,125.0,200.0,141.0,141.0,1,1.6460766792297363,None,,,,,0,0,0,0,0,60,60,103,344.79264092445374,,,,,,,,,,,,,,,,,,,,,,,,,,,,,,,,,,,,,,,,,,,,,,,,,,,,,,,,,,,,,,,,,,,,,,,,,,,,,,,,,200.0,125.0,125.0,200.0,141.0,141.0,1.0,1.1,-738,258,-480,280,-214,250,344.7782027721405,344.77827763557434,344.78176045417786,344.79264092445374,344.94961428642273,344.94961428642273,344.94961428642273,344.94961428642273,344.94961428642273,344.94961428642273,344.94961428642273,346.4409203529358,1,1.6460766792297363,None,,,,,,,,,,,,,,,,,,98,1,2025-02-24_14h58.03.711,comp,2024.2.4,56.07748132223095,2025-02-24 14h58.18.324599 -0500,
61,61,0,filler_random,None,None,None,None,None,None,None,None,None,None,3,1.548471212387085,None,,,,,0,0,0,0,0,61,61,152,346.457927942276,,,,,,,,,,,,,,,,,,,,,,,,,,,,,,,,,,,,,,,,,,,,,,,,,,,,,,,,,,,,,,,,,,,,,,,,,,,,,,,,,182.34960202534137,86.60796433549639,140.90958503599012,77.8371090748648,142.07162148784477,174.08643377258036,4.0,4.1,-178,-274,0,0,222,-258,346.4425058364868,346.4426021575928,346.44536232948303,346.457927942276,346.59368228912354,346.59368228912354,346.59368228912354,346.59368228912354,346.59368228912354,346.59368228912354,346.59368228912354,348.00996708869934,3,1.548471212387085,None,,,,,,,,,,,,,,,,,,98,1,2025-02-24_14h58.03.711,comp,2024.2.4,56.07748132223095,2025-02-24 14h58.18.324599 -0500,
62,62,0,critical,dhw,20.0,4.0,lower,78.0,78.0,133.0,57.0,57.0,133.0,3,1.9163992404937744,None,,,,,0,0,0,0,0,62,62,58,348.02589225769043,,,,,,,,,,,,,,,,,,,,,,,,,,,,,,,,,,,,,,,,,,,,,,,,,,,,,,,,,,,,,,,,,,,,,,,,,,,,,,,,,78.0,78.0,133.0,57.0,57.0,133.0,4.0,4.2,-164,6,0,-290,191,8,348.0115694999695,348.0116505622864,348.01490020751953,348.02589225769043,348.18363881111145,348.18363881111145,348.18363881111145,348.18363881111145,348.18363881111145,348.18363881111145,348.18363881111145,349.94600772857666,3,1.9163992404937744,None,,,,,,,,,,,,,,,,,,98,1,2025-02-24_14h58.03.711,comp,2024.2.4,56.07748132223095,2025-02-24 14h58.18.324599 -0500,
63,63,0,filler_square,None,None,None,None,None,None,None,None,None,None,2,1.8601598739624023,None,,,,,0,0,0,0,0,63,63,200,349.96251368522644,,,,,,,,,,,,,,,,,,,,,,,,,,,,,,,,,,,,,,,,,,,,,,,,,,,,,,,,,,,,,,,,,,,,,,,,,,,,,,,,,69.36969351726414,187.12256408197803,111.73836492996936,194.062108713093,198.45421111783008,198.45421111783008,2.1,2.11,-287,289,0,281,292,-266,349.9478542804718,349.9479296207428,349.95084977149963,349.96251368522644,350.1111867427826,350.1111867427826,350.1111867427826,350.1111867427826,350.1111867427826,350.1111867427826,350.1111867427826,351.8281202316284,2,1.8601598739624023,None,,,,,,,,,,,,,,,,,,98,1,2025-02-24_14h58.03.711,comp,2024.2.4,56.07748132223095,2025-02-24 14h58.18.324599 -0500,
64,64,0,filler_random,None,None,None,None,None,None,None,None,None,None,3,1.3942320346832275,None,,,,,0,0,0,0,0,64,64,139,351.8444983959198,,,,,,,,,,,,,,,,,,,,,,,,,,,,,,,,,,,,,,,,,,,,,,,,,,,,,,,,,,,,,,,,,,,,,,,,,,,,,,,,,154.86016103809817,167.04250670651118,63.71645778410666,92.21567711204256,169.67164677396195,109.59224656726279,2.2,2.21,-226,-261,0,288,197,286,351.82978796958923,351.8298625946045,351.8329541683197,351.8444983959198,351.98209023475647,351.98209023475647,351.98209023475647,351.98209023475647,351.98209023475647,351.98209023475647,351.98209023475647,353.2460253238678,3,1.3942320346832275,None,,,,,,,,,,,,,,,,,,98,1,2025-02-24_14h58.03.711,comp,2024.2.4,56.07748132223095,2025-02-24 14h58.18.324599 -0500,
65,65,0,filler_square,None,None,None,None,None,None,None,None,None,None,1,2.3450889587402344,None,,,,,0,0,0,0,0,65,65,209,353.2620210647583,,,,,,,,,,,,,,,,,,,,,,,,,,,,,,,,,,,,,,,,,,,,,,,,,,,,,,,,,,,,,,,,,,,,,,,,,,,,,,,,,155.36027455886264,123.104391119441,104.9443590677423,139.9444549636077,189.38767853638586,189.38767853638586,1.0,1.2,-228,-16,0,20,261,-18,353.2476906776428,353.24778604507446,353.2510416507721,353.2620210647583,353.41144156455994,353.41144156455994,353.41144156455994,353.41144156455994,353.41144156455994,353.41144156455994,353.41144156455994,355.6126229763031,1,2.3450889587402344,None,,,,,,,,,,,,,,,,,,98,1,2025-02-24_14h58.03.711,comp,2024.2.4,56.07748132223095,2025-02-24 14h58.18.324599 -0500,
66,66,0,critical,hdw,35.0,2.1,lower,133.0,57.0,70.0,70.0,57.0,133.0,1,1.7617933750152588,None,,,,,0,0,0,0,0,66,66,44,355.62897515296936,,,,,,,,,,,,,,,,,,,,,,,,,,,,,,,,,,,,,,,,,,,,,,,,,,,,,,,,,,,,,,,,,,,,,,,,,,,,,,,,,133.0,57.0,70.0,70.0,57.0,133.0,2.1,2.11,-160,269,0,271,198,-253,355.61408734321594,355.61416244506836,355.61723923683167,355.62897515296936,355.7828884124756,355.7828884124756,355.7828884124756,355.7828884124756,355.7828884124756,355.7828884124756,355.7828884124756,357.39872646331787,1,1.7617933750152588,None,,,,,,,,,,,,,,,,,,98,1,2025-02-24_14h58.03.711,comp,2024.2.4,56.07748132223095,2025-02-24 14h58.18.324599 -0500,
67,67,0,critical,wdh,35.0,2.1,upper,125.0,200.0,127.0,127.0,200.0,125.0,3,4.994237661361694,None,,,,,0,0,0,0,0,67,67,9,357.41508746147156,,,,,,,,,,,,,,,,,,,,,,,,,,,,,,,,,,,,,,,,,,,,,,,,,,,,,,,,,,,,,,,,,,,,,,,,,,,,,,,,,125.0,200.0,127.0,127.0,200.0,125.0,2.1,2.11,-260,253,0,258,222,-273,357.4003121852875,357.4004065990448,357.40351581573486,357.41508746147156,357.56358098983765,357.56358098983765,357.56358098983765,357.56358098983765,357.56358098983765,357.56358098983765,357.56358098983765,362.4145710468292,3,4.994237661361694,None,,,,,,,,,,,,,,,,,,98,1,2025-02-24_14h58.03.711,comp,2024.2.4,56.07748132223095,2025-02-24 14h58.18.324599 -0500,
68,68,0,critical,whd,20.0,1.0,upper,125.0,200.0,200.0,125.0,141.0,141.0,2,1.7841196060180664,None,,,,,0,0,0,0,0,68,68,91,362.4301829338074,,,,,,,,,,,,,,,,,,,,,,,,,,,,,,,,,,,,,,,,,,,,,,,,,,,,,,,,,,,,,,,,,,,,,,,,,,,,,,,,,125.0,200.0,200.0,125.0,141.0,141.0,1.0,1.1,-738,267,-480,284,-251,252,362.41609930992126,362.41617798805237,362.4193522930145,362.4301829338074,362.58164525032043,362.58164525032043,362.58164525032043,362.58164525032043,362.58164525032043,362.58164525032043,362.58164525032043,364.21680307388306,2,1.7841196060180664,None,,,,,,,,,,,,,,,,,,98,1,2025-02-24_14h58.03.711,comp,2024.2.4,56.07748132223095,2025-02-24 14h58.18.324599 -0500,
69,69,0,critical,dhw,35.0,1.0,lower,70.0,70.0,133.0,57.0,57.0,133.0,2,2.6452202796936035,None,,,,,0,0,0,0,0,69,69,48,364.2331793308258,,,,,,,,,,,,,,,,,,,,,,,,,,,,,,,,,,,,,,,,,,,,,,,,,,,,,,,,,,,,,,,,,,,,,,,,,,,,,,,,,70.0,70.0,133.0,57.0,57.0,133.0,1.0,1.2,-160,-16,0,2,191,-1,364.2183439731598,364.2184245586395,364.2224326133728,364.2331793308258,364.3851807117462,364.3851807117462,364.3851807117462,364.3851807117462,364.3851807117462,364.3851807117462,364.3851807117462,366.88516783714294,2,2.6452202796936035,None,,,,,,,,,,,,,,,,,,98,1,2025-02-24_14h58.03.711,comp,2024.2.4,56.07748132223095,2025-02-24 14h58.18.324599 -0500,
70,70,0,catch,None,None,None,None,None,None,None,None,None,None,2,2.540503978729248,None,,,,,0,0,0,0,0,70,70,120,366.9063699245453,,,,,,,,,,,,,,,,,,,,,,,,,,,,,,,,,,,,,,,,,,,,,,,,,,,,,,,,,,,,,,,,,,,,,,,,,,,,,,,,,171,154,68,122,102,88,4.0,4.2,-234,-4,0,-259,201,-3,366.8871386051178,366.8872332572937,366.8905117511749,366.9063699245453,367.0500793457031,367.0500793457031,367.0500793457031,367.0500793457031,367.0500793457031,367.0500793457031,367.0500793457031,369.45430994033813,2,2.540503978729248,None,,,,,,,,,,,,,,,,,,98,1,2025-02-24_14h58.03.711,comp,2024.2.4,56.07748132223095,2025-02-24 14h58.18.324599 -0500,
71,71,0,critical,hwd,35.0,2.1,lower,133.0,57.0,57.0,133.0,70.0,70.0,2,3.4241645336151123,None,,,,,0,0,0,0,0,71,71,16,369.4706485271454,,,,,,,,,,,,,,,,,,,,,,,,,,,,,,,,,,,,,,,,,,,,,,,,,,,,,,,,,,,,,,,,,,,,,,,,,,,,,,,,,133.0,57.0,57.0,133.0,70.0,70.0,2.1,2.11,-191,272,0,265,198,-260,369.45589780807495,369.45597672462463,369.45986223220825,369.4706485271454,369.6206614971161,369.6206614971161,369.6206614971161,369.6206614971161,369.6206614971161,369.6206614971161,369.6206614971161,372.9020493030548,2,3.4241645336151123,None,,,,,,,,,,,,,,,,,,98,1,2025-02-24_14h58.03.711,comp,2024.2.4,56.07748132223095,2025-02-24 14h58.18.324599 -0500,
72,72,0,critical,hwd,35.0,4.0,lower,133.0,57.0,57.0,133.0,70.0,70.0,1,2.92897367477417,None,,,,,0,0,0,0,0,72,72,100,372.9177944660187,,,,,,,,,,,,,,,,,,,,,,,,,,,,,,,,,,,,,,,,,,,,,,,,,,,,,,,,,,,,,,,,,,,,,,,,,,,,,,,,,133.0,57.0,57.0,133.0,70.0,70.0,4.0,4.2,-191,-1,0,-274,198,5,372.9034821987152,372.9035940170288,372.906977891922,372.9177944660187,373.06711602211,373.06711602211,373.06711602211,373.06711602211,373.06711602211,373.06711602211,373.06711602211,375.8521320819855,1,2.92897367477417,None,,,,,,,,,,,,,,,,,,98,1,2025-02-24_14h58.03.711,comp,2024.2.4,56.07748132223095,2025-02-24 14h58.18.324599 -0500,
73,73,0,filler_square,None,None,None,None,None,None,None,None,None,None,1,2.705716371536255,None,,,,,0,0,0,0,0,73,73,207,375.86862230300903,,,,,,,,,,,,,,,,,,,,,,,,,,,,,,,,,,,,,,,,,,,,,,,,,,,,,,,,,,,,,,,,,,,,,,,,,,,,,,,,,118.79244699992704,143.73933019543523,92.03539119665001,106.56964883768569,168.02923256165155,168.02923256165155,4.0,4.1,-221,-255,0,6,233,-270,375.85386872291565,375.85394525527954,375.8570508956909,375.86862230300903,376.0157895088196,376.0157895088196,376.0157895088196,376.0157895088196,376.0157895088196,376.0157895088196,376.0157895088196,378.5872678756714,1,2.705716371536255,None,,,,,,,,,,,,,,,,,,98,1,2025-02-24_14h58.03.711,comp,2024.2.4,56.07748132223095,2025-02-24 14h58.18.324599 -0500,
74,74,0,filler_square,None,None,None,None,None,None,None,None,None,None,2,2.381537914276123,None,,,,,0,0,0,0,0,74,74,186,378.6010754108429,,,,,,,,,,,,,,,,,,,,,,,,,,,,,,,,,,,,,,,,,,,,,,,,,,,,,,,,,,,,,,,,,,,,,,,,,,,,,,,,,119.35426889698365,119.35426889698365,82.00977568641088,119.2670287576669,90.15402734756128,99.0312389118007,4.0,4.1,-215,-282,0,17,205,-260,378.58905267715454,378.5891273021698,378.59213042259216,378.6010754108429,378.75599122047424,378.75599122047424,378.75599122047424,378.75599122047424,378.75599122047424,378.75599122047424,378.75599122047424,380.98880887031555,2,2.381537914276123,None,,,,,,,,,,,,,,,,,,98,1,2025-02-24_14h58.03.711,comp,2024.2.4,56.07748132223095,2025-02-24 14h58.18.324599 -0500,
75,75,0,critical,hwd,35.0,2.1,lower,133.0,57.0,57.0,133.0,70.0,70.0,1,1.6192307472229004,None,,,,,0,0,0,0,0,75,75,40,381.00292134284973,,,,,,,,,,,,,,,,,,,,,,,,,,,,,,,,,,,,,,,,,,,,,,,,,,,,,,,,,,,,,,,,,,,,,,,,,,,,,,,,,133.0,57.0,57.0,133.0,70.0,70.0,2.1,2.11,-191,285,0,251,198,-255,380.9903416633606,380.9904181957245,380.99338126182556,381.00292134284973,381.1615881919861,381.1615881919861,381.1615881919861,381.1615881919861,381.1615881919861,381.1615881919861,381.1615881919861,382.63629841804504,1,1.6192307472229004,None,,,,,,,,,,,,,,,,,,98,1,2025-02-24_14h58.03.711,comp,2024.2.4,56.07748132223095,2025-02-24 14h58.18.324599 -0500,
76,76,0,filler_square,None,None,None,None,None,None,None,None,None,None,1,1.7059547901153564,None,,,,,0,0,0,0,0,76,76,199,382.65225076675415,,,,,,,,,,,,,,,,,,,,,,,,,,,,,,,,,,,,,,,,,,,,,,,,,,,,,,,,,,,,,,,,,,,,,,,,,,,,,,,,,89.4740983329055,161.35788173100457,75.46586904928893,89.63739349235617,167.2467450900005,167.2467450900005,2.2,2.21,-221,-283,0,256,224,270,382.6382417678833,382.6383192539215,382.6414611339569,382.65225076675415,382.8011622428894,382.8011622428894,382.8011622428894,382.8011622428894,382.8011622428894,382.8011622428894,382.8011622428894,384.36225485801697,1,1.7059547901153564,None,,,,,,,,,,,,,,,,,,98,1,2025-02-24_14h58.03.711,comp,2024.2.4,56.07748132223095,2025-02-24 14h58.18.324599 -0500,
77,77,0,critical,dhw,35.0,1.0,upper,127.0,127.0,200.0,125.0,125.0,200.0,2,1.863839864730835,None,,,,,0,0,0,0,0,77,77,49,384.38236904144287,,,,,,,,,,,,,,,,,,,,,,,,,,,,,,,,,,,,,,,,,,,,,,,,,,,,,,,,,,,,,,,,,,,,,,,,,,,,,,,,,127.0,127.0,200.0,125.0,125.0,200.0,1.0,1.1,-702,275,-480,280,-222,277,384.3637549877167,384.3638291358948,384.3666410446167,384.38236904144287,384.52338790893555,384.52338790893555,384.52338790893555,384.52338790893555,384.52338790893555,384.52338790893555,384.52338790893555,386.2566502094269,2,1.863839864730835,None,,,,,,,,,,,,,,,,,,98,1,2025-02-24_14h58.03.711,comp,2024.2.4,56.07748132223095,2025-02-24 14h58.18.324599 -0500,
78,78,0,catch,None,None,None,None,None,None,None,None,None,None,3,1.7259109020233154,None,,,,,0,0,0,0,0,78,78,125,386.27263259887695,,,,,,,,,,,,,,,,,,,,,,,,,,,,,,,,,,,,,,,,,,,,,,,,,,,,,,,,,,,,,,,,,,,,,,,,,,,,,,,,,121,69,166,159,124,66,4.0,4.2,-210,14,0,-260,208,0,386.2585232257843,386.2586269378662,386.26182413101196,386.27263259887695,386.4220049381256,386.4220049381256,386.4220049381256,386.4220049381256,386.4220049381256,386.4220049381256,386.4220049381256,388.0085768699646,3,1.7259109020233154,None,,,,,,,,,,,,,,,,,,98,1,2025-02-24_14h58.03.711,comp,2024.2.4,56.07748132223095,2025-02-24 14h58.18.324599 -0500,
79,79,0,filler_random,None,None,None,None,None,None,None,None,None,None,3,1.8524718284606934,None,,,,,0,0,0,0,0,79,79,148,388.0255796909332,,,,,,,,,,,,,,,,,,,,,,,,,,,,,,,,,,,,,,,,,,,,,,,,,,,,,,,,,,,,,,,,,,,,,,,,,,,,,,,,,87.63710938396306,132.5834789510002,97.67660438683211,104.27168209511439,81.80634679480842,165.42771981319663,3.0,3.1,-214,271,0,-5,231,-267,388.0103454589844,388.0104236602783,388.0140311717987,388.0255796909332,388.17342948913574,388.17342948913574,388.17342948913574,388.17342948913574,388.17342948913574,388.17342948913574,388.17342948913574,389.889639377594,3,1.8524718284606934,None,,,,,,,,,,,,,,,,,,98,1,2025-02-24_14h58.03.711,comp,2024.2.4,56.07748132223095,2025-02-24 14h58.18.324599 -0500,
80,80,0,critical,dwh,20.0,2.1,lower,78.0,78.0,57.0,133.0,133.0,57.0,3,3.7700510025024414,None,,,,,0,0,0,0,0,80,80,6,389.90964365005493,,,,,,,,,,,,,,,,,,,,,,,,,,,,,,,,,,,,,,,,,,,,,,,,,,,,,,,,,,,,,,,,,,,,,,,,,,,,,,,,,78.0,78.0,57.0,133.0,133.0,57.0,2.1,2.11,-202,273,0,259,191,-254,389.8911304473877,389.89120602607727,389.8942301273346,389.90964365005493,390.0442364215851,390.0442364215851,390.0442364215851,390.0442364215851,390.0442364215851,390.0442364215851,390.0442364215851,393.6920726299286,3,3.7700510025024414,None,,,,,,,,,,,,,,,,,,98,1,2025-02-24_14h58.03.711,comp,2024.2.4,56.07748132223095,2025-02-24 14h58.18.324599 -0500,
81,81,0,critical,hwd,35.0,4.0,upper,200.0,125.0,125.0,200.0,127.0,127.0,2,2.210071325302124,None,,,,,0,0,0,0,0,81,81,101,393.70867395401,,,,,,,,,,,,,,,,,,,,,,,,,,,,,,,,,,,,,,,,,,,,,,,,,,,,,,,,,,,,,,,,,,,,,,,,,,,,,,,,,200.0,125.0,125.0,200.0,127.0,127.0,4.0,4.2,-258,1,0,-282,260,-1,393.69352078437805,393.6936151981354,393.6975271701813,393.70867395401,393.85760164260864,393.85760164260864,393.85760164260864,393.85760164260864,393.85760164260864,393.85760164260864,393.85760164260864,395.926322221756,2,2.210071325302124,None,,,,,,,,,,,,,,,,,,98,1,2025-02-24_14h58.03.711,comp,2024.2.4,56.07748132223095,2025-02-24 14h58.18.324599 -0500,
82,82,0,filler_random,None,None,None,None,None,None,None,None,None,None,2,1.247554063796997,None,,,,,0,0,0,0,0,82,82,140,395.9426634311676,,,,,,,,,,,,,,,,,,,,,,,,,,,,,,,,,,,,,,,,,,,,,,,,,,,,,,,,,,,,,,,,,,,,,,,,,,,,,,,,,115.05422844389568,69.48513773031813,105.19139748022408,194.08089978819388,77.80645141345664,88.53312145880236,2.2,2.22,-228,257,0,-281,237,-260,395.92799162864685,395.92806696891785,395.9310393333435,395.9426634311676,396.0956208705902,396.0956208705902,396.0956208705902,396.0956208705902,396.0956208705902,396.0956208705902,396.0956208705902,397.19447469711304,2,1.247554063796997,None,,,,,,,,,,,,,,,,,,98,1,2025-02-24_14h58.03.711,comp,2024.2.4,56.07748132223095,2025-02-24 14h58.18.324599 -0500,
83,83,0,catch,None,None,None,None,None,None,None,None,None,None,1,1.8832333087921143,None,,,,,0,0,0,0,0,83,83,129,397.21086955070496,,,,,,,,,,,,,,,,,,,,,,,,,,,,,,,,,,,,,,,,,,,,,,,,,,,,,,,,,,,,,,,,,,,,,,,,,,,,,,,,,100,90,165,160,86,104,3.0,3.1,-221,275,0,14,228,-279,397.196382522583,397.196457862854,397.1992998123169,397.21086955070496,397.35540294647217,397.35540294647217,397.35540294647217,397.35540294647217,397.35540294647217,397.35540294647217,397.35540294647217,399.10967230796814,1,1.8832333087921143,None,,,,,,,,,,,,,,,,,,98,1,2025-02-24_14h58.03.711,comp,2024.2.4,56.07748132223095,2025-02-24 14h58.18.324599 -0500,
84,84,0,critical,whd,35.0,4.0,upper,125.0,200.0,200.0,125.0,127.0,127.0,1,2.1048412322998047,None,,,,,0,0,0,0,0,84,84,89,399.1254425048828,,,,,,,,,,,,,,,,,,,,,,,,,,,,,,,,,,,,,,,,,,,,,,,,,,,,,,,,,,,,,,,,,,,,,,,,,,,,,,,,,125.0,200.0,200.0,125.0,127.0,127.0,4.0,4.1,-258,-268,0,-5,222,-252,399.11111998558044,399.1111946105957,399.11429142951965,399.1254425048828,399.2760274410248,399.2760274410248,399.2760274410248,399.2760274410248,399.2760274410248,399.2760274410248,399.2760274410248,401.2429904937744,1,2.1048412322998047,None,,,,,,,,,,,,,,,,,,98,1,2025-02-24_14h58.03.711,comp,2024.2.4,56.07748132223095,2025-02-24 14h58.18.324599 -0500,
85,85,0,filler_random,None,None,None,None,None,None,None,None,None,None,1,3.2755110263824463,None,,,,,0,0,0,0,0,85,85,130,401.25905537605286,,,,,,,,,,,,,,,,,,,,,,,,,,,,,,,,,,,,,,,,,,,,,,,,,,,,,,,,,,,,,,,,,,,,,,,,,,,,,,,,,104.67595757487015,145.9946927809999,64.13199661689646,196.57955624830953,154.84106071478104,92.26374044120024,4.0,4.2,-267,-5,0,-282,240,18,401.2447085380554,401.2447843551636,401.2479076385498,401.25905537605286,401.3980712890625,401.3980712890625,401.3980712890625,401.3980712890625,401.3980712890625,401.3980712890625,401.3980712890625,404.54409623146057,1,3.2755110263824463,None,,,,,,,,,,,,,,,,,,98,1,2025-02-24_14h58.03.711,comp,2024.2.4,56.07748132223095,2025-02-24 14h58.18.324599 -0500,
86,86,0,critical,whd,35.0,4.0,lower,57.0,133.0,133.0,57.0,70.0,70.0,2,2.058262825012207,None,,,,,0,0,0,0,0,86,86,88,404.56386828422546,,,,,,,,,,,,,,,,,,,,,,,,,,,,,,,,,,,,,,,,,,,,,,,,,,,,,,,,,,,,,,,,,,,,,,,,,,,,,,,,,57.0,133.0,133.0,57.0,70.0,70.0,4.0,4.2,-191,10,0,-259,160,-11,404.5457217693329,404.54580187797546,404.5490610599518,404.56386828422546,404.7124125957489,404.7124125957489,404.7124125957489,404.7124125957489,404.7124125957489,404.7124125957489,404.7124125957489,406.6373772621155,2,2.058262825012207,None,,,,,,,,,,,,,,,,,,98,1,2025-02-24_14h58.03.711,comp,2024.2.4,56.07748132223095,2025-02-24 14h58.18.324599 -0500,
87,87,0,catch,None,None,None,None,None,None,None,None,None,None,2,2.272218942642212,None,,,,,0,0,0,0,0,87,87,127,406.6540174484253,,,,,,,,,,,,,,,,,,,,,,,,,,,,,,,,,,,,,,,,,,,,,,,,,,,,,,,,,,,,,,,,,,,,,,,,,,,,,,,,,112,78,200,125,75,115,2.1,2.12,-198,-278,0,-282,216,258,406.6394820213318,406.63959074020386,406.6427192687988,406.6540174484253,406.7949056625366,406.7949056625366,406.7949056625366,406.7949056625366,406.7949056625366,406.7949056625366,406.7949056625366,408.9308571815491,2,2.272218942642212,None,,,,,,,,,,,,,,,,,,98,1,2025-02-24_14h58.03.711,comp,2024.2.4,56.07748132223095,2025-02-24 14h58.18.324599 -0500,
88,88,0,critical,whd,35.0,2.1,lower,57.0,133.0,133.0,57.0,70.0,70.0,1,3.697835922241211,None,,,,,0,0,0,0,0,88,88,36,408.94860339164734,,,,,,,,,,,,,,,,,,,,,,,,,,,,,,,,,,,,,,,,,,,,,,,,,,,,,,,,,,,,,,,,,,,,,,,,,,,,,,,,,57.0,133.0,133.0,57.0,70.0,70.0,2.1,2.12,-191,-290,0,-289,160,250,408.9323275089264,408.9324040412903,408.9354751110077,408.94860339164734,409.096581697464,409.096581697464,409.096581697464,409.096581697464,409.096581697464,409.096581697464,409.096581697464,412.6671726703644,1,3.697835922241211,None,,,,,,,,,,,,,,,,,,98,1,2025-02-24_14h58.03.711,comp,2024.2.4,56.07748132223095,2025-02-24 14h58.18.324599 -0500,
89,89,0,filler_random,None,None,None,None,None,None,None,None,None,None,2,1.8955163955688477,None,,,,,0,0,0,0,0,89,89,156,412.68668699264526,,,,,,,,,,,,,,,,,,,,,,,,,,,,,,,,,,,,,,,,,,,,,,,,,,,,,,,,,,,,,,,,,,,,,,,,,,,,,,,,,90.74840801513292,123.37958365068168,176.67120201415872,163.17720363288112,159.26137223153788,144.94141927333806,2.2,2.21,-239,-253,0,266,250,271,412.66906332969666,412.669136762619,412.67276525497437,412.68668699264526,412.83360958099365,412.83360958099365,412.83360958099365,412.83360958099365,412.83360958099365,412.83360958099365,412.83360958099365,414.6005189418793,2,1.8955163955688477,None,,,,,,,,,,,,,,,,,,98,1,2025-02-24_14h58.03.711,comp,2024.2.4,56.07748132223095,2025-02-24 14h58.18.324599 -0500,
90,90,0,filler_square,None,None,None,None,None,None,None,None,None,None,1,4.422331809997559,None,,,,,0,0,0,0,0,90,90,171,414.6173152923584,,,,,,,,,,,,,,,,,,,,,,,,,,,,,,,,,,,,,,,,,,,,,,,,,,,,,,,,,,,,,,,,,,,,,,,,,,,,,,,,,120.01033239106376,84.2393225241837,134.00876645241647,132.4214053220701,141.06104748919256,141.06104748919256,1.0,1.1,-684,283,-480,264,-247,264,414.60246896743774,414.6025667190552,414.606164932251,414.6173152923584,414.7651307582855,414.7651307582855,414.7651307582855,414.7651307582855,414.7651307582855,414.7651307582855,414.7651307582855,419.0512113571167,1,4.422331809997559,None,,,,,,,,,,,,,,,,,,98,1,2025-02-24_14h58.03.711,comp,2024.2.4,56.07748132223095,2025-02-24 14h58.18.324599 -0500,
91,91,0,critical,wdh,35.0,1.0,lower,57.0,133.0,70.0,70.0,133.0,57.0,3,4.930842399597168,None,,,,,0,0,0,0,0,91,91,72,419.0677237510681,,,,,,,,,,,,,,,,,,,,,,,,,,,,,,,,,,,,,,,,,,,,,,,,,,,,,,,,,,,,,,,,,,,,,,,,,,,,,,,,,57.0,133.0,70.0,70.0,133.0,57.0,1.0,1.2,-198,-12,0,6,160,-16,419.05275082588196,419.05287623405457,419.05693650245667,419.0677237510681,419.21713280677795,419.21713280677795,419.21713280677795,419.21713280677795,419.21713280677795,419.21713280677795,419.21713280677795,424.0044720172882,3,4.930842399597168,None,,,,,,,,,,,,,,,,,,98,1,2025-02-24_14h58.03.711,comp,2024.2.4,56.07748132223095,2025-02-24 14h58.18.324599 -0500,
92,92,0,filler_square,None,None,None,None,None,None,None,None,None,None,3,3.0062763690948486,None,,,,,0,0,0,0,0,92,92,185,424.0241024494171,,,,,,,,,,,,,,,,,,,,,,,,,,,,,,,,,,,,,,,,,,,,,,,,,,,,,,,,,,,,,,,,,,,,,,,,,,,,,,,,,57.5146301470509,57.376027319541905,57.31621884890543,60.21320468255352,62.78379060851456,62.78379060851456,3.0,3.2,-155,-279,0,10,157,259,424.0064616203308,424.00656390190125,424.0097155570984,424.0241024494171,424.1704158782959,424.1704158782959,424.1704158782959,424.1704158782959,424.1704158782959,424.1704158782959,424.1704158782959,427.03292298316956,3,3.0062763690948486,None,,,,,,,,,,,,,,,,,,98,1,2025-02-24_14h58.03.711,comp,2024.2.4,56.07748132223095,2025-02-24 14h58.18.324599 -0500,
93,93,0,critical,wdh,35.0,4.0,lower,57.0,133.0,70.0,70.0,133.0,57.0,3,5.785265207290649,None,,,,,0,0,0,0,0,93,93,76,427.0529816150665,,,,,,,,,,,,,,,,,,,,,,,,,,,,,,,,,,,,,,,,,,,,,,,,,,,,,,,,,,,,,,,,,,,,,,,,,,,,,,,,,57.0,133.0,70.0,70.0,133.0,57.0,4.0,4.1,-198,-287,0,-11,160,-262,427.03441286087036,427.0344865322113,427.03730607032776,427.0529816150665,427.1989390850067,427.1989390850067,427.1989390850067,427.1989390850067,427.1989390850067,427.1989390850067,427.1989390850067,432.8516137599945,3,5.785265207290649,None,,,,,,,,,,,,,,,,,,98,1,2025-02-24_14h58.03.711,comp,2024.2.4,56.07748132223095,2025-02-24 14h58.18.324599 -0500,
94,94,0,filler_random,None,None,None,None,None,None,None,None,None,None,1,2.602729558944702,None,,,,,0,0,0,0,0,94,94,153,432.86744022369385,,,,,,,,,,,,,,,,,,,,,,,,,,,,,,,,,,,,,,,,,,,,,,,,,,,,,,,,,,,,,,,,,,,,,,,,,,,,,,,,,79.21822404686098,144.18282788298615,172.28527165317195,75.84527209433013,99.11071823594048,157.54955542858693,2.1,2.11,-206,278,0,290,213,-274,432.8533058166504,432.85338139533997,432.85628032684326,432.86744022369385,433.00503373146057,433.00503373146057,433.00503373146057,433.00503373146057,433.00503373146057,433.00503373146057,433.00503373146057,435.4723045825958,1,2.602729558944702,None,,,,,,,,,,,,,,,,,,98,1,2025-02-24_14h58.03.711,comp,2024.2.4,56.07748132223095,2025-02-24 14h58.18.324599 -0500,
95,95,0,filler_random,None,None,None,None,None,None,None,None,None,None,3,5.158185005187988,None,,,,,0,0,0,0,0,95,95,161,435.48840498924255,,,,,,,,,,,,,,,,,,,,,,,,,,,,,,,,,,,,,,,,,,,,,,,,,,,,,,,,,,,,,,,,,,,,,,,,,,,,,,,,,97.23605160754485,122.90960016777315,72.63548212003926,159.4384336379046,198.7201736044168,97.70960936898584,1.0,1.2,-237,-10,0,19,225,-11,435.47399640083313,435.47407054901123,435.4773762226105,435.48840498924255,435.6398742198944,435.6398742198944,435.6398742198944,435.6398742198944,435.6398742198944,435.6398742198944,435.6398742198944,440.65386176109314,3,5.158185005187988,None,,,,,,,,,,,,,,,,,,98,1,2025-02-24_14h58.03.711,comp,2024.2.4,56.07748132223095,2025-02-24 14h58.18.324599 -0500,
96,96,0,critical,hdw,20.0,4.0,upper,200.0,125.0,141.0,141.0,125.0,200.0,1,5.03558087348938,None,,,,,0,0,0,0,0,96,96,119,440.6746578216553,,,,,,,,,,,,,,,,,,,,,,,,,,,,,,,,,,,,,,,,,,,,,,,,,,,,,,,,,,,,,,,,,,,,,,,,,,,,,,,,,200.0,125.0,141.0,141.0,125.0,200.0,4.0,4.1,-229,-266,0,14,266,-271,440.6554615497589,440.65558385849,440.6588716506958,440.6746578216553,440.8121175765991,440.8121175765991,440.8121175765991,440.8121175765991,440.8121175765991,440.8121175765991,440.8121175765991,445.72904419898987,1,5.03558087348938,None,,,,,,,,,,,,,,,,,,98,1,2025-02-24_14h58.03.711,comp,2024.2.4,56.07748132223095,2025-02-24 14h58.18.324599 -0500,
97,97,0,critical,hdw,20.0,3.0,upper,200.0,125.0,141.0,141.0,125.0,200.0,3,2.149496078491211,None,,,,,0,0,0,0,0,97,97,117,445.7446324825287,,,,,,,,,,,,,,,,,,,,,,,,,,,,,,,,,,,,,,,,,,,,,,,,,,,,,,,,,,,,,,,,,,,,,,,,,,,,,,,,,200.0,125.0,141.0,141.0,125.0,200.0,3.0,3.1,-229,259,0,14,266,-267,445.7309010028839,445.73101687431335,445.73433446884155,445.7446324825287,445.8910639286041,445.8910639286041,445.8910639286041,445.8910639286041,445.8910639286041,445.8910639286041,445.8910639286041,447.90864729881287,3,2.149496078491211,None,,,,,,,,,,,,,,,,,,98,1,2025-02-24_14h58.03.711,comp,2024.2.4,56.07748132223095,2025-02-24 14h58.18.324599 -0500,
98,98,0,filler_square,None,None,None,None,None,None,None,None,None,None,1,6.381227731704712,None,,,,,0,0,0,0,0,98,98,184,447.92893838882446,,,,,,,,,,,,,,,,,,,,,,,,,,,,,,,,,,,,,,,,,,,,,,,,,,,,,,,,,,,,,,,,,,,,,,,,,,,,,,,,,58.616058296492014,58.616058296492014,58.58236895081816,58.51231792597165,57.226463964399656,57.96833114259474,2.2,2.22,-155,279,0,-280,154,-263,447.9104652404785,447.9105694293976,447.91362380981445,447.92893838882446,448.0752604007721,448.0752604007721,448.0752604007721,448.0752604007721,448.0752604007721,448.0752604007721,448.0752604007721,454.32619404792786,1,6.381227731704712,None,,,,,,,,,,,,,,,,,,98,1,2025-02-24_14h58.03.711,comp,2024.2.4,56.07748132223095,2025-02-24 14h58.18.324599 -0500,
99,99,0,critical,dwh,35.0,4.0,upper,127.0,127.0,125.0,200.0,200.0,125.0,2,4.512769937515259,None,,,,,0,0,0,0,0,99,99,65,454.3421063423157,,,,,,,,,,,,,,,,,,,,,,,,,,,,,,,,,,,,,,,,,,,,,,,,,,,,,,,,,,,,,,,,,,,,,,,,,,,,,,,,,127.0,127.0,125.0,200.0,200.0,125.0,4.0,4.2,-260,12,0,-278,258,-19,454.32784271240234,454.32795906066895,454.3311924934387,454.3421063423157,454.49094915390015,454.49094915390015,454.49094915390015,454.49094915390015,454.49094915390015,454.49094915390015,454.49094915390015,458.8627016544342,2,4.512769937515259,None,,,,,,,,,,,,,,,,,,98,1,2025-02-24_14h58.03.711,comp,2024.2.4,56.07748132223095,2025-02-24 14h58.18.324599 -0500,
100,100,0,filler_random,None,None,None,None,None,None,None,None,None,None,1,1.4293546676635742,None,,,,,0,0,0,0,0,100,100,149,458.8810205459595,,,,,,,,,,,,,,,,,,,,,,,,,,,,,,,,,,,,,,,,,,,,,,,,,,,,,,,,,,,,,,,,,,,,,,,,,,,,,,,,,161.24246783359496,85.91384669524412,72.56048385077011,82.79792229009963,98.3276436270172,82.1853468594318,2.2,2.21,-180,-278,0,278,178,274,458.8645131587982,458.86467123031616,458.8683500289917,458.8810205459595,459.02870750427246,459.02870750427246,459.02870750427246,459.02870750427246,459.02870750427246,459.02870750427246,459.02870750427246,460.3254008293152,1,1.4293546676635742,None,,,,,,,,,,,,,,,,,,98,1,2025-02-24_14h58.03.711,comp,2024.2.4,56.07748132223095,2025-02-24 14h58.18.324599 -0500,
101,101,0,filler_random,None,None,None,None,None,None,None,None,None,None,3,1.5113544464111328,None,,,,,0,0,0,0,0,101,101,155,460.3434863090515,,,,,,,,,,,,,,,,,,,,,,,,,,,,,,,,,,,,,,,,,,,,,,,,,,,,,,,,,,,,,,,,,,,,,,,,,,,,,,,,,149.3054216787031,59.061321166065724,108.68247057527836,74.40716445354812,81.49115005249297,196.38801166601317,3.0,3.1,-163,263,0,3,231,-274,460.3271601200104,460.3272795677185,460.3304271697998,460.3434863090515,460.48159527778625,460.48159527778625,460.48159527778625,460.48159527778625,460.48159527778625,460.48159527778625,460.48159527778625,461.86222648620605,3,1.5113544464111328,None,,,,,,,,,,,,,,,,,,98,1,2025-02-24_14h58.03.711,comp,2024.2.4,56.07748132223095,2025-02-24 14h58.18.324599 -0500,
102,102,0,critical,hdw,35.0,4.0,lower,133.0,57.0,70.0,70.0,57.0,133.0,1,2.007936477661133,None,,,,,0,0,0,0,0,102,102,112,461.8782365322113,,,,,,,,,,,,,,,,,,,,,,,,,,,,,,,,,,,,,,,,,,,,,,,,,,,,,,,,,,,,,,,,,,,,,,,,,,,,,,,,,133.0,57.0,70.0,70.0,57.0,133.0,4.0,4.1,-160,-262,0,10,198,-289,461.86371970176697,461.86379647254944,461.8666157722473,461.8782365322113,462.03006625175476,462.03006625175476,462.03006625175476,462.03006625175476,462.03006625175476,462.03006625175476,462.03006625175476,463.89699840545654,1,2.007936477661133,None,,,,,,,,,,,,,,,,,,98,1,2025-02-24_14h58.03.711,comp,2024.2.4,56.07748132223095,2025-02-24 14h58.18.324599 -0500,
103,103,0,critical,hdw,35.0,2.1,lower,133.0,57.0,70.0,70.0,57.0,133.0,1,2.0297746658325195,None,,,,,0,0,0,0,0,103,103,20,463.91309690475464,,,,,,,,,,,,,,,,,,,,,,,,,,,,,,,,,,,,,,,,,,,,,,,,,,,,,,,,,,,,,,,,,,,,,,,,,,,,,,,,,133.0,57.0,70.0,70.0,57.0,133.0,2.1,2.12,-160,-281,0,-255,198,283,463.89842772483826,463.89850187301636,463.9019808769226,463.91309690475464,464.0647346973419,464.0647346973419,464.0647346973419,464.0647346973419,464.0647346973419,464.0647346973419,464.0647346973419,465.947865486145,1,2.0297746658325195,None,,,,,,,,,,,,,,,,,,98,1,2025-02-24_14h58.03.711,comp,2024.2.4,56.07748132223095,2025-02-24 14h58.18.324599 -0500,
104,104,0,filler_random,None,None,None,None,None,None,None,None,None,None,2,1.7945561408996582,None,,,,,0,0,0,0,0,104,104,135,465.9636993408203,,,,,,,,,,,,,,,,,,,,,,,,,,,,,,,,,,,,,,,,,,,,,,,,,,,,,,,,,,,,,,,,,,,,,,,,,,,,,,,,,138.24570014955873,110.7979360838442,189.23656270997967,166.58804495554975,177.04115227074593,106.50013983613204,4.0,4.2,-235,2,0,-271,233,-5,465.9495677947998,465.94964838027954,465.95296025276184,465.9636993408203,466.11469411849976,466.11469411849976,466.11469411849976,466.11469411849976,466.11469411849976,466.11469411849976,466.11469411849976,467.77044701576233,2,1.7945561408996582,None,,,,,,,,,,,,,,,,,,98,1,2025-02-24_14h58.03.711,comp,2024.2.4,56.07748132223095,2025-02-24 14h58.18.324599 -0500,
105,105,0,critical,wdh,35.0,2.1,upper,125.0,200.0,127.0,127.0,200.0,125.0,1,2.018965244293213,None,,,,,0,0,0,0,0,105,105,33,467.78818130493164,,,,,,,,,,,,,,,,,,,,,,,,,,,,,,,,,,,,,,,,,,,,,,,,,,,,,,,,,,,,,,,,,,,,,,,,,,,,,,,,,125.0,200.0,127.0,127.0,200.0,125.0,2.1,2.11,-260,263,0,283,222,-282,467.7721221446991,467.77219796180725,467.77501797676086,467.78818130493164,467.93250608444214,467.93250608444214,467.93250608444214,467.93250608444214,467.93250608444214,467.93250608444214,467.93250608444214,469.8160161972046,1,2.018965244293213,None,,,,,,,,,,,,,,,,,,98,1,2025-02-24_14h58.03.711,comp,2024.2.4,56.07748132223095,2025-02-24 14h58.18.324599 -0500,
106,106,0,critical,hwd,20.0,2.1,upper,200.0,125.0,125.0,200.0,141.0,141.0,2,2.3185787200927734,None,,,,,0,0,0,0,0,106,106,43,469.83169078826904,,,,,,,,,,,,,,,,,,,,,,,,,,,,,,,,,,,,,,,,,,,,,,,,,,,,,,,,,,,,,,,,,,,,,,,,,,,,,,,,,200.0,125.0,125.0,200.0,141.0,141.0,2.1,2.12,-258,-251,0,-254,266,262,469.817578792572,469.81766057014465,469.8209955692291,469.83169078826904,469.98602390289307,469.98602390289307,469.98602390289307,469.98602390289307,469.98602390289307,469.98602390289307,469.98602390289307,472.16898250579834,2,2.3185787200927734,None,,,,,,,,,,,,,,,,,,98,1,2025-02-24_14h58.03.711,comp,2024.2.4,56.07748132223095,2025-02-24 14h58.18.324599 -0500,
107,107,0,critical,dhw,35.0,3.0,lower,70.0,70.0,133.0,57.0,57.0,133.0,3,2.108274459838867,None,,,,,0,0,0,0,0,107,107,50,472.18659687042236,,,,,,,,,,,,,,,,,,,,,,,,,,,,,,,,,,,,,,,,,,,,,,,,,,,,,,,,,,,,,,,,,,,,,,,,,,,,,,,,,70.0,70.0,133.0,57.0,57.0,133.0,3.0,3.1,-160,277,0,-17,191,-281,472.1706488132477,472.1707229614258,472.17407631874084,472.18659687042236,472.33347964286804,472.33347964286804,472.33347964286804,472.33347964286804,472.33347964286804,472.33347964286804,472.33347964286804,474.3008964061737,3,2.108274459838867,None,,,,,,,,,,,,,,,,,,98,1,2025-02-24_14h58.03.711,comp,2024.2.4,56.07748132223095,2025-02-24 14h58.18.324599 -0500,
108,108,0,filler_random,None,None,None,None,None,None,None,None,None,None,1,4.810258150100708,None,,,,,0,0,0,0,0,108,108,154,474.3159999847412,,,,,,,,,,,,,,,,,,,,,,,,,,,,,,,,,,,,,,,,,,,,,,,,,,,,,,,,,,,,,,,,,,,,,,,,,,,,,,,,,173.3481833167963,101.31937983824668,158.8637217780345,90.52111414094514,86.99017138033699,144.16651234432535,1.0,1.1,-672,264,-480,284,-267,268,474.30271315574646,474.3027923107147,474.30613446235657,474.3159999847412,474.4725270271301,474.4725270271301,474.4725270271301,474.4725270271301,474.4725270271301,474.4725270271301,474.4725270271301,479.14482259750366,1,4.810258150100708,None,,,,,,,,,,,,,,,,,,98,1,2025-02-24_14h58.03.711,comp,2024.2.4,56.07748132223095,2025-02-24 14h58.18.324599 -0500,
109,109,0,filler_random,None,None,None,None,None,None,None,None,None,None,2,1.4133274555206299,None,,,,,0,0,0,0,0,109,109,134,479.1617784500122,,,,,,,,,,,,,,,,,,,,,,,,,,,,,,,,,,,,,,,,,,,,,,,,,,,,,,,,,,,,,,,,,,,,,,,,,,,,,,,,,115.33538594228033,58.442088544865705,136.63973576960746,108.78873999466173,117.15090287528977,61.28048798234556,3.0,3.1,-180,269,0,4,181,-272,479.146381855011,479.14645409584045,479.1491959095001,479.1617784500122,479.302770614624,479.302770614624,479.302770614624,479.302770614624,479.302770614624,479.302770614624,479.302770614624,480.59383392333984,2,1.4133274555206299,None,,,,,,,,,,,,,,,,,,98,1,2025-02-24_14h58.03.711,comp,2024.2.4,56.07748132223095,2025-02-24 14h58.18.324599 -0500,
110,110,0,critical,dhw,35.0,2.1,lower,70.0,70.0,133.0,57.0,57.0,133.0,2,1.9048311710357666,None,,,,,0,0,0,0,0,110,110,0,480.61350989341736,,,,,,,,,,,,,,,,,,,,,,,,,,,,,,,,,,,,,,,,,,,,,,,,,,,,,,,,,,,,,,,,,,,,,,,,,,,,,,,,,70.0,70.0,133.0,57.0,57.0,133.0,2.1,2.12,-160,-277,0,-268,191,275,480.5953485965729,480.59542417526245,480.598260641098,480.61350989341736,480.7524209022522,480.7524209022522,480.7524209022522,480.7524209022522,480.7524209022522,480.7524209022522,480.7524209022522,482.53589034080505,2,1.9048311710357666,None,,,,,,,,,,,,,,,,,,98,1,2025-02-24_14h58.03.711,comp,2024.2.4,56.07748132223095,2025-02-24 14h58.18.324599 -0500,
111,111,0,critical,hdw,35.0,1.0,lower,133.0,57.0,70.0,70.0,57.0,133.0,3,2.7786624431610107,None,,,,,0,0,0,0,0,111,111,108,482.55562019348145,,,,,,,,,,,,,,,,,,,,,,,,,,,,,,,,,,,,,,,,,,,,,,,,,,,,,,,,,,,,,,,,,,,,,,,,,,,,,,,,,133.0,57.0,70.0,70.0,57.0,133.0,1.0,1.1,-640,269,-480,265,-282,260,482.5374045372009,482.5374801158905,482.5406651496887,482.55562019348145,482.704966545105,482.704966545105,482.704966545105,482.704966545105,482.704966545105,482.704966545105,482.704966545105,485.33823466300964,3,2.7786624431610107,None,,,,,,,,,,,,,,,,,,98,1,2025-02-24_14h58.03.711,comp,2024.2.4,56.07748132223095,2025-02-24 14h58.18.324599 -0500,
112,112,0,critical,dhw,20.0,1.0,lower,78.0,78.0,133.0,57.0,57.0,133.0,3,2.6835501194000244,None,,,,,0,0,0,0,0,112,112,54,485.3547582626343,,,,,,,,,,,,,,,,,,,,,,,,,,,,,,,,,,,,,,,,,,,,,,,,,,,,,,,,,,,,,,,,,,,,,,,,,,,,,,,,,78.0,78.0,133.0,57.0,57.0,133.0,1.0,1.1,-644,289,-480,290,-289,284,485.3398509025574,485.33992886543274,485.34400963783264,485.3547582626343,485.50079345703125,485.50079345703125,485.50079345703125,485.50079345703125,485.50079345703125,485.50079345703125,485.50079345703125,488.05413842201233,3,2.6835501194000244,None,,,,,,,,,,,,,,,,,,98,1,2025-02-24_14h58.03.711,comp,2024.2.4,56.07748132223095,2025-02-24 14h58.18.324599 -0500,
113,113,0,critical,whd,35.0,2.1,upper,125.0,200.0,200.0,125.0,127.0,127.0,2,1.2160100936889648,None,,,,,0,0,0,0,0,113,113,13,488.07021474838257,,,,,,,,,,,,,,,,,,,,,,,,,,,,,,,,,,,,,,,,,,,,,,,,,,,,,,,,,,,,,,,,,,,,,,,,,,,,,,,,,125.0,200.0,200.0,125.0,127.0,127.0,2.1,2.11,-258,264,0,289,222,-282,488.0557646751404,488.0558388233185,488.05905294418335,488.07021474838257,488.2111301422119,488.2111301422119,488.2111301422119,488.2111301422119,488.2111301422119,488.2111301422119,488.2111301422119,489.2893486022949,2,1.2160100936889648,None,,,,,,,,,,,,,,,,,,98,1,2025-02-24_14h58.03.711,comp,2024.2.4,56.07748132223095,2025-02-24 14h58.18.324599 -0500,
114,114,0,critical,hdw,35.0,2.1,upper,200.0,125.0,127.0,127.0,125.0,200.0,1,1.5720415115356445,None,,,,,0,0,0,0,0,114,114,45,489.3062825202942,,,,,,,,,,,,,,,,,,,,,,,,,,,,,,,,,,,,,,,,,,,,,,,,,,,,,,,,,,,,,,,,,,,,,,,,,,,,,,,,,200.0,125.0,127.0,127.0,125.0,200.0,2.1,2.11,-222,286,0,261,260,-258,489.29109477996826,489.2912223339081,489.29558777809143,489.3062825202942,489.4544608592987,489.4544608592987,489.4544608592987,489.4544608592987,489.4544608592987,489.4544608592987,489.4544608592987,490.89393401145935,1,1.5720415115356445,None,,,,,,,,,,,,,,,,,,98,1,2025-02-24_14h58.03.711,comp,2024.2.4,56.07748132223095,2025-02-24 14h58.18.324599 -0500,
115,115,0,filler_square,None,None,None,None,None,None,None,None,None,None,3,5.584668874740601,None,,,,,0,0,0,0,0,115,115,187,490.90962839126587,,,,,,,,,,,,,,,,,,,,,,,,,,,,,,,,,,,,,,,,,,,,,,,,,,,,,,,,,,,,,,,,,,,,,,,,,,,,,,,,,73.47160595236133,71.05286707388173,75.86863551088561,75.86863551088561,73.52819882533092,66.8121198840729,2.1,2.12,-169,-284,0,-281,167,270,490.8959152698517,490.89603328704834,490.8992643356323,490.90962839126587,491.0563311576843,491.0563311576843,491.0563311576843,491.0563311576843,491.0563311576843,491.0563311576843,491.0563311576843,496.51103687286377,3,5.584668874740601,None,,,,,,,,,,,,,,,,,,98,1,2025-02-24_14h58.03.711,comp,2024.2.4,56.07748132223095,2025-02-24 14h58.18.324599 -0500,
116,116,0,critical,dwh,35.0,3.0,upper,127.0,127.0,125.0,200.0,200.0,125.0,3,4.2482945919036865,None,,,,,0,0,0,0,0,116,116,63,496.5259826183319,,,,,,,,,,,,,,,,,,,,,,,,,,,,,,,,,,,,,,,,,,,,,,,,,,,,,,,,,,,,,,,,,,,,,,,,,,,,,,,,,127.0,127.0,125.0,200.0,200.0,125.0,3.0,3.1,-260,266,0,-5,258,-270,496.5126631259918,496.5127692222595,496.51568055152893,496.5259826183319,496.6815071105957,496.6815071105957,496.6815071105957,496.6815071105957,496.6815071105957,496.6815071105957,496.6815071105957,500.79545736312866,3,4.2482945919036865,None,,,,,,,,,,,,,,,,,,98,1,2025-02-24_14h58.03.711,comp,2024.2.4,56.07748132223095,2025-02-24 14h58.18.324599 -0500,
117,117,0,critical,hwd,20.0,1.0,lower,133.0,57.0,57.0,133.0,78.0,78.0,1,1.8975164890289307,None,,,,,0,0,0,0,0,117,117,102,500.81288599967957,,,,,,,,,,,,,,,,,,,,,,,,,,,,,,,,,,,,,,,,,,,,,,,,,,,,,,,,,,,,,,,,,,,,,,,,,,,,,,,,,133.0,57.0,57.0,133.0,78.0,78.0,1.0,1.1,-671,262,-480,278,-278,287,500.79699659347534,500.7970697879791,500.80007147789,500.81288599967957,500.9584937095642,500.9584937095642,500.9584937095642,500.9584937095642,500.9584937095642,500.9584937095642,500.9584937095642,502.7259511947632,1,1.8975164890289307,None,,,,,,,,,,,,,,,,,,98,1,2025-02-24_14h58.03.711,comp,2024.2.4,56.07748132223095,2025-02-24 14h58.18.324599 -0500,
118,118,0,filler_random,None,None,None,None,None,None,None,None,None,None,1,2.1689329147338867,None,,,,,0,0,0,0,0,118,118,150,502.74138927459717,,,,,,,,,,,,,,,,,,,,,,,,,,,,,,,,,,,,,,,,,,,,,,,,,,,,,,,,,,,,,,,,,,,,,,,,,,,,,,,,,191.6595195433871,107.56330027773956,75.07694180963271,72.97984794766859,59.923049680871614,98.88016183605322,2.1,2.12,-186,-276,0,-278,182,270,502.7275104522705,502.72761368751526,502.730966091156,502.74138927459717,502.898809671402,502.898809671402,502.898809671402,502.898809671402,502.898809671402,502.898809671402,502.898809671402,504.92557549476624,1,2.1689329147338867,None,,,,,,,,,,,,,,,,,,98,1,2025-02-24_14h58.03.711,comp,2024.2.4,56.07748132223095,2025-02-24 14h58.18.324599 -0500,
119,119,0,critical,dhw,35.0,4.0,lower,70.0,70.0,133.0,57.0,57.0,133.0,2,1.7043824195861816,None,,,,,0,0,0,0,0,119,119,52,504.9419183731079,,,,,,,,,,,,,,,,,,,,,,,,,,,,,,,,,,,,,,,,,,,,,,,,,,,,,,,,,,,,,,,,,,,,,,,,,,,,,,,,,70.0,70.0,133.0,57.0,57.0,133.0,4.0,4.1,-160,-263,0,-15,191,-280,504.9271285533905,504.92719984054565,504.93052530288696,504.9419183731079,505.0938820838928,505.0938820838928,505.0938820838928,505.0938820838928,505.0938820838928,505.0938820838928,505.0938820838928,506.66546082496643,2,1.7043824195861816,None,,,,,,,,,,,,,,,,,,98,1,2025-02-24_14h58.03.711,comp,2024.2.4,56.07748132223095,2025-02-24 14h58.18.324599 -0500,
120,120,0,filler_square,None,None,None,None,None,None,None,None,None,None,2,3.4615604877471924,None,,,,,0,0,0,0,0,120,120,193,506.68103432655334,,,,,,,,,,,,,,,,,,,,,,,,,,,,,,,,,,,,,,,,,,,,,,,,,,,,,,,,,,,,,,,,,,,,,,,,,,,,,,,,,65.72549744904737,130.1702613029197,155.7932967920799,67.39564340460633,174.3507351969883,174.3507351969883,2.2,2.21,-195,-287,0,252,217,284,506.66736578941345,506.66749024391174,506.6706898212433,506.68103432655334,506.83534932136536,506.83534932136536,506.83534932136536,506.83534932136536,506.83534932136536,506.83534932136536,506.83534932136536,510.14559030532837,2,3.4615604877471924,None,,,,,,,,,,,,,,,,,,98,1,2025-02-24_14h58.03.711,comp,2024.2.4,56.07748132223095,2025-02-24 14h58.18.324599 -0500,
121,121,0,critical,dhw,20.0,2.1,upper,141.0,141.0,200.0,125.0,125.0,200.0,2,1.6184356212615967,None,,,,,0,0,0,0,0,121,121,27,510.1642837524414,,,,,,,,,,,,,,,,,,,,,,,,,,,,,,,,,,,,,,,,,,,,,,,,,,,,,,,,,,,,,,,,,,,,,,,,,,,,,,,,,141.0,141.0,200.0,125.0,125.0,200.0,2.1,2.11,-229,271,0,278,258,-280,510.14705514907837,510.1471290588379,510.1500895023346,510.1642837524414,510.31397128105164,510.31397128105164,510.31397128105164,510.31397128105164,510.31397128105164,510.31397128105164,510.31397128105164,511.7959771156311,2,1.6184356212615967,None,,,,,,,,,,,,,,,,,,98,1,2025-02-24_14h58.03.711,comp,2024.2.4,56.07748132223095,2025-02-24 14h58.18.324599 -0500,
122,122,0,critical,hdw,20.0,2.1,upper,200.0,125.0,141.0,141.0,125.0,200.0,1,1.2912373542785645,None,,,,,0,0,0,0,0,122,122,23,511.81177520751953,,,,,,,,,,,,,,,,,,,,,,,,,,,,,,,,,,,,,,,,,,,,,,,,,,,,,,,,,,,,,,,,,,,,,,,,,,,,,,,,,200.0,125.0,141.0,141.0,125.0,200.0,2.1,2.11,-229,255,0,278,266,-272,511.79744362831116,511.7975161075592,511.80157947540283,511.81177520751953,511.96290349960327,511.96290349960327,511.96290349960327,511.96290349960327,511.96290349960327,511.96290349960327,511.96290349960327,513.1112289428711,1,1.2912373542785645,None,,,,,,,,,,,,,,,,,,98,1,2025-02-24_14h58.03.711,comp,2024.2.4,56.07748132223095,2025-02-24 14h58.18.324599 -0500,
123,123,0,critical,hwd,35.0,1.0,upper,200.0,125.0,125.0,200.0,127.0,127.0,2,1.4060685634613037,None,,,,,0,0,0,0,0,123,123,97,513.1286659240723,,,,,,,,,,,,,,,,,,,,,,,,,,,,,,,,,,,,,,,,,,,,,,,,,,,,,,,,,,,,,,,,,,,,,,,,,,,,,,,,,200.0,125.0,125.0,200.0,127.0,127.0,1.0,1.3,222,-264,480,-275,740,-286,513.1127042770386,513.1127789020538,513.1155333518982,513.1286659240723,513.2681331634521,513.2681331634521,513.2681331634521,513.2681331634521,513.2681331634521,513.2681331634521,513.2681331634521,514.5535025596619,2,1.4060685634613037,None,,,,,,,,,,,,,,,,,,98,1,2025-02-24_14h58.03.711,comp,2024.2.4,56.07748132223095,2025-02-24 14h58.18.324599 -0500,
124,124,0,critical,dwh,35.0,2.1,upper,127.0,127.0,125.0,200.0,200.0,125.0,2,1.09806227684021,None,,,,,0,0,0,0,0,124,124,29,514.573273897171,,,,,,,,,,,,,,,,,,,,,,,,,,,,,,,,,,,,,,,,,,,,,,,,,,,,,,,,,,,,,,,,,,,,,,,,,,,,,,,,,127.0,127.0,125.0,200.0,200.0,125.0,2.1,2.12,-260,-270,0,-278,258,259,514.5550699234009,514.5551438331604,514.5580360889435,514.573273897171,514.709954738617,514.709954738617,514.709954738617,514.709954738617,514.709954738617,514.709954738617,514.709954738617,515.6801536083221,2,1.09806227684021,None,,,,,,,,,,,,,,,,,,98,1,2025-02-24_14h58.03.711,comp,2024.2.4,56.07748132223095,2025-02-24 14h58.18.324599 -0500,
125,125,0,filler_square,None,None,None,None,None,None,None,None,None,None,3,1.3338418006896973,None,,,,,0,0,0,0,0,125,125,179,515.6964733600616,,,,,,,,,,,,,,,,,,,,,,,,,,,,,,,,,,,,,,,,,,,,,,,,,,,,,,,,,,,,,,,,,,,,,,,,,,,,,,,,,95.65227304571769,112.97680867647665,57.53367706331922,71.88993772298222,131.06568292260596,131.06568292260596,3.0,3.2,-188,-275,0,2,197,255,515.6821751594543,515.6822550296783,515.6855218410492,515.6964733600616,515.853099822998,515.853099822998,515.853099822998,515.853099822998,515.853099822998,515.853099822998,515.853099822998,517.0470507144928,3,1.3338418006896973,None,,,,,,,,,,,,,,,,,,98,1,2025-02-24_14h58.03.711,comp,2024.2.4,56.07748132223095,2025-02-24 14h58.18.324599 -0500,
126,126,0,filler_random,None,None,None,None,None,None,None,None,None,None,3,1.2645213603973389,None,,,,,0,0,0,0,0,126,126,145,517.0626332759857,,,,,,,,,,,,,,,,,,,,,,,,,,,,,,,,,,,,,,,,,,,,,,,,,,,,,,,,,,,,,,,,,,,,,,,,,,,,,,,,,146.0425178779845,84.8489450636981,198.30082330072037,65.96233162204769,171.75454050709152,156.43628859783018,2.2,2.21,-171,-287,0,254,207,274,517.048816204071,517.048944234848,517.0522577762604,517.0626332759857,517.2115135192871,517.2115135192871,517.2115135192871,517.2115135192871,517.2115135192871,517.2115135192871,517.2115135192871,518.3352625370026,3,1.2645213603973389,None,,,,,,,,,,,,,,,,,,98,1,2025-02-24_14h58.03.711,comp,2024.2.4,56.07748132223095,2025-02-24 14h58.18.324599 -0500,
127,127,0,critical,wdh,20.0,1.0,upper,125.0,200.0,141.0,141.0,200.0,125.0,3,1.1327502727508545,None,,,,,0,0,0,0,0,127,127,79,518.354160785675,,,,,,,,,,,,,,,,,,,,,,,,,,,,,,,,,,,,,,,,,,,,,,,,,,,,,,,,,,,,,,,,,,,,,,,,,,,,,,,,,125.0,200.0,141.0,141.0,200.0,125.0,1.0,1.1,-746,276,-480,278,-251,270,518.3369083404541,518.3369853496552,518.3399007320404,518.354160785675,518.498616695404,518.498616695404,518.498616695404,518.498616695404,518.498616695404,518.498616695404,518.498616695404,519.4983792304993,3,1.1327502727508545,None,,,,,,,,,,,,,,,,,,98,1,2025-02-24_14h58.03.711,comp,2024.2.4,56.07748132223095,2025-02-24 14h58.18.324599 -0500,
128,128,0,filler_square,None,None,None,None,None,None,None,None,None,None,1,1.753793716430664,None,,,,,0,0,0,0,0,128,128,202,519.5164637565613,,,,,,,,,,,,,,,,,,,,,,,,,,,,,,,,,,,,,,,,,,,,,,,,,,,,,,,,,,,,,,,,,,,,,,,,,,,,,,,,,92.71056723633829,79.98625943764628,198.2152902660461,198.2152902660461,102.42412452306075,72.69036350840865,2.2,2.21,-235,-273,0,273,231,287,519.5001204013824,519.5001957416534,519.5031335353851,519.5164637565613,519.6616442203522,519.6616442203522,519.6616442203522,519.6616442203522,519.6616442203522,519.6616442203522,519.6616442203522,521.2832922935486,1,1.753793716430664,None,,,,,,,,,,,,,,,,,,98,1,2025-02-24_14h58.03.711,comp,2024.2.4,56.07748132223095,2025-02-24 14h58.18.324599 -0500,
129,129,0,catch,None,None,None,None,None,None,None,None,None,None,2,1.1721296310424805,None,,,,,0,0,0,0,0,129,129,121,521.2990171909332,,,,,,,,,,,,,,,,,,,,,,,,,,,,,,,,,,,,,,,,,,,,,,,,,,,,,,,,,,,,,,,,,,,,,,,,,,,,,,,,,122,68,135,190,120,70,4.0,4.1,-225,-257,0,4,226,-270,521.2854425907135,521.285519361496,521.2887165546417,521.2990171909332,521.4501700401306,521.4501700401306,521.4501700401306,521.4501700401306,521.4501700401306,521.4501700401306,521.4501700401306,522.4742147922516,2,1.1721296310424805,None,,,,,,,,,,,,,,,,,,98,1,2025-02-24_14h58.03.711,comp,2024.2.4,56.07748132223095,2025-02-24 14h58.18.324599 -0500,
130,130,0,filler_random,None,None,None,None,None,None,None,None,None,None,2,1.1723754405975342,None,,,,,0,0,0,0,0,130,130,169,522.4903500080109,,,,,,,,,,,,,,,,,,,,,,,,,,,,,,,,,,,,,,,,,,,,,,,,,,,,,,,,,,,,,,,,,,,,,,,,,,,,,,,,,138.01250235169158,199.35976681334105,162.16423421648526,193.13362074692614,82.03051269573336,69.6477191313573,1.0,1.1,-772,258,-480,273,-253,252,522.4759955406189,522.47611951828,522.4793195724487,522.4903500080109,522.6348083019257,522.6348083019257,522.6348083019257,522.6348083019257,522.6348083019257,522.6348083019257,522.6348083019257,523.6728692054749,2,1.1723754405975342,None,,,,,,,,,,,,,,,,,,98,1,2025-02-24_14h58.03.711,comp,2024.2.4,56.07748132223095,2025-02-24 14h58.18.324599 -0500,
131,131,0,critical,dwh,20.0,2.1,upper,141.0,141.0,125.0,200.0,200.0,125.0,2,1.937938928604126,None,,,,,0,0,0,0,0,131,131,31,523.692634344101,,,,,,,,,,,,,,,,,,,,,,,,,,,,,,,,,,,,,,,,,,,,,,,,,,,,,,,,,,,,,,,,,,,,,,,,,,,,,,,,,141.0,141.0,125.0,200.0,200.0,125.0,2.1,2.12,-266,-274,0,-284,258,279,523.6743388175964,523.6744124889374,523.6772241592407,523.692634344101,523.8333277702332,523.8333277702332,523.8333277702332,523.8333277702332,523.8333277702332,523.8333277702332,523.8333277702332,525.6354184150696,2,1.937938928604126,None,,,,,,,,,,,,,,,,,,98,1,2025-02-24_14h58.03.711,comp,2024.2.4,56.07748132223095,2025-02-24 14h58.18.324599 -0500,
132,132,0,critical,dhw,20.0,2.1,lower,78.0,78.0,133.0,57.0,57.0,133.0,3,1.297964334487915,None,,,,,0,0,0,0,0,132,132,26,525.6523549556732,,,,,,,,,,,,,,,,,,,,,,,,,,,,,,,,,,,,,,,,,,,,,,,,,,,,,,,,,,,,,,,,,,,,,,,,,,,,,,,,,78.0,78.0,133.0,57.0,57.0,133.0,2.1,2.11,-164,269,0,278,191,-263,525.637044429779,525.6371219158173,525.6408312320709,525.6523549556732,525.8004257678986,525.8004257678986,525.8004257678986,525.8004257678986,525.8004257678986,525.8004257678986,525.8004257678986,526.9661619663239,3,1.297964334487915,None,,,,,,,,,,,,,,,,,,98,1,2025-02-24_14h58.03.711,comp,2024.2.4,56.07748132223095,2025-02-24 14h58.18.324599 -0500,
133,133,0,filler_square,None,None,None,None,None,None,None,None,None,None,2,2.283921003341675,None,,,,,0,0,0,0,0,133,133,175,526.9865050315857,,,,,,,,,,,,,,,,,,,,,,,,,,,,,,,,,,,,,,,,,,,,,,,,,,,,,,,,,,,,,,,,,,,,,,,,,,,,,,,,,82.56995827448279,99.86762480381739,189.45697401326973,189.45697401326973,131.8207921609971,67.66084549574997,4.0,4.2,-241,-5,0,-262,225,10,526.9678647518158,526.9679419994354,526.9710786342621,526.9865050315857,527.1231343746185,527.1231343746185,527.1231343746185,527.1231343746185,527.1231343746185,527.1231343746185,527.1231343746185,529.2840850353241,2,2.283921003341675,None,,,,,,,,,,,,,,,,,,98,1,2025-02-24_14h58.03.711,comp,2024.2.4,56.07748132223095,2025-02-24 14h58.18.324599 -0500,
134,134,0,critical,dwh,20.0,1.0,lower,78.0,78.0,57.0,133.0,133.0,57.0,3,1.1309633255004883,None,,,,,0,0,0,0,0,134,134,66,529.3001267910004,,,,,,,,,,,,,,,,,,,,,,,,,,,,,,,,,,,,,,,,,,,,,,,,,,,,,,,,,,,,,,,,,,,,,,,,,,,,,,,,,78.0,78.0,57.0,133.0,133.0,57.0,1.0,1.2,-202,-12,0,-3,191,1,529.2855317592621,529.285647392273,529.2889370918274,529.3001267910004,529.4516925811768,529.4516925811768,529.4516925811768,529.4516925811768,529.4516925811768,529.4516925811768,529.4516925811768,530.4367091655731,3,1.1309633255004883,None,,,,,,,,,,,,,,,,,,98,1,2025-02-24_14h58.03.711,comp,2024.2.4,56.07748132223095,2025-02-24 14h58.18.324599 -0500,
135,135,0,critical,wdh,35.0,2.1,lower,57.0,133.0,70.0,70.0,133.0,57.0,3,1.1778943538665771,None,,,,,0,0,0,0,0,135,135,8,530.4526438713074,,,,,,,,,,,,,,,,,,,,,,,,,,,,,,,,,,,,,,,,,,,,,,,,,,,,,,,,,,,,,,,,,,,,,,,,,,,,,,,,,57.0,133.0,70.0,70.0,133.0,57.0,2.1,2.12,-198,-280,0,-265,160,279,530.4382364749908,530.4383277893066,530.4418232440948,530.4526438713074,530.5976822376251,530.5976822376251,530.5976822376251,530.5976822376251,530.5976822376251,530.5976822376251,530.5976822376251,531.6357765197754,3,1.1778943538665771,None,,,,,,,,,,,,,,,,,,98,1,2025-02-24_14h58.03.711,comp,2024.2.4,56.07748132223095,2025-02-24 14h58.18.324599 -0500,
136,136,0,critical,hdw,20.0,2.1,lower,133.0,57.0,78.0,78.0,57.0,133.0,1,1.198380947113037,None,,,,,0,0,0,0,0,136,136,46,531.6559615135193,,,,,,,,,,,,,,,,,,,,,,,,,,,,,,,,,,,,,,,,,,,,,,,,,,,,,,,,,,,,,,,,,,,,,,,,,,,,,,,,,133.0,57.0,78.0,78.0,57.0,133.0,2.1,2.11,-164,285,0,275,202,-284,531.6373844146729,531.6374678611755,531.6408100128174,531.6559615135193,531.8024232387543,531.8024232387543,531.8024232387543,531.8024232387543,531.8024232387543,531.8024232387543,531.8024232387543,532.8676953315735,1,1.198380947113037,None,,,,,,,,,,,,,,,,,,98,1,2025-02-24_14h58.03.711,comp,2024.2.4,56.07748132223095,2025-02-24 14h58.18.324599 -0500,
137,137,0,critical,wdh,20.0,2.1,lower,57.0,133.0,78.0,78.0,133.0,57.0,3,1.0586950778961182,None,,,,,0,0,0,0,0,137,137,34,532.8835921287537,,,,,,,,,,,,,,,,,,,,,,,,,,,,,,,,,,,,,,,,,,,,,,,,,,,,,,,,,,,,,,,,,,,,,,,,,,,,,,,,,57.0,133.0,78.0,78.0,133.0,57.0,2.1,2.12,-202,-268,0,-280,164,287,532.8691294193268,532.8692030906677,532.8722002506256,532.8835921287537,533.0208036899567,533.0208036899567,533.0208036899567,533.0208036899567,533.0208036899567,533.0208036899567,533.0208036899567,533.9526309967041,3,1.0586950778961182,None,,,,,,,,,,,,,,,,,,98,1,2025-02-24_14h58.03.711,comp,2024.2.4,56.07748132223095,2025-02-24 14h58.18.324599 -0500,
138,138,0,critical,dwh,20.0,2.1,upper,141.0,141.0,125.0,200.0,200.0,125.0,2,1.1755833625793457,None,,,,,0,0,0,0,0,138,138,7,533.9668176174164,,,,,,,,,,,,,,,,,,,,,,,,,,,,,,,,,,,,,,,,,,,,,,,,,,,,,,,,,,,,,,,,,,,,,,,,,,,,,,,,,141.0,141.0,125.0,200.0,200.0,125.0,2.1,2.11,-266,276,0,250,258,-282,533.9541020393372,533.9541790485382,533.9573795795441,533.9668176174164,534.1174514293671,534.1174514293671,534.1174514293671,534.1174514293671,534.1174514293671,534.1174514293671,534.1174514293671,535.153480052948,2,1.1755833625793457,None,,,,,,,,,,,,,,,,,,98,1,2025-02-24_14h58.03.711,comp,2024.2.4,56.07748132223095,2025-02-24 14h58.18.324599 -0500,
139,139,0,critical,hdw,20.0,1.0,upper,200.0,125.0,141.0,141.0,125.0,200.0,1,1.2928047180175781,None,,,,,0,0,0,0,0,139,139,115,535.1713333129883,,,,,,,,,,,,,,,,,,,,,,,,,,,,,,,,,,,,,,,,,,,,,,,,,,,,,,,,,,,,,,,,,,,,,,,,,,,,,,,,,200.0,125.0,141.0,141.0,125.0,200.0,1.0,1.1,-709,273,-480,263,-214,267,535.1548991203308,535.1549732685089,535.158017873764,535.1713333129883,535.3204431533813,535.3204431533813,535.3204431533813,535.3204431533813,535.3204431533813,535.3204431533813,535.3204431533813,536.4670386314392,1,1.2928047180175781,None,,,,,,,,,,,,,,,,,,98,1,2025-02-24_14h58.03.711,comp,2024.2.4,56.07748132223095,2025-02-24 14h58.18.324599 -0500,
140,140,0,critical,whd,35.0,3.0,upper,125.0,200.0,200.0,125.0,127.0,127.0,1,1.4896173477172852,None,,,,,0,0,0,0,0,140,140,87,536.4847078323364,,,,,,,,,,,,,,,,,,,,,,,,,,,,,,,,,,,,,,,,,,,,,,,,,,,,,,,,,,,,,,,,,,,,,,,,,,,,,,,,,125.0,200.0,200.0,125.0,127.0,127.0,3.0,3.1,-258,283,0,-18,222,-279,536.468504190445,536.4686024188995,536.4713878631592,536.4847078323364,536.6395771503448,536.6395771503448,536.6395771503448,536.6395771503448,536.6395771503448,536.6395771503448,536.6395771503448,537.9893574714661,1,1.4896173477172852,None,,,,,,,,,,,,,,,,,,98,1,2025-02-24_14h58.03.711,comp,2024.2.4,56.07748132223095,2025-02-24 14h58.18.324599 -0500,
