thisN,thisTrialN,thisRepN,effect,order,distance,config,diag,h_1,w_1,h_2,w_2,h_3,w_3,rect_choice.keys,rect_choice.rt,rect_choice.duration,instructions_loop.thisRepN,instructions_loop.thisTrialN,instructions_loop.thisN,instructions_loop.thisIndex,blocks.thisRepN,blocks.thisTrialN,blocks.thisN,blocks.thisIndex,trials.thisRepN,trials.thisTrialN,trials.thisN,trials.thisIndex,thisRow.t,notes,consent.started,agree_button.started,decline_button.started,consent_img.started,mouse.started,consent.stopped,agree_button.numClicks,agree_button.timesOn,agree_button.timesOff,decline_button.numClicks,decline_button.timesOn,decline_button.timesOff,mouse.x,mouse.y,mouse.leftButton,mouse.midButton,mouse.rightButton,mouse.time,mouse.clicked_name,exp_params.started,exp_params.stopped,welcome.started,welcome_text.started,welcome.stopped,instructions_1.started,instructions_1_text_1.started,instructions_1_text_2.started,key_resp.started,instructions_1.stopped,instructions_loop.key_resp.keys,instructions_loop.key_resp.rt,instructions_loop.key_resp.duration,instructions_2.started,instructions_2_text_1.started,instructions_2_text_2.started,key_resp_2.started,instructions_2.stopped,instructions_loop.key_resp_2.keys,instructions_loop.key_resp_2.rt,instructions_loop.key_resp_2.duration,instructions_3.started,instructions_3_text_1.started,r1_instr3.started,r2_instr3.started,r3_instr3.started,r1_instr3_label.started,r2_instr3_label.started,r3_instr3_label.started,instructions_3_text_3.started,instructions_3_text_4.started,key_resp_3.started,instructions_3.stopped,instructions_loop.key_resp_3.keys,instructions_loop.key_resp_3.rt,instructions_loop.key_resp_3.duration,instructions_4.started,instructions_4_text_1.started,instructions_4_text_3.started,instructions_4_text_2.started,key_resp_4.started,instructions_4.stopped,instructions_loop.key_resp_4.keys,instructions_loop.key_resp_4.rt,instructions_loop.key_resp_4.duration,instructions_5.started,instructions_5_text_1.started,instructions_5_text_2.started,key_resp_5.started,instructions_5.stopped,instructions_loop.key_resp_5.keys,instructions_loop.key_resp_5.rt,instructions_loop.key_resp_5.duration,start_exp.started,start_exp_text.started,key_resp_6.started,start_exp.stopped,key_resp_6.keys,key_resp_6.rt,key_resp_6.duration,h_1_tmp,w_1_tmp,h_2_tmp,w_2_tmp,h_3_tmp,w_3_tmp,config_tmp,config_tmp_1,r_1_x,r_1_y,r_2_x,r_2_y,r_3_x,r_3_y,pre_trial.started,pre_trial.stopped,choice_trial.started,rect_choice.started,r_1.started,r_2.started,r_3.started,r_1_label.started,r_2_label.started,r_3_label.started,prompt.started,choice_trial.stopped,trials.rect_choice.keys,trials.rect_choice.rt,trials.rect_choice.duration,end_block.started,end_block_text.started,end_block.stopped,end.started,end_text.started,key_resp_7.started,end.stopped,key_resp_7.keys,key_resp_7.rt,key_resp_7.duration,debriefing.started,debrief_form.started,end_debrief.started,debriefing.stopped,end_debrief.keys,end_debrief.rt,end_debrief.duration,participant,computer,date,expName,psychopyVersion,frameRate,expStart,
,,,,,,,,,,,,,,,,,,,,,,,,,,,,,,,0.014907121658325195,0.034703731536865234,0.034703731536865234,0.034703731536865234,0.01470947265625,30.91694951057434,1,[30.879841804504395],[30.879863500595093],0,,,[-61.0],[-504.0],[1],[0],[0],[30.901650190353394],['agree_button'],,,,,,,,,,,,,,,,,,,,,,,,,,,,,,,,,,,,,,,,,,,,,,,,,,,,,,,,,,,,,,,,,,,,,,,,,,,,,,,,,,,,,,,,,,,,,,,,,,,,,,,,,,,99,2,2025-02-24_14h58.21.550,comp,2024.2.4,None,2025-02-24 14h58.35.801301 -0500,
,,,,,,,,,,,,,,,,,,,,,,,,,,,,,,,,,,,,,,,,,,,,,,,,,,30.917495250701904,30.917562246322632,,,,,,,,,,,,,,,,,,,,,,,,,,,,,,,,,,,,,,,,,,,,,,,,,,,,,,,,,,,,,,,,,,,,,,,,,,,,,,,,,,,,,,,,,,,,,,,,,,,,,,,,,99,2,2025-02-24_14h58.21.550,comp,2024.2.4,None,2025-02-24 14h58.35.801301 -0500,
,,,,,,,,,,,,,,,,,,,,,,,,,,,,,,,,,,,,,,,,,,,,,,,,,,,,30.91760563850403,30.933119773864746,32.92402148246765,,,,,,,,,,,,,,,,,,,,,,,,,,,,,,,,,,,,,,,,,,,,,,,,,,,,,,,,,,,,,,,,,,,,,,,,,,,,,,,,,,,,,,,,,,,,,,,,,,,,,,99,2,2025-02-24_14h58.21.550,comp,2024.2.4,None,2025-02-24 14h58.35.801301 -0500,
0,0,0,,,,,,,,,,,,,,,0,0,0,0,,,,,,,,,32.940388679504395,,,,,,,,,,,,,,,,,,,,,,,,,,32.92514443397522,32.940388679504395,32.940388679504395,34.44552302360535,37.430495738983154,space,2.9664602279663086,None,37.43065285682678,37.44722890853882,37.44722890853882,38.943021297454834,42.13059425354004,space,3.18107008934021,None,42.13074588775635,42.16582226753235,42.16582226753235,42.16582226753235,42.16582226753235,42.16582226753235,42.16582226753235,42.16582226753235,42.16582226753235,42.16582226753235,43.63177466392517,49.16372346878052,space,5.51606559753418,None,49.16388964653015,49.18094229698181,49.18094229698181,49.18094229698181,50.679399490356445,58.46635818481445,space,7.772427797317505,None,58.46653914451599,58.48152232170105,58.48152232170105,59.965670585632324,61.26780414581299,space,1.2862920761108398,None,61.26799917221069,61.28064179420471,61.28064179420471,62.817732095718384,space,1.5237727165222168,None,,,,,,,,,,,,,,,,,,,,,,,,,,,,,,,,,,,,,,,,,,,,,,,99,2,2025-02-24_14h58.21.550,comp,2024.2.4,None,2025-02-24 14h58.35.801301 -0500,
0,0,0,critical,hdw,35.0,2.1,lower,133.0,57.0,70.0,70.0,57.0,133.0,1,8.949393510818481,None,,,,,0,0,0,0,0,0,0,44,62.89445924758911,,,,,,,,,,,,,,,,,,,,,,,,,,,,,,,,,,,,,,,,,,,,,,,,,,,,,,,,,,,,,,,,,,,,,,,,,,,,,,,,,133.0,57.0,70.0,70.0,57.0,133.0,2.1,2.12,-160,-266,0,-251,198,258,62.877665758132935,62.87770414352417,62.879090785980225,62.89445924758911,63.04348850250244,63.04348850250244,63.04348850250244,63.04348850250244,63.04348850250244,63.04348850250244,63.04348850250244,71.85862302780151,1,8.949393510818481,None,,,,,,,,,,,,,,,,,,99,2,2025-02-24_14h58.21.550,comp,2024.2.4,None,2025-02-24 14h58.35.801301 -0500,
1,1,0,critical,wdh,20.0,2.1,lower,57.0,133.0,78.0,78.0,133.0,57.0,1,3.794340133666992,None,,,,,0,0,0,0,0,1,1,10,71.87466764450073,,,,,,,,,,,,,,,,,,,,,,,,,,,,,,,,,,,,,,,,,,,,,,,,,,,,,,,,,,,,,,,,,,,,,,,,,,,,,,,,,57.0,133.0,78.0,78.0,133.0,57.0,2.1,2.12,-202,-275,0,-258,164,265,71.85999131202698,71.86004829406738,71.8622179031372,71.87466764450073,72.02009677886963,72.02009677886963,72.02009677886963,72.02009677886963,72.02009677886963,72.02009677886963,72.02009677886963,75.67111802101135,1,3.794340133666992,None,,,,,,,,,,,,,,,,,,99,2,2025-02-24_14h58.21.550,comp,2024.2.4,None,2025-02-24 14h58.35.801301 -0500,
2,2,0,critical,wdh,35.0,4.0,upper,125.0,200.0,127.0,127.0,200.0,125.0,3,3.79702091217041,None,,,,,0,0,0,0,0,2,2,77,75.6876335144043,,,,,,,,,,,,,,,,,,,,,,,,,,,,,,,,,,,,,,,,,,,,,,,,,,,,,,,,,,,,,,,,,,,,,,,,,,,,,,,,,125.0,200.0,127.0,127.0,200.0,125.0,4.0,4.1,-260,-265,0,-18,222,-253,75.6727032661438,75.67278051376343,75.67593193054199,75.6876335144043,75.84165740013123,75.84165740013123,75.84165740013123,75.84165740013123,75.84165740013123,75.84165740013123,75.84165740013123,79.4906313419342,3,3.79702091217041,None,,,,,,,,,,,,,,,,,,99,2,2025-02-24_14h58.21.550,comp,2024.2.4,None,2025-02-24 14h58.35.801301 -0500,
3,3,0,filler_square,None,None,None,None,None,None,None,None,None,None,2,2.872138261795044,None,,,,,0,0,0,0,0,3,3,196,79.5163242816925,,,,,,,,,,,,,,,,,,,,,,,,,,,,,,,,,,,,,,,,,,,,,,,,,,,,,,,,,,,,,,,,,,,,,,,,,,,,,,,,,92.65052217891125,99.07787222381322,104.40322014369374,104.40322014369374,96.85378437226288,60.72506403378544,3.0,3.2,-198,-284,0,13,179,274,79.4926061630249,79.49268364906311,79.49593615531921,79.5163242816925,79.65670585632324,79.65670585632324,79.65670585632324,79.65670585632324,79.65670585632324,79.65670585632324,79.65670585632324,82.39106678962708,2,2.872138261795044,None,,,,,,,,,,,,,,,,,,99,2,2025-02-24_14h58.21.550,comp,2024.2.4,None,2025-02-24 14h58.35.801301 -0500,
4,4,0,filler_random,None,None,None,None,None,None,None,None,None,None,2,3.067547082901001,None,,,,,0,0,0,0,0,4,4,135,82.40831518173218,,,,,,,,,,,,,,,,,,,,,,,,,,,,,,,,,,,,,,,,,,,,,,,,,,,,,,,,,,,,,,,,,,,,,,,,,,,,,,,,,106.89887982775748,84.76689659803843,87.9568505075173,186.23127563610322,137.13729516433176,122.89522017376602,1.0,1.1,-711,277,-480,269,-229,283,82.39302802085876,82.39310598373413,82.39656400680542,82.40831518173218,82.56375813484192,82.56375813484192,82.56375813484192,82.56375813484192,82.56375813484192,82.56375813484192,82.56375813484192,85.49138188362122,2,3.067547082901001,None,,,,,,,,,,,,,,,,,,99,2,2025-02-24_14h58.21.550,comp,2024.2.4,None,2025-02-24 14h58.35.801301 -0500,
5,5,0,critical,dhw,20.0,1.0,upper,141.0,141.0,200.0,125.0,125.0,200.0,2,1.6890511512756348,None,,,,,0,0,0,0,0,5,5,55,85.50681900978088,,,,,,,,,,,,,,,,,,,,,,,,,,,,,,,,,,,,,,,,,,,,,,,,,,,,,,,,,,,,,,,,,,,,,,,,,,,,,,,,,141.0,141.0,200.0,125.0,125.0,200.0,1.0,1.1,-709,275,-480,259,-222,274,85.49300265312195,85.4930830001831,85.49650001525879,85.50681900978088,85.65632247924805,85.65632247924805,85.65632247924805,85.65632247924805,85.65632247924805,85.65632247924805,85.65632247924805,87.20877122879028,2,1.6890511512756348,None,,,,,,,,,,,,,,,,,,99,2,2025-02-24_14h58.21.550,comp,2024.2.4,None,2025-02-24 14h58.35.801301 -0500,
6,6,0,critical,whd,20.0,4.0,upper,125.0,200.0,200.0,125.0,141.0,141.0,1,2.9041647911071777,None,,,,,0,0,0,0,0,6,6,95,87.22845888137817,,,,,,,,,,,,,,,,,,,,,,,,,,,,,,,,,,,,,,,,,,,,,,,,,,,,,,,,,,,,,,,,,,,,,,,,,,,,,,,,,125.0,200.0,200.0,125.0,141.0,141.0,4.0,4.2,-258,3,0,-280,229,0,87.21026349067688,87.21034097671509,87.21351265907288,87.22845888137817,87.37582039833069,87.37582039833069,87.37582039833069,87.37582039833069,87.37582039833069,87.37582039833069,87.37582039833069,90.1442084312439,1,2.9041647911071777,None,,,,,,,,,,,,,,,,,,99,2,2025-02-24_14h58.21.550,comp,2024.2.4,None,2025-02-24 14h58.35.801301 -0500,
7,7,0,filler_random,None,None,None,None,None,None,None,None,None,None,2,2.6359362602233887,None,,,,,0,0,0,0,0,7,7,163,90.15999293327332,,,,,,,,,,,,,,,,,,,,,,,,,,,,,,,,,,,,,,,,,,,,,,,,,,,,,,,,,,,,,,,,,,,,,,,,,,,,,,,,,187.1155558318001,177.16268473186216,172.23218801400313,196.39431457206175,148.2221629579717,89.50772582721444,1.0,1.2,-283,-7,0,5,239,9,90.14593267440796,90.14603352546692,90.14927053451538,90.15999293327332,90.31282472610474,90.31282472610474,90.31282472610474,90.31282472610474,90.31282472610474,90.31282472610474,90.31282472610474,92.8108901977539,2,2.6359362602233887,None,,,,,,,,,,,,,,,,,,99,2,2025-02-24_14h58.21.550,comp,2024.2.4,None,2025-02-24 14h58.35.801301 -0500,
8,8,0,critical,dhw,20.0,2.1,lower,78.0,78.0,133.0,57.0,57.0,133.0,2,2.593595027923584,None,,,,,0,0,0,0,0,8,8,2,92.82701683044434,,,,,,,,,,,,,,,,,,,,,,,,,,,,,,,,,,,,,,,,,,,,,,,,,,,,,,,,,,,,,,,,,,,,,,,,,,,,,,,,,78.0,78.0,133.0,57.0,57.0,133.0,2.1,2.12,-164,-269,0,-272,191,258,92.81260895729065,92.8126893043518,92.8167622089386,92.82701683044434,92.97525906562805,92.97525906562805,92.97525906562805,92.97525906562805,92.97525906562805,92.97525906562805,92.97525906562805,95.43011283874512,2,2.593595027923584,None,,,,,,,,,,,,,,,,,,99,2,2025-02-24_14h58.21.550,comp,2024.2.4,None,2025-02-24 14h58.35.801301 -0500,
9,9,0,filler_square,None,None,None,None,None,None,None,None,None,None,3,2.5335793495178223,None,,,,,0,0,0,0,0,9,9,206,95.4467568397522,,,,,,,,,,,,,,,,,,,,,,,,,,,,,,,,,,,,,,,,,,,,,,,,,,,,,,,,,,,,,,,,,,,,,,,,,,,,,,,,,67.77820335279439,87.07820056285267,72.69722404741346,58.341530005472514,93.94577769768024,93.94577769768024,2.2,2.22,-169,251,0,-273,172,-274,95.43208909034729,95.43216967582703,95.43601751327515,95.4467568397522,95.58580303192139,95.58580303192139,95.58580303192139,95.58580303192139,95.58580303192139,95.58580303192139,95.58580303192139,97.99742245674133,3,2.5335793495178223,None,,,,,,,,,,,,,,,,,,99,2,2025-02-24_14h58.21.550,comp,2024.2.4,None,2025-02-24 14h58.35.801301 -0500,
10,10,0,critical,wdh,20.0,3.0,lower,57.0,133.0,78.0,78.0,133.0,57.0,3,2.814204454421997,None,,,,,0,0,0,0,0,10,10,80,98.01376390457153,,,,,,,,,,,,,,,,,,,,,,,,,,,,,,,,,,,,,,,,,,,,,,,,,,,,,,,,,,,,,,,,,,,,,,,,,,,,,,,,,57.0,133.0,78.0,78.0,133.0,57.0,3.0,3.1,-202,252,0,0,164,-274,97.99928593635559,97.99939131736755,98.00348138809204,98.01376390457153,98.1616415977478,98.1616415977478,98.1616415977478,98.1616415977478,98.1616415977478,98.1616415977478,98.1616415977478,100.83159351348877,3,2.814204454421997,None,,,,,,,,,,,,,,,,,,99,2,2025-02-24_14h58.21.550,comp,2024.2.4,None,2025-02-24 14h58.35.801301 -0500,
11,11,0,filler_random,None,None,None,None,None,None,None,None,None,None,2,1.5832569599151611,None,,,,,0,0,0,0,0,11,11,130,100.85266065597534,,,,,,,,,,,,,,,,,,,,,,,,,,,,,,,,,,,,,,,,,,,,,,,,,,,,,,,,,,,,,,,,,,,,,,,,,,,,,,,,,103.26490714954159,126.24100209553166,197.6156767603728,158.9872408777582,62.69161425102767,96.13819775859486,3.0,3.2,-239,-289,0,-15,224,256,100.83330368995667,100.83337950706482,100.83686113357544,100.85266065597534,100.99870157241821,100.99870157241821,100.99870157241821,100.99870157241821,100.99870157241821,100.99870157241821,100.99870157241821,102.44960618019104,2,1.5832569599151611,None,,,,,,,,,,,,,,,,,,99,2,2025-02-24_14h58.21.550,comp,2024.2.4,None,2025-02-24 14h58.35.801301 -0500,
12,12,0,critical,whd,35.0,2.1,upper,125.0,200.0,200.0,125.0,127.0,127.0,1,2.631643772125244,None,,,,,0,0,0,0,0,12,12,13,102.46831035614014,,,,,,,,,,,,,,,,,,,,,,,,,,,,,,,,,,,,,,,,,,,,,,,,,,,,,,,,,,,,,,,,,,,,,,,,,,,,,,,,,125.0,200.0,200.0,125.0,127.0,127.0,2.1,2.12,-258,-276,0,-260,222,258,102.4512071609497,102.45128583908081,102.4547188282013,102.46831035614014,102.61451935768127,102.61451935768127,102.61451935768127,102.61451935768127,102.61451935768127,102.61451935768127,102.61451935768127,105.11231422424316,1,2.631643772125244,None,,,,,,,,,,,,,,,,,,99,2,2025-02-24_14h58.21.550,comp,2024.2.4,None,2025-02-24 14h58.35.801301 -0500,
13,13,0,filler_square,None,None,None,None,None,None,None,None,None,None,1,1.627706527709961,None,,,,,0,0,0,0,0,13,13,181,105.12829208374023,,,,,,,,,,,,,,,,,,,,,,,,,,,,,,,,,,,,,,,,,,,,,,,,,,,,,,,,,,,,,,,,,,,,,,,,,,,,,,,,,124.06490779352866,124.06490779352866,106.61368090863743,86.66186138197185,107.69044411731588,69.01147793698811,2.1,2.12,-201,-250,0,-271,174,256,105.11450242996216,105.11458230018616,105.11798071861267,105.12829208374023,105.28157758712769,105.28157758712769,105.28157758712769,105.28157758712769,105.28157758712769,105.28157758712769,105.28157758712769,106.77224349975586,1,1.627706527709961,None,,,,,,,,,,,,,,,,,,99,2,2025-02-24_14h58.21.550,comp,2024.2.4,None,2025-02-24 14h58.35.801301 -0500,
14,14,0,filler_square,None,None,None,None,None,None,None,None,None,None,3,2.942889928817749,None,,,,,0,0,0,0,0,14,14,188,106.78975749015808,,,,,,,,,,,,,,,,,,,,,,,,,,,,,,,,,,,,,,,,,,,,,,,,,,,,,,,,,,,,,,,,,,,,,,,,,,,,,,,,,58.909668621397294,63.206958087627164,57.14267068573874,60.95078283369965,64.46401966330602,64.46401966330602,2.2,2.21,-158,-266,0,255,159,267,106.77407741546631,106.77415657043457,106.7770926952362,106.78975749015808,106.93118834495544,106.93118834495544,106.93118834495544,106.93118834495544,106.93118834495544,106.93118834495544,106.93118834495544,109.73555588722229,3,2.942889928817749,None,,,,,,,,,,,,,,,,,,99,2,2025-02-24_14h58.21.550,comp,2024.2.4,None,2025-02-24 14h58.35.801301 -0500,
15,15,0,critical,whd,20.0,2.1,lower,57.0,133.0,133.0,57.0,78.0,78.0,1,2.252323627471924,None,,,,,0,0,0,0,0,15,15,14,109.75157284736633,,,,,,,,,,,,,,,,,,,,,,,,,,,,,,,,,,,,,,,,,,,,,,,,,,,,,,,,,,,,,,,,,,,,,,,,,,,,,,,,,57.0,133.0,133.0,57.0,78.0,78.0,2.1,2.11,-191,273,0,258,164,-261,109.73722672462463,109.7373206615448,109.74075722694397,109.75157284736633,109.89916253089905,109.89916253089905,109.89916253089905,109.89916253089905,109.89916253089905,109.89916253089905,109.89916253089905,112.01931762695312,1,2.252323627471924,None,,,,,,,,,,,,,,,,,,99,2,2025-02-24_14h58.21.550,comp,2024.2.4,None,2025-02-24 14h58.35.801301 -0500,
16,16,0,filler_random,None,None,None,None,None,None,None,None,None,None,1,1.5030922889709473,None,,,,,0,0,0,0,0,16,16,142,112.03751397132874,,,,,,,,,,,,,,,,,,,,,,,,,,,,,,,,,,,,,,,,,,,,,,,,,,,,,,,,,,,,,,,,,,,,,,,,,,,,,,,,,145.78650731467508,178.72108728029986,80.47353511209765,144.40772086434373,101.2592203959565,188.67841110976025,2.1,2.12,-258,-271,0,-280,263,277,112.0210862159729,112.02116417884827,112.02407789230347,112.03751397132874,112.18292498588562,112.18292498588562,112.18292498588562,112.18292498588562,112.18292498588562,112.18292498588562,112.18292498588562,113.54892015457153,1,1.5030922889709473,None,,,,,,,,,,,,,,,,,,99,2,2025-02-24_14h58.21.550,comp,2024.2.4,None,2025-02-24 14h58.35.801301 -0500,
17,17,0,filler_square,None,None,None,None,None,None,None,None,None,None,2,3.3602683544158936,None,,,,,0,0,0,0,0,17,17,195,113.56550979614258,,,,,,,,,,,,,,,,,,,,,,,,,,,,,,,,,,,,,,,,,,,,,,,,,,,,,,,,,,,,,,,,,,,,,,,,,,,,,,,,,77.00809242591164,83.46386465002061,85.47696425280208,85.47696425280208,69.76475383304421,60.09780301684393,2.2,2.21,-180,-276,0,270,169,288,113.55072259902954,113.55080032348633,113.55382466316223,113.56550979614258,113.70132040977478,113.70132040977478,113.70132040977478,113.70132040977478,113.70132040977478,113.70132040977478,113.70132040977478,116.93595695495605,2,3.3602683544158936,None,,,,,,,,,,,,,,,,,,99,2,2025-02-24_14h58.21.550,comp,2024.2.4,None,2025-02-24 14h58.35.801301 -0500,
18,18,0,critical,hwd,20.0,3.0,upper,200.0,125.0,125.0,200.0,141.0,141.0,2,1.4519708156585693,None,,,,,0,0,0,0,0,18,18,105,116.95233583450317,,,,,,,,,,,,,,,,,,,,,,,,,,,,,,,,,,,,,,,,,,,,,,,,,,,,,,,,,,,,,,,,,,,,,,,,,,,,,,,,,200.0,125.0,125.0,200.0,141.0,141.0,3.0,3.2,-258,-274,0,-14,266,278,116.93756866455078,116.93772459030151,116.94129681587219,116.95233583450317,117.10814118385315,117.10814118385315,117.10814118385315,117.10814118385315,117.10814118385315,117.10814118385315,117.10814118385315,118.42200422286987,2,1.4519708156585693,None,,,,,,,,,,,,,,,,,,99,2,2025-02-24_14h58.21.550,comp,2024.2.4,None,2025-02-24 14h58.35.801301 -0500,
19,19,0,filler_square,None,None,None,None,None,None,None,None,None,None,1,1.1381597518920898,None,,,,,0,0,0,0,0,19,19,170,118.44231820106506,,,,,,,,,,,,,,,,,,,,,,,,,,,,,,,,,,,,,,,,,,,,,,,,,,,,,,,,,,,,,,,,,,,,,,,,,,,,,,,,,196.82731572655646,196.82731572655646,97.39451080264047,119.40347269764982,159.0812290545084,181.8164683136863,4.0,4.2,-254,16,0,-265,247,-5,118.4240837097168,118.42416477203369,118.42759680747986,118.44231820106506,118.58315658569336,118.58315658569336,118.58315658569336,118.58315658569336,118.58315658569336,118.58315658569336,118.58315658569336,119.58465147018433,1,1.1381597518920898,None,,,,,,,,,,,,,,,,,,99,2,2025-02-24_14h58.21.550,comp,2024.2.4,None,2025-02-24 14h58.35.801301 -0500,
20,20,0,catch,None,None,None,None,None,None,None,None,None,None,2,1.1482136249542236,None,,,,,0,0,0,0,0,20,20,127,119.60050702095032,,,,,,,,,,,,,,,,,,,,,,,,,,,,,,,,,,,,,,,,,,,,,,,,,,,,,,,,,,,,,,,,,,,,,,,,,,,,,,,,,95,95,126,199,123,67,2.2,2.21,-243,-265,0,264,229,258,119.58659863471985,119.58667707443237,119.58980464935303,119.60050702095032,119.75152468681335,119.75152468681335,119.75152468681335,119.75152468681335,119.75152468681335,119.75152468681335,119.75152468681335,120.75268507003784,2,1.1482136249542236,None,,,,,,,,,,,,,,,,,,99,2,2025-02-24_14h58.21.550,comp,2024.2.4,None,2025-02-24 14h58.35.801301 -0500,
21,21,0,critical,wdh,20.0,2.1,upper,125.0,200.0,141.0,141.0,200.0,125.0,1,2.771517038345337,None,,,,,0,0,0,0,0,21,21,35,120.7685341835022,,,,,,,,,,,,,,,,,,,,,,,,,,,,,,,,,,,,,,,,,,,,,,,,,,,,,,,,,,,,,,,,,,,,,,,,,,,,,,,,,125.0,200.0,141.0,141.0,200.0,125.0,2.1,2.11,-266,264,0,267,229,-254,120.75425219535828,120.75433087348938,120.75780153274536,120.7685341835022,120.91949224472046,120.91949224472046,120.91949224472046,120.91949224472046,120.91949224472046,120.91949224472046,120.91949224472046,123.55440950393677,1,2.771517038345337,None,,,,,,,,,,,,,,,,,,99,2,2025-02-24_14h58.21.550,comp,2024.2.4,None,2025-02-24 14h58.35.801301 -0500,
22,22,0,filler_square,None,None,None,None,None,None,None,None,None,None,2,2.2736196517944336,None,,,,,0,0,0,0,0,22,22,171,123.57086563110352,,,,,,,,,,,,,,,,,,,,,,,,,,,,,,,,,,,,,,,,,,,,,,,,,,,,,,,,,,,,,,,,,,,,,,,,,,,,,,,,,62.75707401366038,57.41328427874388,65.50961887615065,65.50961887615065,58.34397100026572,63.704162952113805,1.0,1.1,-637,272,-480,276,-319,256,123.55623745918274,123.556312084198,123.56017637252808,123.57086563110352,123.7189552783966,123.7189552783966,123.7189552783966,123.7189552783966,123.7189552783966,123.7189552783966,123.7189552783966,125.85476469993591,2,2.2736196517944336,None,,,,,,,,,,,,,,,,,,99,2,2025-02-24_14h58.21.550,comp,2024.2.4,None,2025-02-24 14h58.35.801301 -0500,
23,23,0,critical,dwh,35.0,2.1,lower,70.0,70.0,57.0,133.0,133.0,57.0,2,3.2032885551452637,None,,,,,0,0,0,0,0,23,23,4,125.87267971038818,,,,,,,,,,,,,,,,,,,,,,,,,,,,,,,,,,,,,,,,,,,,,,,,,,,,,,,,,,,,,,,,,,,,,,,,,,,,,,,,,70.0,70.0,57.0,133.0,133.0,57.0,2.1,2.12,-198,-257,0,-290,191,269,125.85633325576782,125.8564133644104,125.85956144332886,125.87267971038818,126.02078056335449,126.02078056335449,126.02078056335449,126.02078056335449,126.02078056335449,126.02078056335449,126.02078056335449,129.09079337120056,2,3.2032885551452637,None,,,,,,,,,,,,,,,,,,99,2,2025-02-24_14h58.21.550,comp,2024.2.4,None,2025-02-24 14h58.35.801301 -0500,
24,24,0,critical,dhw,35.0,1.0,upper,127.0,127.0,200.0,125.0,125.0,200.0,2,3.033909320831299,None,,,,,0,0,0,0,0,24,24,49,129.10637760162354,,,,,,,,,,,,,,,,,,,,,,,,,,,,,,,,,,,,,,,,,,,,,,,,,,,,,,,,,,,,,,,,,,,,,,,,,,,,,,,,,127.0,127.0,200.0,125.0,125.0,200.0,1.0,1.1,-702,254,-480,271,-222,288,129.09240651130676,129.09252047538757,129.09569811820984,129.10637760162354,129.2618408203125,129.2618408203125,129.2618408203125,129.2618408203125,129.2618408203125,129.2618408203125,129.2618408203125,132.15915250778198,2,3.033909320831299,None,,,,,,,,,,,,,,,,,,99,2,2025-02-24_14h58.21.550,comp,2024.2.4,None,2025-02-24 14h58.35.801301 -0500,
25,25,0,critical,dhw,35.0,1.0,lower,70.0,70.0,133.0,57.0,57.0,133.0,2,2.1500139236450195,None,,,,,0,0,0,0,0,25,25,48,132.17475271224976,,,,,,,,,,,,,,,,,,,,,,,,,,,,,,,,,,,,,,,,,,,,,,,,,,,,,,,,,,,,,,,,,,,,,,,,,,,,,,,,,70.0,70.0,133.0,57.0,57.0,133.0,1.0,1.2,-160,2,0,15,191,10,132.16126108169556,132.16134071350098,132.16438126564026,132.17475271224976,132.32271790504456,132.32271790504456,132.32271790504456,132.32271790504456,132.32271790504456,132.32271790504456,132.32271790504456,134.32693362236023,2,2.1500139236450195,None,,,,,,,,,,,,,,,,,,99,2,2025-02-24_14h58.21.550,comp,2024.2.4,None,2025-02-24 14h58.35.801301 -0500,
26,26,0,filler_square,None,None,None,None,None,None,None,None,None,None,2,1.1585731506347656,None,,,,,0,0,0,0,0,26,26,190,134.34256148338318,,,,,,,,,,,,,,,,,,,,,,,,,,,,,,,,,,,,,,,,,,,,,,,,,,,,,,,,,,,,,,,,,,,,,,,,,,,,,,,,,96.1305985370665,81.02878445333205,173.08865497851576,173.08865497851576,129.6033419192883,68.98168137437486,2.1,2.12,-223,-286,0,-273,217,269,134.32887315750122,134.32895374298096,134.33189296722412,134.34256148338318,134.49005460739136,134.49005460739136,134.49005460739136,134.49005460739136,134.49005460739136,134.49005460739136,134.49005460739136,135.50865030288696,2,1.1585731506347656,None,,,,,,,,,,,,,,,,,,99,2,2025-02-24_14h58.21.550,comp,2024.2.4,None,2025-02-24 14h58.35.801301 -0500,
27,27,0,critical,dhw,20.0,3.0,upper,141.0,141.0,200.0,125.0,125.0,200.0,3,1.830080270767212,None,,,,,0,0,0,0,0,27,27,57,135.52608275413513,,,,,,,,,,,,,,,,,,,,,,,,,,,,,,,,,,,,,,,,,,,,,,,,,,,,,,,,,,,,,,,,,,,,,,,,,,,,,,,,,141.0,141.0,200.0,125.0,125.0,200.0,3.0,3.2,-229,-263,0,-19,258,286,135.51049327850342,135.5106372833252,135.51461839675903,135.52608275413513,135.67254328727722,135.67254328727722,135.67254328727722,135.67254328727722,135.67254328727722,135.67254328727722,135.67254328727722,137.3593304157257,3,1.830080270767212,None,,,,,,,,,,,,,,,,,,99,2,2025-02-24_14h58.21.550,comp,2024.2.4,None,2025-02-24 14h58.35.801301 -0500,
28,28,0,critical,dhw,20.0,3.0,lower,78.0,78.0,133.0,57.0,57.0,133.0,2,2.7640650272369385,None,,,,,0,0,0,0,0,28,28,56,137.37588834762573,,,,,,,,,,,,,,,,,,,,,,,,,,,,,,,,,,,,,,,,,,,,,,,,,,,,,,,,,,,,,,,,,,,,,,,,,,,,,,,,,78.0,78.0,133.0,57.0,57.0,133.0,3.0,3.1,-164,277,0,-5,191,-270,137.36103796958923,137.36117815971375,137.36512303352356,137.37588834762573,137.5245509147644,137.5245509147644,137.5245509147644,137.5245509147644,137.5245509147644,137.5245509147644,137.5245509147644,140.15870213508606,2,2.7640650272369385,None,,,,,,,,,,,,,,,,,,99,2,2025-02-24_14h58.21.550,comp,2024.2.4,None,2025-02-24 14h58.35.801301 -0500,
29,29,0,critical,hdw,20.0,1.0,upper,200.0,125.0,141.0,141.0,125.0,200.0,3,2.862579822540283,None,,,,,0,0,0,0,0,29,29,115,140.17414832115173,,,,,,,,,,,,,,,,,,,,,,,,,,,,,,,,,,,,,,,,,,,,,,,,,,,,,,,,,,,,,,,,,,,,,,,,,,,,,,,,,200.0,125.0,141.0,141.0,125.0,200.0,1.0,1.1,-709,255,-480,287,-214,262,140.1602222919464,140.16029906272888,140.16371965408325,140.17414832115173,140.32388710975647,140.32388710975647,140.32388710975647,140.32388710975647,140.32388710975647,140.32388710975647,140.32388710975647,143.0442864894867,3,2.862579822540283,None,,,,,,,,,,,,,,,,,,99,2,2025-02-24_14h58.21.550,comp,2024.2.4,None,2025-02-24 14h58.35.801301 -0500,
30,30,0,critical,hwd,35.0,3.0,lower,133.0,57.0,57.0,133.0,70.0,70.0,1,3.215012550354004,None,,,,,0,0,0,0,0,30,30,98,143.06103110313416,,,,,,,,,,,,,,,,,,,,,,,,,,,,,,,,,,,,,,,,,,,,,,,,,,,,,,,,,,,,,,,,,,,,,,,,,,,,,,,,,133.0,57.0,57.0,133.0,70.0,70.0,3.0,3.1,-191,275,0,13,198,-270,143.045912027359,143.04604291915894,143.05012202262878,143.06103110313416,143.21753573417664,143.21753573417664,143.21753573417664,143.21753573417664,143.21753573417664,143.21753573417664,143.21753573417664,146.27812814712524,1,3.215012550354004,None,,,,,,,,,,,,,,,,,,99,2,2025-02-24_14h58.21.550,comp,2024.2.4,None,2025-02-24 14h58.35.801301 -0500,
31,31,0,critical,hdw,35.0,2.1,upper,200.0,125.0,127.0,127.0,125.0,200.0,1,1.2280316352844238,None,,,,,0,0,0,0,0,31,31,45,146.29659748077393,,,,,,,,,,,,,,,,,,,,,,,,,,,,,,,,,,,,,,,,,,,,,,,,,,,,,,,,,,,,,,,,,,,,,,,,,,,,,,,,,200.0,125.0,127.0,127.0,125.0,200.0,2.1,2.12,-222,-256,0,-258,260,260,146.27983903884888,146.27996444702148,146.2835545539856,146.29659748077393,146.44930362701416,146.44930362701416,146.44930362701416,146.44930362701416,146.44930362701416,146.44930362701416,146.44930362701416,147.52678418159485,1,1.2280316352844238,None,,,,,,,,,,,,,,,,,,99,2,2025-02-24_14h58.21.550,comp,2024.2.4,None,2025-02-24 14h58.35.801301 -0500,
32,32,0,filler_square,None,None,None,None,None,None,None,None,None,None,1,1.5968990325927734,None,,,,,0,0,0,0,0,32,32,174,147.54399824142456,,,,,,,,,,,,,,,,,,,,,,,,,,,,,,,,,,,,,,,,,,,,,,,,,,,,,,,,,,,,,,,,,,,,,,,,,,,,,,,,,117.61949365675386,117.61949365675386,100.67619166260124,100.53452811753715,102.32747271291788,75.62520216852285,1.0,1.3,275,-250,480,-283,664,-280,147.52882599830627,147.52890491485596,147.5322551727295,147.54399824142456,147.6989586353302,147.6989586353302,147.6989586353302,147.6989586353302,147.6989586353302,147.6989586353302,147.6989586353302,149.1449191570282,1,1.5968990325927734,None,,,,,,,,,,,,,,,,,,99,2,2025-02-24_14h58.21.550,comp,2024.2.4,None,2025-02-24 14h58.35.801301 -0500,
33,33,0,critical,hwd,20.0,1.0,lower,133.0,57.0,57.0,133.0,78.0,78.0,2,2.3400075435638428,None,,,,,0,0,0,0,0,33,33,102,149.16061568260193,,,,,,,,,,,,,,,,,,,,,,,,,,,,,,,,,,,,,,,,,,,,,,,,,,,,,,,,,,,,,,,,,,,,,,,,,,,,,,,,,133.0,57.0,57.0,133.0,78.0,78.0,1.0,1.1,-671,276,-480,285,-278,260,149.1464488506317,149.1465301513672,149.14991331100464,149.16061568260193,149.30993580818176,149.30993580818176,149.30993580818176,149.30993580818176,149.30993580818176,149.30993580818176,149.30993580818176,151.5204222202301,2,2.3400075435638428,None,,,,,,,,,,,,,,,,,,99,2,2025-02-24_14h58.21.550,comp,2024.2.4,None,2025-02-24 14h58.35.801301 -0500,
34,34,0,filler_random,None,None,None,None,None,None,None,None,None,None,3,2.655695676803589,None,,,,,0,0,0,0,0,34,34,159,151.54037141799927,,,,,,,,,,,,,,,,,,,,,,,,,,,,,,,,,,,,,,,,,,,,,,,,,,,,,,,,,,,,,,,,,,,,,,,,,,,,,,,,,113.11247319597763,116.79439042639939,176.8447266358897,63.44228998397008,125.18448886302383,116.79284640883505,4.0,4.1,-186,-264,0,17,186,-281,151.52216506004333,151.52223920822144,151.52515387535095,151.54037141799927,151.67931199073792,151.67931199073792,151.67931199073792,151.67931199073792,151.67931199073792,151.67931199073792,151.67931199073792,154.21218752861023,3,2.655695676803589,None,,,,,,,,,,,,,,,,,,99,2,2025-02-24_14h58.21.550,comp,2024.2.4,None,2025-02-24 14h58.35.801301 -0500,
35,35,0,critical,hwd,35.0,1.0,lower,133.0,57.0,57.0,133.0,70.0,70.0,2,1.913085699081421,None,,,,,0,0,0,0,0,35,35,96,154.22758674621582,,,,,,,,,,,,,,,,,,,,,,,,,,,,,,,,,,,,,,,,,,,,,,,,,,,,,,,,,,,,,,,,,,,,,,,,,,,,,,,,,133.0,57.0,57.0,133.0,70.0,70.0,1.0,1.2,-191,13,0,4,198,13,154.21374607086182,154.21382403373718,154.2170352935791,154.22758674621582,154.38065242767334,154.38065242767334,154.38065242767334,154.38065242767334,154.38065242767334,154.38065242767334,154.38065242767334,156.1470832824707,2,1.913085699081421,None,,,,,,,,,,,,,,,,,,99,2,2025-02-24_14h58.21.550,comp,2024.2.4,None,2025-02-24 14h58.35.801301 -0500,
36,36,0,filler_square,None,None,None,None,None,None,None,None,None,None,1,4.49716854095459,None,,,,,0,0,0,0,0,36,36,178,156.16352701187134,,,,,,,,,,,,,,,,,,,,,,,,,,,,,,,,,,,,,,,,,,,,,,,,,,,,,,,,,,,,,,,,,,,,,,,,,,,,,,,,,58.528368231456525,58.676017437268435,61.49598437560726,61.49598437560726,59.51986904080131,58.039753192425636,2.2,2.22,-156,288,0,-274,156,-289,156.14908266067505,156.14917731285095,156.1525890827179,156.16352701187134,156.3165397644043,156.3165397644043,156.3165397644043,156.3165397644043,156.3165397644043,156.3165397644043,156.3165397644043,160.66338658332825,1,4.49716854095459,None,,,,,,,,,,,,,,,,,,99,2,2025-02-24_14h58.21.550,comp,2024.2.4,None,2025-02-24 14h58.35.801301 -0500,
37,37,0,critical,whd,35.0,3.0,lower,57.0,133.0,133.0,57.0,70.0,70.0,2,3.14850115776062,None,,,,,0,0,0,0,0,37,37,86,160.67980408668518,,,,,,,,,,,,,,,,,,,,,,,,,,,,,,,,,,,,,,,,,,,,,,,,,,,,,,,,,,,,,,,,,,,,,,,,,,,,,,,,,57.0,133.0,133.0,57.0,70.0,70.0,3.0,3.1,-191,287,0,-19,160,-270,160.66493201255798,160.6650116443634,160.66798329353333,160.67980408668518,160.81545662879944,160.81545662879944,160.81545662879944,160.81545662879944,160.81545662879944,160.81545662879944,160.81545662879944,163.83188676834106,2,3.14850115776062,None,,,,,,,,,,,,,,,,,,99,2,2025-02-24_14h58.21.550,comp,2024.2.4,None,2025-02-24 14h58.35.801301 -0500,
38,38,0,filler_random,None,None,None,None,None,None,None,None,None,None,3,2.280813694000244,None,,,,,0,0,0,0,0,38,38,148,163.85121035575867,,,,,,,,,,,,,,,,,,,,,,,,,,,,,,,,,,,,,,,,,,,,,,,,,,,,,,,,,,,,,,,,,,,,,,,,,,,,,,,,,91.91193498813088,62.14612933537587,165.5027060139621,159.53201763793197,161.20742859150675,188.16439959521335,2.2,2.22,-207,271,0,-267,270,-263,163.83368706703186,163.8337652683258,163.83699584007263,163.85121035575867,163.9994616508484,163.9994616508484,163.9994616508484,163.9994616508484,163.9994616508484,163.9994616508484,163.9994616508484,166.13461136817932,3,2.280813694000244,None,,,,,,,,,,,,,,,,,,99,2,2025-02-24_14h58.21.550,comp,2024.2.4,None,2025-02-24 14h58.35.801301 -0500,
39,39,0,critical,hdw,35.0,4.0,upper,200.0,125.0,127.0,127.0,125.0,200.0,3,2.925772190093994,None,,,,,0,0,0,0,0,39,39,113,166.15033960342407,,,,,,,,,,,,,,,,,,,,,,,,,,,,,,,,,,,,,,,,,,,,,,,,,,,,,,,,,,,,,,,,,,,,,,,,,,,,,,,,,200.0,125.0,127.0,127.0,125.0,200.0,4.0,4.1,-222,-258,0,15,260,-252,166.1361906528473,166.13627171516418,166.1396586894989,166.15033960342407,166.30378580093384,166.30378580093384,166.30378580093384,166.30378580093384,166.30378580093384,166.30378580093384,166.30378580093384,169.08986568450928,3,2.925772190093994,None,,,,,,,,,,,,,,,,,,99,2,2025-02-24_14h58.21.550,comp,2024.2.4,None,2025-02-24 14h58.35.801301 -0500,
40,40,0,catch,None,None,None,None,None,None,None,None,None,None,1,1.2364509105682373,None,,,,,0,0,0,0,0,40,40,122,169.1036820411682,,,,,,,,,,,,,,,,,,,,,,,,,,,,,,,,,,,,,,,,,,,,,,,,,,,,,,,,,,,,,,,,,,,,,,,,,,,,,,,,,178,147,77,113,75,115,2.2,2.22,-226,256,0,-267,210,-281,169.09172177314758,169.09176182746887,169.0929126739502,169.1036820411682,169.24912452697754,169.24912452697754,169.24912452697754,169.24912452697754,169.24912452697754,169.24912452697754,169.24912452697754,170.34224343299866,1,1.2364509105682373,None,,,,,,,,,,,,,,,,,,99,2,2025-02-24_14h58.21.550,comp,2024.2.4,None,2025-02-24 14h58.35.801301 -0500,
41,41,0,critical,hwd,35.0,2.1,upper,200.0,125.0,125.0,200.0,127.0,127.0,1,1.3560693264007568,None,,,,,0,0,0,0,0,41,41,17,170.3605055809021,,,,,,,,,,,,,,,,,,,,,,,,,,,,,,,,,,,,,,,,,,,,,,,,,,,,,,,,,,,,,,,,,,,,,,,,,,,,,,,,,200.0,125.0,125.0,200.0,127.0,127.0,2.1,2.11,-258,283,0,279,260,-266,170.3438422679901,170.34392595291138,170.34725999832153,170.3605055809021,170.50128769874573,170.50128769874573,170.50128769874573,170.50128769874573,170.50128769874573,170.50128769874573,170.50128769874573,171.72698783874512,1,1.3560693264007568,None,,,,,,,,,,,,,,,,,,99,2,2025-02-24_14h58.21.550,comp,2024.2.4,None,2025-02-24 14h58.35.801301 -0500,
42,42,0,filler_random,None,None,None,None,None,None,None,None,None,None,2,1.7066128253936768,None,,,,,0,0,0,0,0,42,42,144,171.74546027183533,,,,,,,,,,,,,,,,,,,,,,,,,,,,,,,,,,,,,,,,,,,,,,,,,,,,,,,,,,,,,,,,,,,,,,,,,,,,,,,,,182.8040730579045,78.069143511724,163.09633846671534,187.5925155520191,58.441710065389834,188.50376318695055,4.0,4.2,-229,1,0,-280,284,11,171.72878122329712,171.72887635231018,171.73189306259155,171.74546027183533,171.88567900657654,171.88567900657654,171.88567900657654,171.88567900657654,171.88567900657654,171.88567900657654,171.88567900657654,173.46871328353882,2,1.7066128253936768,None,,,,,,,,,,,,,,,,,,99,2,2025-02-24_14h58.21.550,comp,2024.2.4,None,2025-02-24 14h58.35.801301 -0500,
43,43,0,filler_random,None,None,None,None,None,None,None,None,None,None,1,2.145883798599243,None,,,,,0,0,0,0,0,43,43,149,173.48470878601074,,,,,,,,,,,,,,,,,,,,,,,,,,,,,,,,,,,,,,,,,,,,,,,,,,,,,,,,,,,,,,,,,,,,,,,,,,,,,,,,,172.24525923836796,158.38919292199762,191.46434601186806,113.54199462540564,133.02583052924481,169.00232931995941,2.2,2.22,-232,286,0,-276,237,-267,173.47033047676086,173.4704074859619,173.4737150669098,173.48470878601074,173.63882875442505,173.63882875442505,173.63882875442505,173.63882875442505,173.63882875442505,173.63882875442505,173.63882875442505,175.6335277557373,1,2.145883798599243,None,,,,,,,,,,,,,,,,,,99,2,2025-02-24_14h58.21.550,comp,2024.2.4,None,2025-02-24 14h58.35.801301 -0500,
44,44,0,critical,whd,20.0,3.0,lower,57.0,133.0,133.0,57.0,78.0,78.0,2,2.0890302658081055,None,,,,,0,0,0,0,0,44,44,92,175.65111446380615,,,,,,,,,,,,,,,,,,,,,,,,,,,,,,,,,,,,,,,,,,,,,,,,,,,,,,,,,,,,,,,,,,,,,,,,,,,,,,,,,57.0,133.0,133.0,57.0,78.0,78.0,3.0,3.1,-191,257,0,0,164,-284,175.63499927520752,175.63507795333862,175.63800573349,175.65111446380615,175.79967379570007,175.79967379570007,175.79967379570007,175.79967379570007,175.79967379570007,175.79967379570007,175.79967379570007,177.75729846954346,2,2.0890302658081055,None,,,,,,,,,,,,,,,,,,99,2,2025-02-24_14h58.21.550,comp,2024.2.4,None,2025-02-24 14h58.35.801301 -0500,
45,45,0,filler_random,None,None,None,None,None,None,None,None,None,None,2,1.1599957942962646,None,,,,,0,0,0,0,0,45,45,143,177.77282786369324,,,,,,,,,,,,,,,,,,,,,,,,,,,,,,,,,,,,,,,,,,,,,,,,,,,,,,,,,,,,,,,,,,,,,,,,,,,,,,,,,57.261709598036944,116.49703726789693,191.58494144531602,138.01002758314982,139.136872453757,164.06196733937833,2.1,2.11,-223,284,0,290,247,-267,177.75910139083862,177.759179353714,177.76241540908813,177.77282786369324,177.9179139137268,177.9179139137268,177.9179139137268,177.9179139137268,177.9179139137268,177.9179139137268,177.9179139137268,178.93986105918884,2,1.1599957942962646,None,,,,,,,,,,,,,,,,,,99,2,2025-02-24_14h58.21.550,comp,2024.2.4,None,2025-02-24 14h58.35.801301 -0500,
46,46,0,critical,wdh,35.0,1.0,upper,125.0,200.0,127.0,127.0,200.0,125.0,1,1.6322376728057861,None,,,,,0,0,0,0,0,46,46,73,178.95580554008484,,,,,,,,,,,,,,,,,,,,,,,,,,,,,,,,,,,,,,,,,,,,,,,,,,,,,,,,,,,,,,,,,,,,,,,,,,,,,,,,,125.0,200.0,127.0,127.0,200.0,125.0,1.0,1.1,-740,271,-480,257,-258,277,178.94178128242493,178.94193482398987,178.9450650215149,178.95580554008484,179.10502910614014,179.10502910614014,179.10502910614014,179.10502910614014,179.10502910614014,179.10502910614014,179.10502910614014,180.60350847244263,1,1.6322376728057861,None,,,,,,,,,,,,,,,,,,99,2,2025-02-24_14h58.21.550,comp,2024.2.4,None,2025-02-24 14h58.35.801301 -0500,
47,47,0,filler_random,None,None,None,None,None,None,None,None,None,None,2,1.2809698581695557,None,,,,,0,0,0,0,0,47,47,153,180.61955761909485,,,,,,,,,,,,,,,,,,,,,,,,,,,,,,,,,,,,,,,,,,,,,,,,,,,,,,,,,,,,,,,,,,,,,,,,,,,,,,,,,158.9250954708803,125.99284642279751,197.24734319396032,182.91136482796315,165.06682457717062,198.39565545960699,2.1,2.11,-250,262,0,279,287,-287,180.6051366329193,180.60521125793457,180.6083014011383,180.61955761909485,180.77173852920532,180.77173852920532,180.77173852920532,180.77173852920532,180.77173852920532,180.77173852920532,180.77173852920532,181.9052243232727,2,1.2809698581695557,None,,,,,,,,,,,,,,,,,,99,2,2025-02-24_14h58.21.550,comp,2024.2.4,None,2025-02-24 14h58.35.801301 -0500,
48,48,0,filler_random,None,None,None,None,None,None,None,None,None,None,3,1.3953056335449219,None,,,,,0,0,0,0,0,48,48,157,181.92153191566467,,,,,,,,,,,,,,,,,,,,,,,,,,,,,,,,,,,,,,,,,,,,,,,,,,,,,,,,,,,,,,,,,,,,,,,,,,,,,,,,,80.59063875360395,117.61125927706625,135.51372598674186,72.4897000386994,139.4233788712736,178.54542551429245,3.0,3.1,-191,253,0,0,222,-269,181.90706396102905,181.90714621543884,181.9108235836029,181.92153191566467,182.07287979125977,182.07287979125977,182.07287979125977,182.07287979125977,182.07287979125977,182.07287979125977,182.07287979125977,183.3227288722992,3,1.3953056335449219,None,,,,,,,,,,,,,,,,,,99,2,2025-02-24_14h58.21.550,comp,2024.2.4,None,2025-02-24 14h58.35.801301 -0500,
49,49,0,critical,hwd,35.0,2.1,upper,200.0,125.0,125.0,200.0,127.0,127.0,1,1.4418854713439941,None,,,,,0,0,0,0,0,49,49,41,183.33930087089539,,,,,,,,,,,,,,,,,,,,,,,,,,,,,,,,,,,,,,,,,,,,,,,,,,,,,,,,,,,,,,,,,,,,,,,,,,,,,,,,,200.0,125.0,125.0,200.0,127.0,127.0,2.1,2.12,-258,-262,0,-253,260,274,183.32419896125793,183.32427525520325,183.32838487625122,183.33930087089539,183.48969173431396,183.48969173431396,183.48969173431396,183.48969173431396,183.48969173431396,183.48969173431396,183.48969173431396,184.78810811042786,1,1.4418854713439941,None,,,,,,,,,,,,,,,,,,99,2,2025-02-24_14h58.21.550,comp,2024.2.4,None,2025-02-24 14h58.35.801301 -0500,
50,50,0,critical,dwh,20.0,3.0,upper,141.0,141.0,125.0,200.0,200.0,125.0,2,1.1854298114776611,None,,,,,0,0,0,0,0,50,50,69,184.80342411994934,,,,,,,,,,,,,,,,,,,,,,,,,,,,,,,,,,,,,,,,,,,,,,,,,,,,,,,,,,,,,,,,,,,,,,,,,,,,,,,,,141.0,141.0,125.0,200.0,200.0,125.0,3.0,3.1,-266,272,0,-15,258,-283,184.78948307037354,184.789559841156,184.79256296157837,184.80342411994934,184.9564242362976,184.9564242362976,184.9564242362976,184.9564242362976,184.9564242362976,184.9564242362976,184.9564242362976,185.99187016487122,2,1.1854298114776611,None,,,,,,,,,,,,,,,,,,99,2,2025-02-24_14h58.21.550,comp,2024.2.4,None,2025-02-24 14h58.35.801301 -0500,
51,51,0,critical,hdw,20.0,3.0,lower,133.0,57.0,78.0,78.0,57.0,133.0,1,1.994295358657837,None,,,,,0,0,0,0,0,51,51,116,186.0099139213562,,,,,,,,,,,,,,,,,,,,,,,,,,,,,,,,,,,,,,,,,,,,,,,,,,,,,,,,,,,,,,,,,,,,,,,,,,,,,,,,,133.0,57.0,78.0,78.0,57.0,133.0,3.0,3.2,-164,-266,0,-15,202,270,185.99354934692383,185.99363589286804,185.9967601299286,186.0099139213562,186.15405535697937,186.15405535697937,186.15405535697937,186.15405535697937,186.15405535697937,186.15405535697937,186.15405535697937,188.00964093208313,1,1.994295358657837,None,,,,,,,,,,,,,,,,,,99,2,2025-02-24_14h58.21.550,comp,2024.2.4,None,2025-02-24 14h58.35.801301 -0500,
52,52,0,critical,dwh,20.0,1.0,upper,141.0,141.0,125.0,200.0,200.0,125.0,3,1.9845690727233887,None,,,,,0,0,0,0,0,52,52,67,188.02740383148193,,,,,,,,,,,,,,,,,,,,,,,,,,,,,,,,,,,,,,,,,,,,,,,,,,,,,,,,,,,,,,,,,,,,,,,,,,,,,,,,,141.0,141.0,125.0,200.0,200.0,125.0,1.0,1.1,-746,289,-480,266,-222,287,188.01120734214783,188.01129126548767,188.01431679725647,188.02740383148193,188.17338967323303,188.17338967323303,188.17338967323303,188.17338967323303,188.17338967323303,188.17338967323303,188.17338967323303,190.02326607704163,3,1.9845690727233887,None,,,,,,,,,,,,,,,,,,99,2,2025-02-24_14h58.21.550,comp,2024.2.4,None,2025-02-24 14h58.35.801301 -0500,
53,53,0,critical,wdh,20.0,2.1,upper,125.0,200.0,141.0,141.0,200.0,125.0,1,1.6685123443603516,None,,,,,0,0,0,0,0,53,53,11,190.04014468193054,,,,,,,,,,,,,,,,,,,,,,,,,,,,,,,,,,,,,,,,,,,,,,,,,,,,,,,,,,,,,,,,,,,,,,,,,,,,,,,,,125.0,200.0,141.0,141.0,200.0,125.0,2.1,2.12,-266,-283,0,-273,229,275,190.02488827705383,190.02496910095215,190.02821397781372,190.04014468193054,190.19331002235413,190.19331002235413,190.19331002235413,190.19331002235413,190.19331002235413,190.19331002235413,190.19331002235413,191.71660828590393,1,1.6685123443603516,None,,,,,,,,,,,,,,,,,,99,2,2025-02-24_14h58.21.550,comp,2024.2.4,None,2025-02-24 14h58.35.801301 -0500,
54,54,0,critical,hwd,35.0,2.1,lower,133.0,57.0,57.0,133.0,70.0,70.0,1,4.163963317871094,None,,,,,0,0,0,0,0,54,54,40,191.7368607521057,,,,,,,,,,,,,,,,,,,,,,,,,,,,,,,,,,,,,,,,,,,,,,,,,,,,,,,,,,,,,,,,,,,,,,,,,,,,,,,,,133.0,57.0,57.0,133.0,70.0,70.0,2.1,2.12,-191,-253,0,-269,198,258,191.71807384490967,191.71817064285278,191.72113251686096,191.7368607521057,191.8756968975067,191.8756968975067,191.8756968975067,191.8756968975067,191.8756968975067,191.8756968975067,191.8756968975067,195.90962529182434,1,4.163963317871094,None,,,,,,,,,,,,,,,,,,99,2,2025-02-24_14h58.21.550,comp,2024.2.4,None,2025-02-24 14h58.35.801301 -0500,
55,55,0,critical,whd,35.0,2.1,lower,57.0,133.0,133.0,57.0,70.0,70.0,1,1.966130256652832,None,,,,,0,0,0,0,0,55,55,36,195.92595767974854,,,,,,,,,,,,,,,,,,,,,,,,,,,,,,,,,,,,,,,,,,,,,,,,,,,,,,,,,,,,,,,,,,,,,,,,,,,,,,,,,57.0,133.0,133.0,57.0,70.0,70.0,2.1,2.11,-191,274,0,284,160,-268,195.91134667396545,195.91151356697083,195.91500306129456,195.92595767974854,196.07627081871033,196.07627081871033,196.07627081871033,196.07627081871033,196.07627081871033,196.07627081871033,196.07627081871033,197.89531755447388,1,1.966130256652832,None,,,,,,,,,,,,,,,,,,99,2,2025-02-24_14h58.21.550,comp,2024.2.4,None,2025-02-24 14h58.35.801301 -0500,
56,56,0,critical,dwh,35.0,1.0,upper,127.0,127.0,125.0,200.0,200.0,125.0,2,2.1515872478485107,None,,,,,0,0,0,0,0,56,56,61,197.91663646697998,,,,,,,,,,,,,,,,,,,,,,,,,,,,,,,,,,,,,,,,,,,,,,,,,,,,,,,,,,,,,,,,,,,,,,,,,,,,,,,,,127.0,127.0,125.0,200.0,200.0,125.0,1.0,1.3,220,-268,480,-285,738,-250,197.89718341827393,197.89728689193726,197.90097641944885,197.91663646697998,198.0617961883545,198.0617961883545,198.0617961883545,198.0617961883545,198.0617961883545,198.0617961883545,198.0617961883545,200.0812463760376,2,2.1515872478485107,None,,,,,,,,,,,,,,,,,,99,2,2025-02-24_14h58.21.550,comp,2024.2.4,None,2025-02-24 14h58.35.801301 -0500,
57,57,0,critical,hdw,20.0,2.1,upper,200.0,125.0,141.0,141.0,125.0,200.0,1,2.3792736530303955,None,,,,,0,0,0,0,0,57,57,47,200.09731888771057,,,,,,,,,,,,,,,,,,,,,,,,,,,,,,,,,,,,,,,,,,,,,,,,,,,,,,,,,,,,,,,,,,,,,,,,,,,,,,,,,200.0,125.0,141.0,141.0,125.0,200.0,2.1,2.11,-229,272,0,264,266,-288,200.08311462402344,200.08319568634033,200.0862226486206,200.09731888771057,200.24726581573486,200.24726581573486,200.24726581573486,200.24726581573486,200.24726581573486,200.24726581573486,200.24726581573486,202.4825575351715,1,2.3792736530303955,None,,,,,,,,,,,,,,,,,,99,2,2025-02-24_14h58.21.550,comp,2024.2.4,None,2025-02-24 14h58.35.801301 -0500,
58,58,0,critical,whd,35.0,3.0,upper,125.0,200.0,200.0,125.0,127.0,127.0,2,1.9374494552612305,None,,,,,0,0,0,0,0,58,58,87,202.5003206729889,,,,,,,,,,,,,,,,,,,,,,,,,,,,,,,,,,,,,,,,,,,,,,,,,,,,,,,,,,,,,,,,,,,,,,,,,,,,,,,,,125.0,200.0,200.0,125.0,127.0,127.0,3.0,3.1,-258,266,0,-3,222,-258,202.48417019844055,202.4842505455017,202.48721551895142,202.5003206729889,202.64514088630676,202.64514088630676,202.64514088630676,202.64514088630676,202.64514088630676,202.64514088630676,202.64514088630676,204.44895029067993,2,1.9374494552612305,None,,,,,,,,,,,,,,,,,,99,2,2025-02-24_14h58.21.550,comp,2024.2.4,None,2025-02-24 14h58.35.801301 -0500,
59,59,0,critical,whd,35.0,1.0,upper,125.0,200.0,200.0,125.0,127.0,127.0,2,1.4115667343139648,None,,,,,0,0,0,0,0,59,59,85,204.465252161026,,,,,,,,,,,,,,,,,,,,,,,,,,,,,,,,,,,,,,,,,,,,,,,,,,,,,,,,,,,,,,,,,,,,,,,,,,,,,,,,,125.0,200.0,200.0,125.0,127.0,127.0,1.0,1.2,-258,2,0,13,222,1,204.4505581855774,204.45064115524292,204.45449781417847,204.465252161026,204.6152787208557,204.6152787208557,204.6152787208557,204.6152787208557,204.6152787208557,204.6152787208557,204.6152787208557,205.88084745407104,2,1.4115667343139648,None,,,,,,,,,,,,,,,,,,99,2,2025-02-24_14h58.21.550,comp,2024.2.4,None,2025-02-24 14h58.35.801301 -0500,
60,60,0,critical,hdw,20.0,3.0,upper,200.0,125.0,141.0,141.0,125.0,200.0,1,2.585789442062378,None,,,,,0,0,0,0,0,60,60,117,205.8983507156372,,,,,,,,,,,,,,,,,,,,,,,,,,,,,,,,,,,,,,,,,,,,,,,,,,,,,,,,,,,,,,,,,,,,,,,,,,,,,,,,,200.0,125.0,141.0,141.0,125.0,200.0,3.0,3.1,-229,281,0,-6,266,-252,205.8825340270996,205.88267278671265,205.88673782348633,205.8983507156372,206.0419158935547,206.0419158935547,206.0419158935547,206.0419158935547,206.0419158935547,206.0419158935547,206.0419158935547,208.5008716583252,1,2.585789442062378,None,,,,,,,,,,,,,,,,,,99,2,2025-02-24_14h58.21.550,comp,2024.2.4,None,2025-02-24 14h58.35.801301 -0500,
61,61,0,critical,dwh,20.0,2.1,upper,141.0,141.0,125.0,200.0,200.0,125.0,2,1.6314795017242432,None,,,,,0,0,0,0,0,61,61,7,208.51653933525085,,,,,,,,,,,,,,,,,,,,,,,,,,,,,,,,,,,,,,,,,,,,,,,,,,,,,,,,,,,,,,,,,,,,,,,,,,,,,,,,,141.0,141.0,125.0,200.0,200.0,125.0,2.1,2.11,-266,286,0,263,258,-265,208.50252962112427,208.50261235237122,208.50615429878235,208.51653933525085,208.66251254081726,208.66251254081726,208.66251254081726,208.66251254081726,208.66251254081726,208.66251254081726,208.66251254081726,210.16414499282837,2,1.6314795017242432,None,,,,,,,,,,,,,,,,,,99,2,2025-02-24_14h58.21.550,comp,2024.2.4,None,2025-02-24 14h58.35.801301 -0500,
62,62,0,critical,hwd,35.0,3.0,upper,200.0,125.0,125.0,200.0,127.0,127.0,2,0.9025816917419434,None,,,,,0,0,0,0,0,62,62,99,210.18149662017822,,,,,,,,,,,,,,,,,,,,,,,,,,,,,,,,,,,,,,,,,,,,,,,,,,,,,,,,,,,,,,,,,,,,,,,,,,,,,,,,,200.0,125.0,125.0,200.0,127.0,127.0,3.0,3.2,-258,-252,0,2,260,285,210.16564798355103,210.16572546958923,210.16882872581482,210.18149662017822,210.3303017616272,210.3303017616272,210.3303017616272,210.3303017616272,210.3303017616272,210.3303017616272,210.3303017616272,211.0973596572876,2,0.9025816917419434,None,,,,,,,,,,,,,,,,,,99,2,2025-02-24_14h58.21.550,comp,2024.2.4,None,2025-02-24 14h58.35.801301 -0500,
63,63,0,filler_square,None,None,None,None,None,None,None,None,None,None,3,1.3952891826629639,None,,,,,0,0,0,0,0,63,63,189,211.1135311126709,,,,,,,,,,,,,,,,,,,,,,,,,,,,,,,,,,,,,,,,,,,,,,,,,,,,,,,,,,,,,,,,,,,,,,,,,,,,,,,,,82.5563771918986,64.82482766634905,99.00081120311586,97.16081344861499,175.54021829771614,175.54021829771614,2.2,2.21,-177,-282,0,286,232,275,211.09908890724182,211.09916377067566,211.10230445861816,211.1135311126709,211.27214932441711,211.27214932441711,211.27214932441711,211.27214932441711,211.27214932441711,211.27214932441711,211.27214932441711,212.51133966445923,3,1.3952891826629639,None,,,,,,,,,,,,,,,,,,99,2,2025-02-24_14h58.21.550,comp,2024.2.4,None,2025-02-24 14h58.35.801301 -0500,
64,64,0,critical,hwd,20.0,2.1,upper,200.0,125.0,125.0,200.0,141.0,141.0,2,1.7961933612823486,None,,,,,0,0,0,0,0,64,64,19,212.5285677909851,,,,,,,,,,,,,,,,,,,,,,,,,,,,,,,,,,,,,,,,,,,,,,,,,,,,,,,,,,,,,,,,,,,,,,,,,,,,,,,,,200.0,125.0,125.0,200.0,141.0,141.0,2.1,2.11,-258,262,0,285,266,-275,212.51291513442993,212.51299142837524,212.51623129844666,212.5285677909851,212.66407346725464,212.66407346725464,212.66407346725464,212.66407346725464,212.66407346725464,212.66407346725464,212.66407346725464,214.3345284461975,2,1.7961933612823486,None,,,,,,,,,,,,,,,,,,99,2,2025-02-24_14h58.21.550,comp,2024.2.4,None,2025-02-24 14h58.35.801301 -0500,
65,65,0,filler_random,None,None,None,None,None,None,None,None,None,None,3,2.2289202213287354,None,,,,,0,0,0,0,0,65,65,139,214.35119199752808,,,,,,,,,,,,,,,,,,,,,,,,,,,,,,,,,,,,,,,,,,,,,,,,,,,,,,,,,,,,,,,,,,,,,,,,,,,,,,,,,75.17571985630465,129.58534410675034,124.00065522615063,67.51562134323929,111.56270241893588,184.78986928301356,4.0,4.2,-195,-14,0,-258,222,-17,214.3365261554718,214.3366096019745,214.34045147895813,214.35119199752808,214.49037766456604,214.49037766456604,214.49037766456604,214.49037766456604,214.49037766456604,214.49037766456604,214.49037766456604,216.58387660980225,3,2.2289202213287354,None,,,,,,,,,,,,,,,,,,99,2,2025-02-24_14h58.21.550,comp,2024.2.4,None,2025-02-24 14h58.35.801301 -0500,
66,66,0,filler_random,None,None,None,None,None,None,None,None,None,None,2,1.309622049331665,None,,,,,0,0,0,0,0,66,66,141,216.60080695152283,,,,,,,,,,,,,,,,,,,,,,,,,,,,,,,,,,,,,,,,,,,,,,,,,,,,,,,,,,,,,,,,,,,,,,,,,,,,,,,,,81.1098622073724,133.1096115810888,161.98121239058173,191.89024100199413,82.08497301256016,198.808541835782,2.2,2.21,-258,-254,0,280,291,277,216.58594036102295,216.5860676765442,216.59002041816711,216.60080695152283,216.75152730941772,216.75152730941772,216.75152730941772,216.75152730941772,216.75152730941772,216.75152730941772,216.75152730941772,217.91570138931274,2,1.309622049331665,None,,,,,,,,,,,,,,,,,,99,2,2025-02-24_14h58.21.550,comp,2024.2.4,None,2025-02-24 14h58.35.801301 -0500,
67,67,0,filler_square,None,None,None,None,None,None,None,None,None,None,3,1.3905138969421387,None,,,,,0,0,0,0,0,67,67,208,217.93355512619019,,,,,,,,,,,,,,,,,,,,,,,,,,,,,,,,,,,,,,,,,,,,,,,,,,,,,,,,,,,,,,,,,,,,,,,,,,,,,,,,,75.40521332698486,95.0955198911308,112.126210363739,61.26062327211801,133.6838437097676,133.6838437097676,1.0,1.2,-174,-19,0,6,193,11,217.917462348938,217.91754579544067,217.92074275016785,217.93355512619019,218.08375883102417,218.08375883102417,218.08375883102417,218.08375883102417,218.08375883102417,218.08375883102417,218.08375883102417,219.34098744392395,3,1.3905138969421387,None,,,,,,,,,,,,,,,,,,99,2,2025-02-24_14h58.21.550,comp,2024.2.4,None,2025-02-24 14h58.35.801301 -0500,
68,68,0,filler_random,None,None,None,None,None,None,None,None,None,None,1,3.215769052505493,None,,,,,0,0,0,0,0,68,68,156,219.3563482761383,,,,,,,,,,,,,,,,,,,,,,,,,,,,,,,,,,,,,,,,,,,,,,,,,,,,,,,,,,,,,,,,,,,,,,,,,,,,,,,,,165.22704324848877,167.6366746795503,141.1125191009737,137.28410504971419,189.41935363916522,136.36474178167333,1.0,1.2,-248,0,0,19,233,-20,219.3426251411438,219.34270477294922,219.34563946723938,219.3563482761383,219.49996709823608,219.49996709823608,219.49996709823608,219.49996709823608,219.49996709823608,219.49996709823608,219.49996709823608,222.58507204055786,1,3.215769052505493,None,,,,,,,,,,,,,,,,,,99,2,2025-02-24_14h58.21.550,comp,2024.2.4,None,2025-02-24 14h58.35.801301 -0500,
69,69,0,critical,dhw,20.0,4.0,lower,78.0,78.0,133.0,57.0,57.0,133.0,3,2.227879762649536,None,,,,,0,0,0,0,0,69,69,58,222.60088562965393,,,,,,,,,,,,,,,,,,,,,,,,,,,,,,,,,,,,,,,,,,,,,,,,,,,,,,,,,,,,,,,,,,,,,,,,,,,,,,,,,78.0,78.0,133.0,57.0,57.0,133.0,4.0,4.1,-164,-273,0,1,191,-282,222.58656334877014,222.58665943145752,222.58983445167542,222.60088562965393,222.75131964683533,222.75131964683533,222.75131964683533,222.75131964683533,222.75131964683533,222.75131964683533,222.75131964683533,224.83533239364624,3,2.227879762649536,None,,,,,,,,,,,,,,,,,,99,2,2025-02-24_14h58.21.550,comp,2024.2.4,None,2025-02-24 14h58.35.801301 -0500,
70,70,0,critical,hwd,20.0,1.0,upper,200.0,125.0,125.0,200.0,141.0,141.0,1,1.3847310543060303,None,,,,,0,0,0,0,0,70,70,103,224.85132217407227,,,,,,,,,,,,,,,,,,,,,,,,,,,,,,,,,,,,,,,,,,,,,,,,,,,,,,,,,,,,,,,,,,,,,,,,,,,,,,,,,200.0,125.0,125.0,200.0,141.0,141.0,1.0,1.2,-258,-7,0,-20,266,17,224.8369119167328,224.83699417114258,224.84046530723572,224.85132217407227,225.00155925750732,225.00155925750732,225.00155925750732,225.00155925750732,225.00155925750732,225.00155925750732,225.00155925750732,226.2525179386139,1,1.3847310543060303,None,,,,,,,,,,,,,,,,,,99,2,2025-02-24_14h58.21.550,comp,2024.2.4,None,2025-02-24 14h58.35.801301 -0500,
71,71,0,filler_square,None,None,None,None,None,None,None,None,None,None,1,1.4081568717956543,None,,,,,0,0,0,0,0,71,71,177,226.26859402656555,,,,,,,,,,,,,,,,,,,,,,,,,,,,,,,,,,,,,,,,,,,,,,,,,,,,,,,,,,,,,,,,,,,,,,,,,,,,,,,,,139.3411398292947,139.3411398292947,123.55331813138206,134.75084688449232,67.78415372026271,87.9583017512038,1.0,1.1,-713,269,-480,280,-273,265,226.25460290908813,226.2546808719635,226.2583122253418,226.26859402656555,226.41993045806885,226.41993045806885,226.41993045806885,226.41993045806885,226.41993045806885,226.41993045806885,226.41993045806885,227.6853678226471,1,1.4081568717956543,None,,,,,,,,,,,,,,,,,,99,2,2025-02-24_14h58.21.550,comp,2024.2.4,None,2025-02-24 14h58.35.801301 -0500,
72,72,0,critical,dwh,35.0,1.0,lower,70.0,70.0,57.0,133.0,133.0,57.0,3,2.0542776584625244,None,,,,,0,0,0,0,0,72,72,60,227.7019100189209,,,,,,,,,,,,,,,,,,,,,,,,,,,,,,,,,,,,,,,,,,,,,,,,,,,,,,,,,,,,,,,,,,,,,,,,,,,,,,,,,70.0,70.0,57.0,133.0,133.0,57.0,1.0,1.1,-678,251,-480,286,-289,289,227.68706798553467,227.6871440410614,227.69038891792297,227.7019100189209,227.85847282409668,227.85847282409668,227.85847282409668,227.85847282409668,227.85847282409668,227.85847282409668,227.85847282409668,229.77164387702942,3,2.0542776584625244,None,,,,,,,,,,,,,,,,,,99,2,2025-02-24_14h58.21.550,comp,2024.2.4,None,2025-02-24 14h58.35.801301 -0500,
73,73,0,catch,None,None,None,None,None,None,None,None,None,None,3,1.2073628902435303,None,,,,,0,0,0,0,0,73,73,126,229.78886342048645,,,,,,,,,,,,,,,,,,,,,,,,,,,,,,,,,,,,,,,,,,,,,,,,,,,,,,,,,,,,,,,,,,,,,,,,,,,,,,,,,110,80,88,102,187,138,4.0,4.2,-187,14,0,-277,216,2,229.7738847732544,229.77396774291992,229.77759432792664,229.78886342048645,229.94060254096985,229.94060254096985,229.94060254096985,229.94060254096985,229.94060254096985,229.94060254096985,229.94060254096985,231.0100498199463,3,1.2073628902435303,None,,,,,,,,,,,,,,,,,,99,2,2025-02-24_14h58.21.550,comp,2024.2.4,None,2025-02-24 14h58.35.801301 -0500,
74,74,0,critical,hdw,20.0,4.0,upper,200.0,125.0,141.0,141.0,125.0,200.0,3,1.722978115081787,None,,,,,0,0,0,0,0,74,74,119,231.0257329940796,,,,,,,,,,,,,,,,,,,,,,,,,,,,,,,,,,,,,,,,,,,,,,,,,,,,,,,,,,,,,,,,,,,,,,,,,,,,,,,,,200.0,125.0,141.0,141.0,125.0,200.0,4.0,4.2,-229,-14,0,-278,266,-7,231.0116035938263,231.01168179512024,231.01460313796997,231.0257329940796,231.16773891448975,231.16773891448975,231.16773891448975,231.16773891448975,231.16773891448975,231.16773891448975,231.16773891448975,232.7543227672577,3,1.722978115081787,None,,,,,,,,,,,,,,,,,,99,2,2025-02-24_14h58.21.550,comp,2024.2.4,None,2025-02-24 14h58.35.801301 -0500,
75,75,0,filler_random,None,None,None,None,None,None,None,None,None,None,3,2.3704183101654053,None,,,,,0,0,0,0,0,75,75,162,232.76981139183044,,,,,,,,,,,,,,,,,,,,,,,,,,,,,,,,,,,,,,,,,,,,,,,,,,,,,,,,,,,,,,,,,,,,,,,,,,,,,,,,,112.44433877089037,90.11171408608857,127.32686993491441,89.65329750110908,120.95722380253645,84.43245326528643,2.2,2.21,-186,-265,0,287,183,281,232.75627422332764,232.75635862350464,232.7599220275879,232.76981139183044,232.9231276512146,232.9231276512146,232.9231276512146,232.9231276512146,232.9231276512146,232.9231276512146,232.9231276512146,235.15750288963318,3,2.3704183101654053,None,,,,,,,,,,,,,,,,,,99,2,2025-02-24_14h58.21.550,comp,2024.2.4,None,2025-02-24 14h58.35.801301 -0500,
76,76,0,filler_random,None,None,None,None,None,None,None,None,None,None,2,1.135225534439087,None,,,,,0,0,0,0,0,76,76,164,235.17340779304504,,,,,,,,,,,,,,,,,,,,,,,,,,,,,,,,,,,,,,,,,,,,,,,,,,,,,,,,,,,,,,,,,,,,,,,,,,,,,,,,,187.9571635943602,77.1350098810359,153.22311221869307,182.73023885515687,75.51414231455527,122.44527381080299,2.1,2.12,-226,-266,0,-256,249,283,235.1594681739807,235.15955233573914,235.16306495666504,235.17340779304504,235.32952046394348,235.32952046394348,235.32952046394348,235.32952046394348,235.32952046394348,235.32952046394348,235.32952046394348,236.3173222541809,2,1.135225534439087,None,,,,,,,,,,,,,,,,,,99,2,2025-02-24_14h58.21.550,comp,2024.2.4,None,2025-02-24 14h58.35.801301 -0500,
77,77,0,critical,hdw,20.0,1.0,lower,133.0,57.0,78.0,78.0,57.0,133.0,1,1.5337152481079102,None,,,,,0,0,0,0,0,77,77,114,236.33511352539062,,,,,,,,,,,,,,,,,,,,,,,,,,,,,,,,,,,,,,,,,,,,,,,,,,,,,,,,,,,,,,,,,,,,,,,,,,,,,,,,,133.0,57.0,78.0,78.0,57.0,133.0,1.0,1.2,-164,-13,0,16,202,18,236.31880283355713,236.3188817501068,236.32182574272156,236.33511352539062,236.47465205192566,236.47465205192566,236.47465205192566,236.47465205192566,236.47465205192566,236.47465205192566,236.47465205192566,237.87384724617004,1,1.5337152481079102,None,,,,,,,,,,,,,,,,,,99,2,2025-02-24_14h58.21.550,comp,2024.2.4,None,2025-02-24 14h58.35.801301 -0500,
78,78,0,critical,dwh,35.0,2.1,upper,127.0,127.0,125.0,200.0,200.0,125.0,2,1.7071635723114014,None,,,,,0,0,0,0,0,78,78,5,237.88970804214478,,,,,,,,,,,,,,,,,,,,,,,,,,,,,,,,,,,,,,,,,,,,,,,,,,,,,,,,,,,,,,,,,,,,,,,,,,,,,,,,,127.0,127.0,125.0,200.0,200.0,125.0,2.1,2.11,-260,280,0,254,258,-257,237.87549567222595,237.87559843063354,237.8789894580841,237.88970804214478,238.03894424438477,238.03894424438477,238.03894424438477,238.03894424438477,238.03894424438477,238.03894424438477,238.03894424438477,239.6067852973938,2,1.7071635723114014,None,,,,,,,,,,,,,,,,,,99,2,2025-02-24_14h58.21.550,comp,2024.2.4,None,2025-02-24 14h58.35.801301 -0500,
79,79,0,critical,hdw,35.0,4.0,lower,133.0,57.0,70.0,70.0,57.0,133.0,3,1.5895259380340576,None,,,,,0,0,0,0,0,79,79,112,239.6225414276123,,,,,,,,,,,,,,,,,,,,,,,,,,,,,,,,,,,,,,,,,,,,,,,,,,,,,,,,,,,,,,,,,,,,,,,,,,,,,,,,,133.0,57.0,70.0,70.0,57.0,133.0,4.0,4.2,-160,18,0,-285,198,-15,239.60833287239075,239.60841488838196,239.61185598373413,239.6225414276123,239.77860927581787,239.77860927581787,239.77860927581787,239.77860927581787,239.77860927581787,239.77860927581787,239.77860927581787,241.2222101688385,3,1.5895259380340576,None,,,,,,,,,,,,,,,,,,99,2,2025-02-24_14h58.21.550,comp,2024.2.4,None,2025-02-24 14h58.35.801301 -0500,
80,80,0,filler_random,None,None,None,None,None,None,None,None,None,None,2,0.9972822666168213,None,,,,,0,0,0,0,0,80,80,136,241.23931336402893,,,,,,,,,,,,,,,,,,,,,,,,,,,,,,,,,,,,,,,,,,,,,,,,,,,,,,,,,,,,,,,,,,,,,,,,,,,,,,,,,188.41786056441595,104.33208723036903,128.921447673278,193.51551205974644,173.3972614898484,118.20681097159033,3.0,3.1,-245,256,0,9,252,-258,241.2239761352539,241.22408747673035,241.22734355926514,241.23931336402893,241.39380502700806,241.39380502700806,241.39380502700806,241.39380502700806,241.39380502700806,241.39380502700806,241.39380502700806,242.24616289138794,2,0.9972822666168213,None,,,,,,,,,,,,,,,,,,99,2,2025-02-24_14h58.21.550,comp,2024.2.4,None,2025-02-24 14h58.35.801301 -0500,
81,81,0,filler_square,None,None,None,None,None,None,None,None,None,None,2,1.6278691291809082,None,,,,,0,0,0,0,0,81,81,209,242.2646086215973,,,,,,,,,,,,,,,,,,,,,,,,,,,,,,,,,,,,,,,,,,,,,,,,,,,,,,,,,,,,,,,,,,,,,,,,,,,,,,,,,100.065610350398,100.065610350398,91.9174592538383,87.36653752171819,69.50394255541582,71.10577554384277,2.2,2.22,-190,287,0,-281,175,-272,242.24823713302612,242.24831581115723,242.2514979839325,242.2646086215973,242.40763211250305,242.40763211250305,242.40763211250305,242.40763211250305,242.40763211250305,242.40763211250305,242.40763211250305,243.90742444992065,2,1.6278691291809082,None,,,,,,,,,,,,,,,,,,99,2,2025-02-24_14h58.21.550,comp,2024.2.4,None,2025-02-24 14h58.35.801301 -0500,
82,82,0,filler_square,None,None,None,None,None,None,None,None,None,None,1,1.8288826942443848,None,,,,,0,0,0,0,0,82,82,193,243.92732286453247,,,,,,,,,,,,,,,,,,,,,,,,,,,,,,,,,,,,,,,,,,,,,,,,,,,,,,,,,,,,,,,,,,,,,,,,,,,,,,,,,59.04360717588728,59.53417461654578,57.23491215997593,60.557839004476946,60.62776620051462,60.62776620051462,2.2,2.21,-156,-264,0,263,157,273,243.9091670513153,243.90924191474915,243.9124448299408,243.92732286453247,244.0743227005005,244.0743227005005,244.0743227005005,244.0743227005005,244.0743227005005,244.0743227005005,244.0743227005005,245.761146068573,1,1.8288826942443848,None,,,,,,,,,,,,,,,,,,99,2,2025-02-24_14h58.21.550,comp,2024.2.4,None,2025-02-24 14h58.35.801301 -0500,
83,83,0,critical,dhw,20.0,2.1,upper,141.0,141.0,200.0,125.0,125.0,200.0,2,1.800163984298706,None,,,,,0,0,0,0,0,83,83,27,245.77986884117126,,,,,,,,,,,,,,,,,,,,,,,,,,,,,,,,,,,,,,,,,,,,,,,,,,,,,,,,,,,,,,,,,,,,,,,,,,,,,,,,,141.0,141.0,200.0,125.0,125.0,200.0,2.1,2.11,-229,252,0,263,258,-265,245.7628138065338,245.76289296150208,245.76620149612427,245.77986884117126,245.92477464675903,245.92477464675903,245.92477464675903,245.92477464675903,245.92477464675903,245.92477464675903,245.92477464675903,247.59482979774475,2,1.800163984298706,None,,,,,,,,,,,,,,,,,,99,2,2025-02-24_14h58.21.550,comp,2024.2.4,None,2025-02-24 14h58.35.801301 -0500,
84,84,0,filler_random,None,None,None,None,None,None,None,None,None,None,1,1.0942273139953613,None,,,,,0,0,0,0,0,84,84,150,247.6140434741974,,,,,,,,,,,,,,,,,,,,,,,,,,,,,,,,,,,,,,,,,,,,,,,,,,,,,,,,,,,,,,,,,,,,,,,,,,,,,,,,,149.11321312436434,127.7096771685051,165.7994922320166,76.19143335928393,170.15698259390393,99.11840981488291,2.2,2.22,-198,281,0,-258,184,-280,247.59663367271423,247.5967116355896,247.59976887702942,247.6140434741974,247.7606177330017,247.7606177330017,247.7606177330017,247.7606177330017,247.7606177330017,247.7606177330017,247.7606177330017,248.71030974388123,1,1.0942273139953613,None,,,,,,,,,,,,,,,,,,99,2,2025-02-24_14h58.21.550,comp,2024.2.4,None,2025-02-24 14h58.35.801301 -0500,
85,85,0,critical,whd,20.0,2.1,upper,125.0,200.0,200.0,125.0,141.0,141.0,1,1.3334989547729492,None,,,,,0,0,0,0,0,85,85,15,248.727041721344,,,,,,,,,,,,,,,,,,,,,,,,,,,,,,,,,,,,,,,,,,,,,,,,,,,,,,,,,,,,,,,,,,,,,,,,,,,,,,,,,125.0,200.0,200.0,125.0,141.0,141.0,2.1,2.11,-258,289,0,262,229,-284,248.7120168209076,248.7121479511261,248.71545958518982,248.727041721344,248.8760530948639,248.8760530948639,248.8760530948639,248.8760530948639,248.8760530948639,248.8760530948639,248.8760530948639,250.07696771621704,1,1.3334989547729492,None,,,,,,,,,,,,,,,,,,99,2,2025-02-24_14h58.21.550,comp,2024.2.4,None,2025-02-24 14h58.35.801301 -0500,
86,86,0,critical,dwh,35.0,4.0,lower,70.0,70.0,57.0,133.0,133.0,57.0,2,1.7355833053588867,None,,,,,0,0,0,0,0,86,86,64,250.09265279769897,,,,,,,,,,,,,,,,,,,,,,,,,,,,,,,,,,,,,,,,,,,,,,,,,,,,,,,,,,,,,,,,,,,,,,,,,,,,,,,,,70.0,70.0,57.0,133.0,133.0,57.0,4.0,4.2,-198,14,0,-263,191,-4,250.0785253047943,250.07860040664673,250.08228754997253,250.09265279769897,250.24258852005005,250.24258852005005,250.24258852005005,250.24258852005005,250.24258852005005,250.24258852005005,250.24258852005005,251.83051347732544,2,1.7355833053588867,None,,,,,,,,,,,,,,,,,,99,2,2025-02-24_14h58.21.550,comp,2024.2.4,None,2025-02-24 14h58.35.801301 -0500,
87,87,0,filler_random,None,None,None,None,None,None,None,None,None,None,1,0.7946891784667969,None,,,,,0,0,0,0,0,87,87,145,251.84942770004272,,,,,,,,,,,,,,,,,,,,,,,,,,,,,,,,,,,,,,,,,,,,,,,,,,,,,,,,,,,,,,,,,,,,,,,,,,,,,,,,,197.3325253791811,190.73963656325256,86.3478701463466,159.17036079171564,65.03923386587786,125.18192246631044,2.1,2.11,-271,281,0,287,238,-285,251.83275413513184,251.83284044265747,251.8358178138733,251.84942770004272,252.0011305809021,252.0011305809021,252.0011305809021,252.0011305809021,252.0011305809021,252.0011305809021,252.0011305809021,252.66163539886475,1,0.7946891784667969,None,,,,,,,,,,,,,,,,,,99,2,2025-02-24_14h58.21.550,comp,2024.2.4,None,2025-02-24 14h58.35.801301 -0500,
88,88,0,critical,wdh,20.0,4.0,upper,125.0,200.0,141.0,141.0,200.0,125.0,1,0.9432923793792725,None,,,,,0,0,0,0,0,88,88,83,252.67722034454346,,,,,,,,,,,,,,,,,,,,,,,,,,,,,,,,,,,,,,,,,,,,,,,,,,,,,,,,,,,,,,,,,,,,,,,,,,,,,,,,,125.0,200.0,141.0,141.0,200.0,125.0,4.0,4.1,-266,-267,0,0,229,-280,252.66332149505615,252.66340136528015,252.66687989234924,252.67722034454346,252.82508611679077,252.82508611679077,252.82508611679077,252.82508611679077,252.82508611679077,252.82508611679077,252.82508611679077,253.62361907958984,1,0.9432923793792725,None,,,,,,,,,,,,,,,,,,99,2,2025-02-24_14h58.21.550,comp,2024.2.4,None,2025-02-24 14h58.35.801301 -0500,
89,89,0,critical,hdw,35.0,3.0,lower,133.0,57.0,70.0,70.0,57.0,133.0,1,1.7085697650909424,None,,,,,0,0,0,0,0,89,89,110,253.6398627758026,,,,,,,,,,,,,,,,,,,,,,,,,,,,,,,,,,,,,,,,,,,,,,,,,,,,,,,,,,,,,,,,,,,,,,,,,,,,,,,,,133.0,57.0,70.0,70.0,57.0,133.0,3.0,3.2,-160,-253,0,-10,198,253,253.62520599365234,253.62528800964355,253.62826013565063,253.6398627758026,253.79598999023438,253.79598999023438,253.79598999023438,253.79598999023438,253.79598999023438,253.79598999023438,253.79598999023438,255.36171340942383,1,1.7085697650909424,None,,,,,,,,,,,,,,,,,,99,2,2025-02-24_14h58.21.550,comp,2024.2.4,None,2025-02-24 14h58.35.801301 -0500,
90,90,0,critical,whd,20.0,2.1,upper,125.0,200.0,200.0,125.0,141.0,141.0,2,1.386404037475586,None,,,,,0,0,0,0,0,90,90,39,255.37778639793396,,,,,,,,,,,,,,,,,,,,,,,,,,,,,,,,,,,,,,,,,,,,,,,,,,,,,,,,,,,,,,,,,,,,,,,,,,,,,,,,,125.0,200.0,200.0,125.0,141.0,141.0,2.1,2.11,-258,277,0,279,229,-268,255.36334681510925,255.36342644691467,255.3675377368927,255.37778639793396,255.52874183654785,255.52874183654785,255.52874183654785,255.52874183654785,255.52874183654785,255.52874183654785,255.52874183654785,256.7762084007263,2,1.386404037475586,None,,,,,,,,,,,,,,,,,,99,2,2025-02-24_14h58.21.550,comp,2024.2.4,None,2025-02-24 14h58.35.801301 -0500,
91,91,0,critical,dhw,35.0,2.1,upper,127.0,127.0,200.0,125.0,125.0,200.0,3,1.4286549091339111,None,,,,,0,0,0,0,0,91,91,1,256.7919571399689,,,,,,,,,,,,,,,,,,,,,,,,,,,,,,,,,,,,,,,,,,,,,,,,,,,,,,,,,,,,,,,,,,,,,,,,,,,,,,,,,127.0,127.0,200.0,125.0,125.0,200.0,2.1,2.12,-222,-274,0,-277,258,281,256.77780985832214,256.7778842449188,256.78123474121094,256.7919571399689,256.9442286491394,256.9442286491394,256.9442286491394,256.9442286491394,256.9442286491394,256.9442286491394,256.9442286491394,258.2323491573334,3,1.4286549091339111,None,,,,,,,,,,,,,,,,,,99,2,2025-02-24_14h58.21.550,comp,2024.2.4,None,2025-02-24 14h58.35.801301 -0500,
92,92,0,critical,whd,35.0,2.1,lower,57.0,133.0,133.0,57.0,70.0,70.0,1,1.9275498390197754,None,,,,,0,0,0,0,0,92,92,12,258.25264143943787,,,,,,,,,,,,,,,,,,,,,,,,,,,,,,,,,,,,,,,,,,,,,,,,,,,,,,,,,,,,,,,,,,,,,,,,,,,,,,,,,57.0,133.0,133.0,57.0,70.0,70.0,2.1,2.12,-191,-251,0,-252,160,279,258.23400807380676,258.2341105937958,258.23753237724304,258.25264143943787,258.39558935165405,258.39558935165405,258.39558935165405,258.39558935165405,258.39558935165405,258.39558935165405,258.39558935165405,260.1947112083435,1,1.9275498390197754,None,,,,,,,,,,,,,,,,,,99,2,2025-02-24_14h58.21.550,comp,2024.2.4,None,2025-02-24 14h58.35.801301 -0500,
93,93,0,critical,dhw,20.0,2.1,lower,78.0,78.0,133.0,57.0,57.0,133.0,2,1.8344295024871826,None,,,,,0,0,0,0,0,93,93,26,260.20970273017883,,,,,,,,,,,,,,,,,,,,,,,,,,,,,,,,,,,,,,,,,,,,,,,,,,,,,,,,,,,,,,,,,,,,,,,,,,,,,,,,,78.0,78.0,133.0,57.0,57.0,133.0,2.1,2.12,-164,-268,0,-276,191,276,260.1962673664093,260.19634556770325,260.1994090080261,260.20970273017883,260.362548828125,260.362548828125,260.362548828125,260.362548828125,260.362548828125,260.362548828125,260.362548828125,262.04691457748413,2,1.8344295024871826,None,,,,,,,,,,,,,,,,,,99,2,2025-02-24_14h58.21.550,comp,2024.2.4,None,2025-02-24 14h58.35.801301 -0500,
94,94,0,filler_square,None,None,None,None,None,None,None,None,None,None,2,1.5166726112365723,None,,,,,0,0,0,0,0,94,94,205,262.063538312912,,,,,,,,,,,,,,,,,,,,,,,,,,,,,,,,,,,,,,,,,,,,,,,,,,,,,,,,,,,,,,,,,,,,,,,,,,,,,,,,,66.4913540057575,94.85973003863393,164.19978317574856,164.19978317574856,160.0565253492951,130.65921490544042,4.0,4.2,-226,11,0,-269,243,2,262.0489709377289,262.0490527153015,262.0524528026581,262.063538312912,262.22033882141113,262.22033882141113,262.22033882141113,262.22033882141113,262.22033882141113,262.22033882141113,262.22033882141113,263.59592747688293,2,1.5166726112365723,None,,,,,,,,,,,,,,,,,,99,2,2025-02-24_14h58.21.550,comp,2024.2.4,None,2025-02-24 14h58.35.801301 -0500,
95,95,0,filler_square,None,None,None,None,None,None,None,None,None,None,3,1.616182804107666,None,,,,,0,0,0,0,0,95,95,179,263.61283445358276,,,,,,,,,,,,,,,,,,,,,,,,,,,,,,,,,,,,,,,,,,,,,,,,,,,,,,,,,,,,,,,,,,,,,,,,,,,,,,,,,63.37123723882083,78.0111913452857,66.71733229017045,87.61625726789366,101.01763670240797,101.01763670240797,1.0,1.1,-659,261,-480,286,-290,284,263.5978605747223,263.5979948043823,263.6013467311859,263.61283445358276,263.7649211883545,263.7649211883545,263.7649211883545,263.7649211883545,263.7649211883545,263.7649211883545,263.7649211883545,265.2369363307953,3,1.616182804107666,None,,,,,,,,,,,,,,,,,,99,2,2025-02-24_14h58.21.550,comp,2024.2.4,None,2025-02-24 14h58.35.801301 -0500,
96,96,0,filler_random,None,None,None,None,None,None,None,None,None,None,2,1.8062729835510254,None,,,,,0,0,0,0,0,96,96,167,265.25467109680176,,,,,,,,,,,,,,,,,,,,,,,,,,,,,,,,,,,,,,,,,,,,,,,,,,,,,,,,,,,,,,,,,,,,,,,,,,,,,,,,,171.52950662671256,173.04337471682948,185.63240595856362,151.32225186809808,67.0526587404832,78.7860258838027,2.2,2.22,-258,280,0,-272,211,-277,265.23860478401184,265.2386817932129,265.2415986061096,265.25467109680176,265.3971927165985,265.3971927165985,265.3971927165985,265.3971927165985,265.3971927165985,265.3971927165985,265.3971927165985,267.0653975009918,2,1.8062729835510254,None,,,,,,,,,,,,,,,,,,99,2,2025-02-24_14h58.21.550,comp,2024.2.4,None,2025-02-24 14h58.35.801301 -0500,
97,97,0,critical,dwh,35.0,2.1,lower,70.0,70.0,57.0,133.0,133.0,57.0,3,2.8735389709472656,None,,,,,0,0,0,0,0,97,97,28,267.0835123062134,,,,,,,,,,,,,,,,,,,,,,,,,,,,,,,,,,,,,,,,,,,,,,,,,,,,,,,,,,,,,,,,,,,,,,,,,,,,,,,,,70.0,70.0,57.0,133.0,133.0,57.0,2.1,2.11,-198,254,0,269,191,-278,267.0669732093811,267.06705260276794,267.0705523490906,267.0835123062134,267.2194731235504,267.2194731235504,267.2194731235504,267.2194731235504,267.2194731235504,267.2194731235504,267.2194731235504,269.96494030952454,3,2.8735389709472656,None,,,,,,,,,,,,,,,,,,99,2,2025-02-24_14h58.21.550,comp,2024.2.4,None,2025-02-24 14h58.35.801301 -0500,
98,98,0,critical,dwh,20.0,2.1,lower,78.0,78.0,57.0,133.0,133.0,57.0,3,1.4539620876312256,None,,,,,0,0,0,0,0,98,98,30,269.98233699798584,,,,,,,,,,,,,,,,,,,,,,,,,,,,,,,,,,,,,,,,,,,,,,,,,,,,,,,,,,,,,,,,,,,,,,,,,,,,,,,,,78.0,78.0,57.0,133.0,133.0,57.0,2.1,2.11,-202,269,0,260,191,-285,269.9665744304657,269.9666509628296,269.96999335289,269.98233699798584,270.13332533836365,270.13332533836365,270.13332533836365,270.13332533836365,270.13332533836365,270.13332533836365,270.13332533836365,271.4516224861145,3,1.4539620876312256,None,,,,,,,,,,,,,,,,,,99,2,2025-02-24_14h58.21.550,comp,2024.2.4,None,2025-02-24 14h58.35.801301 -0500,
99,99,0,filler_random,None,None,None,None,None,None,None,None,None,None,1,1.625504493713379,None,,,,,0,0,0,0,0,99,99,168,271.46757888793945,,,,,,,,,,,,,,,,,,,,,,,,,,,,,,,,,,,,,,,,,,,,,,,,,,,,,,,,,,,,,,,,,,,,,,,,,,,,,,,,,118.75185061200153,187.9511765591607,182.88182909088414,132.07403865564297,141.9273472995868,60.978249759075595,4.0,4.2,-256,-14,0,-259,193,-19,271.45365834236145,271.4537425041199,271.4572241306305,271.46757888793945,271.61640667915344,271.61640667915344,271.61640667915344,271.61640667915344,271.61640667915344,271.61640667915344,271.61640667915344,273.09950613975525,1,1.625504493713379,None,,,,,,,,,,,,,,,,,,99,2,2025-02-24_14h58.21.550,comp,2024.2.4,None,2025-02-24 14h58.35.801301 -0500,
100,100,0,critical,hdw,20.0,2.1,lower,133.0,57.0,78.0,78.0,57.0,133.0,3,1.681234359741211,None,,,,,0,0,0,0,0,100,100,22,273.1151924133301,,,,,,,,,,,,,,,,,,,,,,,,,,,,,,,,,,,,,,,,,,,,,,,,,,,,,,,,,,,,,,,,,,,,,,,,,,,,,,,,,133.0,57.0,78.0,78.0,57.0,133.0,2.1,2.12,-164,-260,0,-284,202,259,273.1009864807129,273.1010639667511,273.1041147708893,273.1151924133301,273.26575446128845,273.26575446128845,273.26575446128845,273.26575446128845,273.26575446128845,273.26575446128845,273.26575446128845,274.8009479045868,3,1.681234359741211,None,,,,,,,,,,,,,,,,,,99,2,2025-02-24_14h58.21.550,comp,2024.2.4,None,2025-02-24 14h58.35.801301 -0500,
101,101,0,critical,dhw,35.0,3.0,lower,70.0,70.0,133.0,57.0,57.0,133.0,2,1.1634023189544678,None,,,,,0,0,0,0,0,101,101,50,274.8177192211151,,,,,,,,,,,,,,,,,,,,,,,,,,,,,,,,,,,,,,,,,,,,,,,,,,,,,,,,,,,,,,,,,,,,,,,,,,,,,,,,,70.0,70.0,133.0,57.0,57.0,133.0,3.0,3.2,-160,-288,0,-18,191,257,274.8026466369629,274.8027536869049,274.80651664733887,274.8177192211151,274.9662401676178,274.9662401676178,274.9662401676178,274.9662401676178,274.9662401676178,274.9662401676178,274.9662401676178,275.9859080314636,2,1.1634023189544678,None,,,,,,,,,,,,,,,,,,99,2,2025-02-24_14h58.21.550,comp,2024.2.4,None,2025-02-24 14h58.35.801301 -0500,
102,102,0,filler_square,None,None,None,None,None,None,None,None,None,None,2,1.6923878192901611,None,,,,,0,0,0,0,0,102,102,204,276.0029046535492,,,,,,,,,,,,,,,,,,,,,,,,,,,,,,,,,,,,,,,,,,,,,,,,,,,,,,,,,,,,,,,,,,,,,,,,,,,,,,,,,68.84709892328767,61.21838924687182,75.45063185151983,75.45063185151983,62.45088524324049,69.49126156908882,4.0,4.2,-164,-19,0,-278,168,15,275.9880106449127,275.9881329536438,275.992062330246,276.0029046535492,276.1570553779602,276.1570553779602,276.1570553779602,276.1570553779602,276.1570553779602,276.1570553779602,276.1570553779602,277.70093417167664,2,1.6923878192901611,None,,,,,,,,,,,,,,,,,,99,2,2025-02-24_14h58.21.550,comp,2024.2.4,None,2025-02-24 14h58.35.801301 -0500,
103,103,0,filler_random,None,None,None,None,None,None,None,None,None,None,3,2.1347131729125977,None,,,,,0,0,0,0,0,103,103,147,277.7173855304718,,,,,,,,,,,,,,,,,,,,,,,,,,,,,,,,,,,,,,,,,,,,,,,,,,,,,,,,,,,,,,,,,,,,,,,,,,,,,,,,,74.10219678042479,116.55983903378716,188.90122930240517,65.0585643036601,132.1523381588677,105.37867228735752,2.1,2.12,-187,-278,0,-257,181,284,277.7026059627533,277.7026822566986,277.7058343887329,277.7173855304718,277.86893582344055,277.86893582344055,277.86893582344055,277.86893582344055,277.86893582344055,277.86893582344055,277.86893582344055,279.8685836791992,3,2.1347131729125977,None,,,,,,,,,,,,,,,,,,99,2,2025-02-24_14h58.21.550,comp,2024.2.4,None,2025-02-24 14h58.35.801301 -0500,
104,104,0,critical,dhw,20.0,2.1,upper,141.0,141.0,200.0,125.0,125.0,200.0,2,1.5833580493927002,None,,,,,0,0,0,0,0,104,104,3,279.88481616973877,,,,,,,,,,,,,,,,,,,,,,,,,,,,,,,,,,,,,,,,,,,,,,,,,,,,,,,,,,,,,,,,,,,,,,,,,,,,,,,,,141.0,141.0,200.0,125.0,125.0,200.0,2.1,2.11,-229,284,0,251,258,-278,279.87016558647156,279.87023997306824,279.8735592365265,279.88481616973877,280.03622555732727,280.03622555732727,280.03622555732727,280.03622555732727,280.03622555732727,280.03622555732727,280.03622555732727,281.4719078540802,2,1.5833580493927002,None,,,,,,,,,,,,,,,,,,99,2,2025-02-24_14h58.21.550,comp,2024.2.4,None,2025-02-24 14h58.35.801301 -0500,
105,105,0,filler_square,None,None,None,None,None,None,None,None,None,None,1,0.9247243404388428,None,,,,,0,0,0,0,0,105,105,186,281.488201379776,,,,,,,,,,,,,,,,,,,,,,,,,,,,,,,,,,,,,,,,,,,,,,,,,,,,,,,,,,,,,,,,,,,,,,,,,,,,,,,,,178.11762624410895,178.11762624410895,174.8760138822473,90.35467631389228,170.060577228001,133.24703234964892,1.0,1.2,-230,0,0,-18,208,-14,281.4739565849304,281.47403717041016,281.47741436958313,281.488201379776,281.6362404823303,281.6362404823303,281.6362404823303,281.6362404823303,281.6362404823303,281.6362404823303,281.6362404823303,282.4202711582184,1,0.9247243404388428,None,,,,,,,,,,,,,,,,,,99,2,2025-02-24_14h58.21.550,comp,2024.2.4,None,2025-02-24 14h58.35.801301 -0500,
106,106,0,critical,dwh,35.0,3.0,upper,127.0,127.0,125.0,200.0,200.0,125.0,2,1.215810775756836,None,,,,,0,0,0,0,0,106,106,63,282.43634486198425,,,,,,,,,,,,,,,,,,,,,,,,,,,,,,,,,,,,,,,,,,,,,,,,,,,,,,,,,,,,,,,,,,,,,,,,,,,,,,,,,127.0,127.0,125.0,200.0,200.0,125.0,3.0,3.1,-260,254,0,20,258,-288,282.42201805114746,282.4221565723419,282.42574882507324,282.43634486198425,282.58618450164795,282.58618450164795,282.58618450164795,282.58618450164795,282.58618450164795,282.58618450164795,282.58618450164795,283.65453696250916,2,1.215810775756836,None,,,,,,,,,,,,,,,,,,99,2,2025-02-24_14h58.21.550,comp,2024.2.4,None,2025-02-24 14h58.35.801301 -0500,
107,107,0,catch,None,None,None,None,None,None,None,None,None,None,3,1.2781059741973877,None,,,,,0,0,0,0,0,107,107,123,283.67062640190125,,,,,,,,,,,,,,,,,,,,,,,,,,,,,,,,,,,,,,,,,,,,,,,,,,,,,,,,,,,,,,,,,,,,,,,,,,,,,,,,,84,106,78,112,182,143,3.0,3.2,-205,-283,0,2,224,269,283.65656542778015,283.6566798686981,283.6599545478821,283.67062640190125,283.8238437175751,283.8238437175751,283.8238437175751,283.8238437175751,283.8238437175751,283.8238437175751,283.8238437175751,284.9532334804535,3,1.2781059741973877,None,,,,,,,,,,,,,,,,,,99,2,2025-02-24_14h58.21.550,comp,2024.2.4,None,2025-02-24 14h58.35.801301 -0500,
108,108,0,critical,whd,20.0,3.0,upper,125.0,200.0,200.0,125.0,141.0,141.0,1,1.8349182605743408,None,,,,,0,0,0,0,0,108,108,93,284.96952056884766,,,,,,,,,,,,,,,,,,,,,,,,,,,,,,,,,,,,,,,,,,,,,,,,,,,,,,,,,,,,,,,,,,,,,,,,,,,,,,,,,125.0,200.0,200.0,125.0,141.0,141.0,3.0,3.2,-258,-289,0,3,229,277,284.95475697517395,284.95483660697937,284.9580023288727,284.96952056884766,285.12618112564087,285.12618112564087,285.12618112564087,285.12618112564087,285.12618112564087,285.12618112564087,285.12618112564087,286.8109755516052,1,1.8349182605743408,None,,,,,,,,,,,,,,,,,,99,2,2025-02-24_14h58.21.550,comp,2024.2.4,None,2025-02-24 14h58.35.801301 -0500,
109,109,0,critical,whd,35.0,2.1,upper,125.0,200.0,200.0,125.0,127.0,127.0,1,0.887653112411499,None,,,,,0,0,0,0,0,109,109,37,286.82922625541687,,,,,,,,,,,,,,,,,,,,,,,,,,,,,,,,,,,,,,,,,,,,,,,,,,,,,,,,,,,,,,,,,,,,,,,,,,,,,,,,,125.0,200.0,200.0,125.0,127.0,127.0,2.1,2.12,-258,-289,0,-271,222,262,286.8124203681946,286.81251788139343,286.815372467041,286.82922625541687,286.9713954925537,286.9713954925537,286.9713954925537,286.9713954925537,286.9713954925537,286.9713954925537,286.9713954925537,287.7256305217743,1,0.887653112411499,None,,,,,,,,,,,,,,,,,,99,2,2025-02-24_14h58.21.550,comp,2024.2.4,None,2025-02-24 14h58.35.801301 -0500,
110,110,0,filler_random,None,None,None,None,None,None,None,None,None,None,3,1.6384131908416748,None,,,,,0,0,0,0,0,110,110,133,287.74175453186035,,,,,,,,,,,,,,,,,,,,,,,,,,,,,,,,,,,,,,,,,,,,,,,,,,,,,,,,,,,,,,,,,,,,,,,,,,,,,,,,,197.95844188378408,98.68937247097222,193.97063403167,133.8712238310441,177.1312915153179,155.11634817842094,4.0,4.2,-212,-6,0,-286,240,-16,287.7276930809021,287.7278141975403,287.7311489582062,287.74175453186035,287.8815643787384,287.8815643787384,287.8815643787384,287.8815643787384,287.8815643787384,287.8815643787384,287.8815643787384,289.4006350040436,3,1.6384131908416748,None,,,,,,,,,,,,,,,,,,99,2,2025-02-24_14h58.21.550,comp,2024.2.4,None,2025-02-24 14h58.35.801301 -0500,
111,111,0,filler_square,None,None,None,None,None,None,None,None,None,None,3,1.2876777648925781,None,,,,,0,0,0,0,0,111,111,184,289.42052817344666,,,,,,,,,,,,,,,,,,,,,,,,,,,,,,,,,,,,,,,,,,,,,,,,,,,,,,,,,,,,,,,,,,,,,,,,,,,,,,,,,129.22973366872287,107.2523548996086,118.57623280809503,110.43803203331473,152.01356739338922,152.01356739338922,3.0,3.2,-205,-255,0,-19,227,267,289.40234756469727,289.40242433547974,289.40529918670654,289.42052817344666,289.55556559562683,289.55556559562683,289.55556559562683,289.55556559562683,289.55556559562683,289.55556559562683,289.55556559562683,290.7273690700531,3,1.2876777648925781,None,,,,,,,,,,,,,,,,,,99,2,2025-02-24_14h58.21.550,comp,2024.2.4,None,2025-02-24 14h58.35.801301 -0500,
112,112,0,critical,hdw,35.0,1.0,lower,133.0,57.0,70.0,70.0,57.0,133.0,3,2.099534511566162,None,,,,,0,0,0,0,0,112,112,108,290.7458567619324,,,,,,,,,,,,,,,,,,,,,,,,,,,,,,,,,,,,,,,,,,,,,,,,,,,,,,,,,,,,,,,,,,,,,,,,,,,,,,,,,133.0,57.0,70.0,70.0,57.0,133.0,1.0,1.1,-640,290,-480,267,-282,252,290.72902178764343,290.7291157245636,290.73253655433655,290.7458567619324,290.8894073963165,290.8894073963165,290.8894073963165,290.8894073963165,290.8894073963165,290.8894073963165,290.8894073963165,292.8567371368408,3,2.099534511566162,None,,,,,,,,,,,,,,,,,,99,2,2025-02-24_14h58.21.550,comp,2024.2.4,None,2025-02-24 14h58.35.801301 -0500,
113,113,0,filler_square,None,None,None,None,None,None,None,None,None,None,1,1.8344666957855225,None,,,,,0,0,0,0,0,113,113,194,292.87403631210327,,,,,,,,,,,,,,,,,,,,,,,,,,,,,,,,,,,,,,,,,,,,,,,,,,,,,,,,,,,,,,,,,,,,,,,,,,,,,,,,,86.38876275934868,86.38876275934868,81.54708948812508,81.8232552325866,64.04688091435014,75.91915043608492,2.1,2.11,-180,266,0,250,175,-280,292.85881876945496,292.8588991165161,292.8622741699219,292.87403631210327,293.02842450141907,293.02842450141907,293.02842450141907,293.02842450141907,293.02842450141907,293.02842450141907,293.02842450141907,294.7111780643463,1,1.8344666957855225,None,,,,,,,,,,,,,,,,,,99,2,2025-02-24_14h58.21.550,comp,2024.2.4,None,2025-02-24 14h58.35.801301 -0500,
114,114,0,catch,None,None,None,None,None,None,None,None,None,None,3,1.386660099029541,None,,,,,0,0,0,0,0,114,114,128,294.7305700778961,,,,,,,,,,,,,,,,,,,,,,,,,,,,,,,,,,,,,,,,,,,,,,,,,,,,,,,,,,,,,,,,,,,,,,,,,,,,,,,,,60,130,96,94,161,164,2.1,2.12,-208,-282,0,-278,225,279,294.7134737968445,294.71356678009033,294.71646642684937,294.7305700778961,294.874391078949,294.874391078949,294.874391078949,294.874391078949,294.874391078949,294.874391078949,294.874391078949,296.12473464012146,3,1.386660099029541,None,,,,,,,,,,,,,,,,,,99,2,2025-02-24_14h58.21.550,comp,2024.2.4,None,2025-02-24 14h58.35.801301 -0500,
115,115,0,critical,wdh,20.0,3.0,upper,125.0,200.0,141.0,141.0,200.0,125.0,1,1.1593434810638428,None,,,,,0,0,0,0,0,115,115,81,296.1413857936859,,,,,,,,,,,,,,,,,,,,,,,,,,,,,,,,,,,,,,,,,,,,,,,,,,,,,,,,,,,,,,,,,,,,,,,,,,,,,,,,,125.0,200.0,141.0,141.0,200.0,125.0,3.0,3.1,-266,286,0,15,229,-255,296.12618017196655,296.12625670433044,296.1294198036194,296.1413857936859,296.29430866241455,296.29430866241455,296.29430866241455,296.29430866241455,296.29430866241455,296.29430866241455,296.29430866241455,297.30834126472473,1,1.1593434810638428,None,,,,,,,,,,,,,,,,,,99,2,2025-02-24_14h58.21.550,comp,2024.2.4,None,2025-02-24 14h58.35.801301 -0500,
116,116,0,filler_square,None,None,None,None,None,None,None,None,None,None,3,1.1037452220916748,None,,,,,0,0,0,0,0,116,116,175,297.324520111084,,,,,,,,,,,,,,,,,,,,,,,,,,,,,,,,,,,,,,,,,,,,,,,,,,,,,,,,,,,,,,,,,,,,,,,,,,,,,,,,,85.35012670301553,108.14312988310189,99.18424253851754,89.79421245078935,134.75411457341664,134.75411457341664,4.0,4.2,-195,-12,0,-253,208,1,297.31014800071716,297.31022477149963,297.31369972229004,297.324520111084,297.47794675827026,297.47794675827026,297.47794675827026,297.47794675827026,297.47794675827026,297.47794675827026,297.47794675827026,298.44113516807556,3,1.1037452220916748,None,,,,,,,,,,,,,,,,,,99,2,2025-02-24_14h58.21.550,comp,2024.2.4,None,2025-02-24 14h58.35.801301 -0500,
117,117,0,filler_random,None,None,None,None,None,None,None,None,None,None,1,1.0965468883514404,None,,,,,0,0,0,0,0,117,117,140,298.4599196910858,,,,,,,,,,,,,,,,,,,,,,,,,,,,,,,,,,,,,,,,,,,,,,,,,,,,,,,,,,,,,,,,,,,,,,,,,,,,,,,,,176.0098567919874,143.0742819887475,95.65295506964222,166.85136613728818,68.59356736464284,60.33776266905449,4.0,4.1,-251,-271,0,14,210,-258,298.44284081459045,298.4429190158844,298.4460964202881,298.4599196910858,298.60774540901184,298.60774540901184,298.60774540901184,298.60774540901184,298.60774540901184,298.60774540901184,298.60774540901184,299.57504200935364,1,1.0965468883514404,None,,,,,,,,,,,,,,,,,,99,2,2025-02-24_14h58.21.550,comp,2024.2.4,None,2025-02-24 14h58.35.801301 -0500,
118,118,0,filler_random,None,None,None,None,None,None,None,None,None,None,3,1.4654831886291504,None,,,,,0,0,0,0,0,118,118,161,299.59526777267456,,,,,,,,,,,,,,,,,,,,,,,,,,,,,,,,,,,,,,,,,,,,,,,,,,,,,,,,,,,,,,,,,,,,,,,,,,,,,,,,,98.4790809781091,141.24000101927064,112.49305754458567,79.41486843102734,120.50095331667615,195.4640256401704,2.1,2.11,-206,253,0,283,233,-288,299.57681226730347,299.57689023017883,299.5799822807312,299.59526777267456,299.74172353744507,299.74172353744507,299.74172353744507,299.74172353744507,299.74172353744507,299.74172353744507,299.74172353744507,301.06819319725037,3,1.4654831886291504,None,,,,,,,,,,,,,,,,,,99,2,2025-02-24_14h58.21.550,comp,2024.2.4,None,2025-02-24 14h58.35.801301 -0500,
119,119,0,critical,wdh,35.0,2.1,lower,57.0,133.0,70.0,70.0,133.0,57.0,1,1.2006480693817139,None,,,,,0,0,0,0,0,119,119,32,301.0862159729004,,,,,,,,,,,,,,,,,,,,,,,,,,,,,,,,,,,,,,,,,,,,,,,,,,,,,,,,,,,,,,,,,,,,,,,,,,,,,,,,,57.0,133.0,70.0,70.0,133.0,57.0,2.1,2.11,-198,263,0,262,160,-257,301.0697503089905,301.06982946395874,301.0728166103363,301.0862159729004,301.2254605293274,301.2254605293274,301.2254605293274,301.2254605293274,301.2254605293274,301.2254605293274,301.2254605293274,302.292076587677,1,1.2006480693817139,None,,,,,,,,,,,,,,,,,,99,2,2025-02-24_14h58.21.550,comp,2024.2.4,None,2025-02-24 14h58.35.801301 -0500,
120,120,0,critical,wdh,20.0,1.0,lower,57.0,133.0,78.0,78.0,133.0,57.0,3,2.19380259513855,None,,,,,0,0,0,0,0,120,120,78,302.30798053741455,,,,,,,,,,,,,,,,,,,,,,,,,,,,,,,,,,,,,,,,,,,,,,,,,,,,,,,,,,,,,,,,,,,,,,,,,,,,,,,,,57.0,133.0,78.0,78.0,133.0,57.0,1.0,1.3,278,-267,480,-282,644,-253,302.2935607433319,302.2936375141144,302.2968690395355,302.30798053741455,302.45775079727173,302.45775079727173,302.45775079727173,302.45775079727173,302.45775079727173,302.45775079727173,302.45775079727173,304.50920701026917,3,2.19380259513855,None,,,,,,,,,,,,,,,,,,99,2,2025-02-24_14h58.21.550,comp,2024.2.4,None,2025-02-24 14h58.35.801301 -0500,
121,121,0,critical,wdh,35.0,3.0,lower,57.0,133.0,70.0,70.0,133.0,57.0,1,1.45326566696167,None,,,,,0,0,0,0,0,121,121,74,304.52700304985046,,,,,,,,,,,,,,,,,,,,,,,,,,,,,,,,,,,,,,,,,,,,,,,,,,,,,,,,,,,,,,,,,,,,,,,,,,,,,,,,,57.0,133.0,70.0,70.0,133.0,57.0,3.0,3.1,-198,275,0,-9,160,-285,304.5107035636902,304.5107808113098,304.5138659477234,304.52700304985046,304.6772847175598,304.6772847175598,304.6772847175598,304.6772847175598,304.6772847175598,304.6772847175598,304.6772847175598,305.9968612194061,1,1.45326566696167,None,,,,,,,,,,,,,,,,,,99,2,2025-02-24_14h58.21.550,comp,2024.2.4,None,2025-02-24 14h58.35.801301 -0500,
122,122,0,filler_random,None,None,None,None,None,None,None,None,None,None,1,1.3123078346252441,None,,,,,0,0,0,0,0,122,122,137,306.01260256767273,,,,,,,,,,,,,,,,,,,,,,,,,,,,,,,,,,,,,,,,,,,,,,,,,,,,,,,,,,,,,,,,,,,,,,,,,,,,,,,,,77.22263394424222,149.09447727635103,91.49588683576943,59.10103918141118,118.62558388993372,87.82314285754669,3.0,3.1,-200,288,0,-16,169,-279,305.99900555610657,305.9990828037262,306.0023295879364,306.01260256767273,306.1588804721832,306.1588804721832,306.1588804721832,306.1588804721832,306.1588804721832,306.1588804721832,306.1588804721832,307.32891297340393,1,1.3123078346252441,None,,,,,,,,,,,,,,,,,,99,2,2025-02-24_14h58.21.550,comp,2024.2.4,None,2025-02-24 14h58.35.801301 -0500,
123,123,0,critical,dwh,20.0,4.0,lower,78.0,78.0,57.0,133.0,133.0,57.0,2,1.8826870918273926,None,,,,,0,0,0,0,0,123,123,70,307.3456027507782,,,,,,,,,,,,,,,,,,,,,,,,,,,,,,,,,,,,,,,,,,,,,,,,,,,,,,,,,,,,,,,,,,,,,,,,,,,,,,,,,78.0,78.0,57.0,133.0,133.0,57.0,4.0,4.1,-202,-273,0,6,191,-252,307.330637216568,307.3307456970215,307.334849357605,307.3456027507782,307.49567103385925,307.49567103385925,307.49567103385925,307.49567103385925,307.49567103385925,307.49567103385925,307.49567103385925,309.2451171875,2,1.8826870918273926,None,,,,,,,,,,,,,,,,,,99,2,2025-02-24_14h58.21.550,comp,2024.2.4,None,2025-02-24 14h58.35.801301 -0500,
124,124,0,filler_square,None,None,None,None,None,None,None,None,None,None,3,1.4398701190948486,None,,,,,0,0,0,0,0,124,124,187,309.2613775730133,,,,,,,,,,,,,,,,,,,,,,,,,,,,,,,,,,,,,,,,,,,,,,,,,,,,,,,,,,,,,,,,,,,,,,,,,,,,,,,,,65.8110376995702,72.57452541655664,57.55430390192569,75.53922276922398,79.5810477867735,79.5810477867735,4.0,4.2,-170,-3,0,-286,174,-7,309.2469005584717,309.24697613716125,309.25046014785767,309.2613775730133,309.4124617576599,309.4124617576599,309.4124617576599,309.4124617576599,309.4124617576599,309.4124617576599,309.4124617576599,310.7184114456177,3,1.4398701190948486,None,,,,,,,,,,,,,,,,,,99,2,2025-02-24_14h58.21.550,comp,2024.2.4,None,2025-02-24 14h58.35.801301 -0500,
125,125,0,critical,dwh,20.0,2.1,lower,78.0,78.0,57.0,133.0,133.0,57.0,3,1.3373558521270752,None,,,,,0,0,0,0,0,125,125,6,310.73885703086853,,,,,,,,,,,,,,,,,,,,,,,,,,,,,,,,,,,,,,,,,,,,,,,,,,,,,,,,,,,,,,,,,,,,,,,,,,,,,,,,,78.0,78.0,57.0,133.0,133.0,57.0,2.1,2.12,-202,-288,0,-263,191,274,310.7200725078583,310.72020173072815,310.72348713874817,310.73885703086853,310.87860321998596,310.87860321998596,310.87860321998596,310.87860321998596,310.87860321998596,310.87860321998596,310.87860321998596,312.08014941215515,3,1.3373558521270752,None,,,,,,,,,,,,,,,,,,99,2,2025-02-24_14h58.21.550,comp,2024.2.4,None,2025-02-24 14h58.35.801301 -0500,
126,126,0,critical,dhw,35.0,2.1,lower,70.0,70.0,133.0,57.0,57.0,133.0,3,1.2360386848449707,None,,,,,0,0,0,0,0,126,126,0,312.0962595939636,,,,,,,,,,,,,,,,,,,,,,,,,,,,,,,,,,,,,,,,,,,,,,,,,,,,,,,,,,,,,,,,,,,,,,,,,,,,,,,,,70.0,70.0,133.0,57.0,57.0,133.0,2.1,2.12,-160,-278,0,-257,191,262,312.0817654132843,312.08184266090393,312.08542108535767,312.0962595939636,312.24402236938477,312.24402236938477,312.24402236938477,312.24402236938477,312.24402236938477,312.24402236938477,312.24402236938477,313.346195936203,3,1.2360386848449707,None,,,,,,,,,,,,,,,,,,99,2,2025-02-24_14h58.21.550,comp,2024.2.4,None,2025-02-24 14h58.35.801301 -0500,
127,127,0,critical,wdh,35.0,2.1,lower,57.0,133.0,70.0,70.0,133.0,57.0,1,1.1380786895751953,None,,,,,0,0,0,0,0,127,127,8,313.3622007369995,,,,,,,,,,,,,,,,,,,,,,,,,,,,,,,,,,,,,,,,,,,,,,,,,,,,,,,,,,,,,,,,,,,,,,,,,,,,,,,,,57.0,133.0,70.0,70.0,133.0,57.0,2.1,2.11,-198,263,0,273,160,-265,313.34777545928955,313.3478534221649,313.351021528244,313.3622007369995,313.5194625854492,313.5194625854492,313.5194625854492,313.5194625854492,313.5194625854492,313.5194625854492,313.5194625854492,314.5113043785095,1,1.1380786895751953,None,,,,,,,,,,,,,,,,,,99,2,2025-02-24_14h58.21.550,comp,2024.2.4,None,2025-02-24 14h58.35.801301 -0500,
128,128,0,critical,hwd,35.0,4.0,lower,133.0,57.0,57.0,133.0,70.0,70.0,1,1.080967664718628,None,,,,,0,0,0,0,0,128,128,100,314.5313231945038,,,,,,,,,,,,,,,,,,,,,,,,,,,,,,,,,,,,,,,,,,,,,,,,,,,,,,,,,,,,,,,,,,,,,,,,,,,,,,,,,133.0,57.0,57.0,133.0,70.0,70.0,4.0,4.2,-191,12,0,-268,198,-9,314.51366233825684,314.5138027667999,314.51939058303833,314.5313231945038,314.66424655914307,314.66424655914307,314.66424655914307,314.66424655914307,314.66424655914307,314.66424655914307,314.66424655914307,315.61667823791504,1,1.080967664718628,None,,,,,,,,,,,,,,,,,,99,2,2025-02-24_14h58.21.550,comp,2024.2.4,None,2025-02-24 14h58.35.801301 -0500,
129,129,0,critical,dwh,35.0,2.1,upper,127.0,127.0,125.0,200.0,200.0,125.0,2,1.0261011123657227,None,,,,,0,0,0,0,0,129,129,29,315.6343483924866,,,,,,,,,,,,,,,,,,,,,,,,,,,,,,,,,,,,,,,,,,,,,,,,,,,,,,,,,,,,,,,,,,,,,,,,,,,,,,,,,127.0,127.0,125.0,200.0,200.0,125.0,2.1,2.11,-260,263,0,281,258,-262,315.618262052536,315.61834383010864,315.6213924884796,315.6343483924866,315.7890615463257,315.7890615463257,315.7890615463257,315.7890615463257,315.7890615463257,315.7890615463257,315.7890615463257,316.66250801086426,2,1.0261011123657227,None,,,,,,,,,,,,,,,,,,99,2,2025-02-24_14h58.21.550,comp,2024.2.4,None,2025-02-24 14h58.35.801301 -0500,
130,130,0,filler_square,None,None,None,None,None,None,None,None,None,None,2,1.6311991214752197,None,,,,,0,0,0,0,0,130,130,173,316.6777937412262,,,,,,,,,,,,,,,,,,,,,,,,,,,,,,,,,,,,,,,,,,,,,,,,,,,,,,,,,,,,,,,,,,,,,,,,,,,,,,,,,96.75991395276131,96.75991395276131,93.55848095982665,85.54557076454289,86.11744714564863,64.6371874842695,4.0,4.2,-187,-10,0,-258,171,14,316.66427421569824,316.66435050964355,316.66734743118286,316.6777937412262,316.83676958084106,316.83676958084106,316.83676958084106,316.83676958084106,316.83676958084106,316.83676958084106,316.83676958084106,318.3148899078369,2,1.6311991214752197,None,,,,,,,,,,,,,,,,,,99,2,2025-02-24_14h58.21.550,comp,2024.2.4,None,2025-02-24 14h58.35.801301 -0500,
131,131,0,critical,hwd,20.0,3.0,lower,133.0,57.0,57.0,133.0,78.0,78.0,2,0.9534478187561035,None,,,,,0,0,0,0,0,131,131,104,318.3308262825012,,,,,,,,,,,,,,,,,,,,,,,,,,,,,,,,,,,,,,,,,,,,,,,,,,,,,,,,,,,,,,,,,,,,,,,,,,,,,,,,,133.0,57.0,57.0,133.0,78.0,78.0,3.0,3.1,-191,267,0,0,202,-261,318.3164129257202,318.31655859947205,318.3200635910034,318.3308262825012,318.47886753082275,318.47886753082275,318.47886753082275,318.47886753082275,318.47886753082275,318.47886753082275,318.47886753082275,319.29682183265686,2,0.9534478187561035,None,,,,,,,,,,,,,,,,,,99,2,2025-02-24_14h58.21.550,comp,2024.2.4,None,2025-02-24 14h58.35.801301 -0500,
132,132,0,filler_square,None,None,None,None,None,None,None,None,None,None,1,0.9396207332611084,None,,,,,0,0,0,0,0,132,132,200,319.31334829330444,,,,,,,,,,,,,,,,,,,,,,,,,,,,,,,,,,,,,,,,,,,,,,,,,,,,,,,,,,,,,,,,,,,,,,,,,,,,,,,,,88.6188115400632,88.6188115400632,61.275062652911124,62.1329932801261,58.91648373395784,81.62260703678838,4.0,4.2,-171,-13,0,-256,168,5,319.2986571788788,319.2987446784973,319.3021411895752,319.31334829330444,319.464515209198,319.464515209198,319.464515209198,319.464515209198,319.464515209198,319.464515209198,319.464515209198,320.2553880214691,1,0.9396207332611084,None,,,,,,,,,,,,,,,,,,99,2,2025-02-24_14h58.21.550,comp,2024.2.4,None,2025-02-24 14h58.35.801301 -0500,
133,133,0,filler_random,None,None,None,None,None,None,None,None,None,None,2,0.8146235942840576,None,,,,,0,0,0,0,0,133,133,160,320.27058124542236,,,,,,,,,,,,,,,,,,,,,,,,,,,,,,,,,,,,,,,,,,,,,,,,,,,,,,,,,,,,,,,,,,,,,,,,,,,,,,,,,71.89801103761721,80.37935521275733,117.51154770412198,184.482771045236,187.31711581656964,114.36261956977498,4.0,4.1,-228,-279,0,15,245,-268,320.2572183609009,320.25733041763306,320.26066613197327,320.27058124542236,320.41522669792175,320.41522669792175,320.41522669792175,320.41522669792175,320.41522669792175,320.41522669792175,320.41522669792175,321.08754110336304,2,0.8146235942840576,None,,,,,,,,,,,,,,,,,,99,2,2025-02-24_14h58.21.550,comp,2024.2.4,None,2025-02-24 14h58.35.801301 -0500,
134,134,0,catch,None,None,None,None,None,None,None,None,None,None,1,0.8758888244628906,None,,,,,0,0,0,0,0,134,134,120,321.1046898365021,,,,,,,,,,,,,,,,,,,,,,,,,,,,,,,,,,,,,,,,,,,,,,,,,,,,,,,,,,,,,,,,,,,,,,,,,,,,,,,,,133,192,107,83,76,114,3.0,3.1,-234,263,0,9,194,-265,321.08966517448425,321.0897469520569,321.0930435657501,321.1046898365021,321.24938774108887,321.24938774108887,321.24938774108887,321.24938774108887,321.24938774108887,321.24938774108887,321.24938774108887,321.98898553848267,1,0.8758888244628906,None,,,,,,,,,,,,,,,,,,99,2,2025-02-24_14h58.21.550,comp,2024.2.4,None,2025-02-24 14h58.35.801301 -0500,
135,135,0,critical,dhw,20.0,1.0,lower,78.0,78.0,133.0,57.0,57.0,133.0,3,1.3928453922271729,None,,,,,0,0,0,0,0,135,135,54,322.0037705898285,,,,,,,,,,,,,,,,,,,,,,,,,,,,,,,,,,,,,,,,,,,,,,,,,,,,,,,,,,,,,,,,,,,,,,,,,,,,,,,,,78.0,78.0,133.0,57.0,57.0,133.0,1.0,1.3,316,-265,480,-263,671,-277,321.9906630516052,321.99074053764343,321.99400329589844,322.0037705898285,322.1500518321991,322.1500518321991,322.1500518321991,322.1500518321991,322.1500518321991,322.1500518321991,322.1500518321991,323.398805141449,3,1.3928453922271729,None,,,,,,,,,,,,,,,,,,99,2,2025-02-24_14h58.21.550,comp,2024.2.4,None,2025-02-24 14h58.35.801301 -0500,
136,136,0,filler_square,None,None,None,None,None,None,None,None,None,None,2,0.9399764537811279,None,,,,,0,0,0,0,0,136,136,180,323.41624879837036,,,,,,,,,,,,,,,,,,,,,,,,,,,,,,,,,,,,,,,,,,,,,,,,,,,,,,,,,,,,,,,,,,,,,,,,,,,,,,,,,133.25503239346472,77.03484091653775,142.62170939939588,142.62170939939588,91.81957044271896,90.80107375196671,2.2,2.21,-206,-272,0,259,213,258,323.4008162021637,323.4008936882019,323.4040997028351,323.41624879837036,323.5661973953247,323.5661973953247,323.5661973953247,323.5661973953247,323.5661973953247,323.5661973953247,323.5661973953247,324.37510085105896,2,0.9399764537811279,None,,,,,,,,,,,,,,,,,,99,2,2025-02-24_14h58.21.550,comp,2024.2.4,None,2025-02-24 14h58.35.801301 -0500,
137,137,0,critical,wdh,35.0,3.0,upper,125.0,200.0,127.0,127.0,200.0,125.0,1,1.0063602924346924,None,,,,,0,0,0,0,0,137,137,75,324.38991832733154,,,,,,,,,,,,,,,,,,,,,,,,,,,,,,,,,,,,,,,,,,,,,,,,,,,,,,,,,,,,,,,,,,,,,,,,,,,,,,,,,125.0,200.0,127.0,127.0,200.0,125.0,3.0,3.1,-260,286,0,-4,222,-264,324.37662959098816,324.37670397758484,324.3796429634094,324.38991832733154,324.5332622528076,324.5332622528076,324.5332622528076,324.5332622528076,324.5332622528076,324.5332622528076,324.5332622528076,325.40047240257263,1,1.0063602924346924,None,,,,,,,,,,,,,,,,,,99,2,2025-02-24_14h58.21.550,comp,2024.2.4,None,2025-02-24 14h58.35.801301 -0500,
138,138,0,filler_square,None,None,None,None,None,None,None,None,None,None,3,3.5420119762420654,None,,,,,0,0,0,0,0,138,138,182,325.41571855545044,,,,,,,,,,,,,,,,,,,,,,,,,,,,,,,,,,,,,,,,,,,,,,,,,,,,,,,,,,,,,,,,,,,,,,,,,,,,,,,,,87.11728240668258,87.11728240668258,62.90067786182682,75.65899004938196,85.0562961281442,86.19528387191001,2.2,2.21,-177,-280,0,269,177,253,325.40241289138794,325.402583360672,325.4060604572296,325.41571855545044,325.56898379325867,325.56898379325867,325.56898379325867,325.56898379325867,325.56898379325867,325.56898379325867,325.56898379325867,328.9689838886261,3,3.5420119762420654,None,,,,,,,,,,,,,,,,,,99,2,2025-02-24_14h58.21.550,comp,2024.2.4,None,2025-02-24 14h58.35.801301 -0500,
139,139,0,critical,whd,35.0,1.0,lower,57.0,133.0,133.0,57.0,70.0,70.0,1,1.275519847869873,None,,,,,0,0,0,0,0,139,139,84,328.98540592193604,,,,,,,,,,,,,,,,,,,,,,,,,,,,,,,,,,,,,,,,,,,,,,,,,,,,,,,,,,,,,,,,,,,,,,,,,,,,,,,,,57.0,133.0,133.0,57.0,70.0,70.0,1.0,1.3,289,-278,480,-263,640,-288,328.9705228805542,328.9706254005432,328.9746572971344,328.98540592193604,329.1377272605896,329.1377272605896,329.1377272605896,329.1377272605896,329.1377272605896,329.1377272605896,329.1377272605896,330.2698493003845,1,1.275519847869873,None,,,,,,,,,,,,,,,,,,99,2,2025-02-24_14h58.21.550,comp,2024.2.4,None,2025-02-24 14h58.35.801301 -0500,
140,140,0,critical,whd,20.0,4.0,lower,57.0,133.0,133.0,57.0,78.0,78.0,1,1.13383150100708,None,,,,,0,0,0,0,0,140,140,94,330.2863554954529,,,,,,,,,,,,,,,,,,,,,,,,,,,,,,,,,,,,,,,,,,,,,,,,,,,,,,,,,,,,,,,,,,,,,,,,,,,,,,,,,57.0,133.0,133.0,57.0,78.0,78.0,4.0,4.1,-191,-254,0,9,164,-255,330.2715005874634,330.27158522605896,330.2751295566559,330.2863554954529,330.4358444213867,330.4358444213867,330.4358444213867,330.4358444213867,330.4358444213867,330.4358444213867,330.4358444213867,331.43521547317505,1,1.13383150100708,None,,,,,,,,,,,,,,,,,,99,2,2025-02-24_14h58.21.550,comp,2024.2.4,None,2025-02-24 14h58.35.801301 -0500,
141,141,0,filler_square,None,None,None,None,None,None,None,None,None,None,2,2.1783556938171387,None,,,,,0,0,0,0,0,141,141,185,331.4511215686798,,,,,,,,,,,,,,,,,,,,,,,,,,,,,,,,,,,,,,,,,,,,,,,,,,,,,,,,,,,,,,,,,,,,,,,,,,,,,,,,,163.87590248752696,163.87590248752696,163.09491780002526,156.93945988907905,85.94916886958269,140.80543897421072,2.2,2.21,-256,-270,0,288,245,272,331.4373197555542,331.43740010261536,331.4408061504364,331.4511215686798,331.6021876335144,331.6021876335144,331.6021876335144,331.6021876335144,331.6021876335144,331.6021876335144,331.6021876335144,333.6353874206543,2,2.1783556938171387,None,,,,,,,,,,,,,,,,,,99,2,2025-02-24_14h58.21.550,comp,2024.2.4,None,2025-02-24 14h58.35.801301 -0500,
142,142,0,critical,whd,20.0,1.0,upper,125.0,200.0,200.0,125.0,141.0,141.0,2,1.0732600688934326,None,,,,,0,0,0,0,0,142,142,91,333.65163111686707,,,,,,,,,,,,,,,,,,,,,,,,,,,,,,,,,,,,,,,,,,,,,,,,,,,,,,,,,,,,,,,,,,,,,,,,,,,,,,,,,125.0,200.0,200.0,125.0,141.0,141.0,1.0,1.1,-738,275,-480,264,-251,259,333.636864900589,333.63694310188293,333.6400291919708,333.65163111686707,333.8027684688568,333.8027684688568,333.8027684688568,333.8027684688568,333.8027684688568,333.8027684688568,333.8027684688568,334.7364733219147,2,1.0732600688934326,None,,,,,,,,,,,,,,,,,,99,2,2025-02-24_14h58.21.550,comp,2024.2.4,None,2025-02-24 14h58.35.801301 -0500,
