thisN,thisTrialN,thisRepN,effect,order,distance,config,diag,h_1,w_1,h_2,w_2,h_3,w_3,rect_choice.keys,rect_choice.rt,rect_choice.duration,instructions_loop.thisRepN,instructions_loop.thisTrialN,instructions_loop.thisN,instructions_loop.thisIndex,blocks.thisRepN,blocks.thisTrialN,blocks.thisN,blocks.thisIndex,trials.thisRepN,trials.thisTrialN,trials.thisN,trials.thisIndex,thisRow.t,notes,consent.started,agree_button.started,decline_button.started,consent_img.started,mouse.started,consent.stopped,agree_button.numClicks,agree_button.timesOn,agree_button.timesOff,decline_button.numClicks,decline_button.timesOn,decline_button.timesOff,mouse.x,mouse.y,mouse.leftButton,mouse.midButton,mouse.rightButton,mouse.time,mouse.clicked_name,exp_params.started,exp_params.stopped,welcome.started,welcome_text.started,welcome.stopped,instructions_1.started,instructions_1_text_1.started,instructions_1_text_2.started,key_resp.started,instructions_1.stopped,instructions_loop.key_resp.keys,instructions_loop.key_resp.rt,instructions_loop.key_resp.duration,instructions_2.started,instructions_2_text_1.started,instructions_2_text_2.started,key_resp_2.started,instructions_2.stopped,instructions_loop.key_resp_2.keys,instructions_loop.key_resp_2.rt,instructions_loop.key_resp_2.duration,instructions_3.started,instructions_3_text_1.started,r1_instr3.started,r2_instr3.started,r3_instr3.started,r1_instr3_label.started,r2_instr3_label.started,r3_instr3_label.started,instructions_3_text_3.started,instructions_3_text_4.started,key_resp_3.started,instructions_3.stopped,instructions_loop.key_resp_3.keys,instructions_loop.key_resp_3.rt,instructions_loop.key_resp_3.duration,instructions_4.started,instructions_4_text_1.started,instructions_4_text_3.started,instructions_4_text_2.started,key_resp_4.started,instructions_4.stopped,instructions_loop.key_resp_4.keys,instructions_loop.key_resp_4.rt,instructions_loop.key_resp_4.duration,instructions_5.started,instructions_5_text_1.started,instructions_5_text_2.started,key_resp_5.started,instructions_5.stopped,instructions_loop.key_resp_5.keys,instructions_loop.key_resp_5.rt,instructions_loop.key_resp_5.duration,start_exp.started,start_exp_text.started,key_resp_6.started,start_exp.stopped,key_resp_6.keys,key_resp_6.rt,key_resp_6.duration,h_1_tmp,w_1_tmp,h_2_tmp,w_2_tmp,h_3_tmp,w_3_tmp,config_tmp,config_tmp_1,r_1_x,r_1_y,r_2_x,r_2_y,r_3_x,r_3_y,pre_trial.started,pre_trial.stopped,choice_trial.started,rect_choice.started,r_1.started,r_2.started,r_3.started,r_1_label.started,r_2_label.started,r_3_label.started,prompt.started,choice_trial.stopped,trials.rect_choice.keys,trials.rect_choice.rt,trials.rect_choice.duration,end_block.started,end_block_text.started,end_block.stopped,end.started,end_text.started,key_resp_7.started,end.stopped,key_resp_7.keys,key_resp_7.rt,key_resp_7.duration,debriefing.started,debrief_form.started,end_debrief.started,debriefing.stopped,end_debrief.keys,end_debrief.rt,end_debrief.duration,participant,computer,date,expName,psychopyVersion,frameRate,expStart,
,,,,,,,,,,,,,,,,,,,,,,,,,,,,,,,0.014587640762329102,0.036180734634399414,0.036180734634399414,0.036180734634399414,0.014381170272827148,51.764933347702026,1,[51.72637438774109],[51.72639584541321],0,,,[-65.0],[-497.0],[1],[0],[0],[51.7499725818634],['agree_button'],,,,,,,,,,,,,,,,,,,,,,,,,,,,,,,,,,,,,,,,,,,,,,,,,,,,,,,,,,,,,,,,,,,,,,,,,,,,,,,,,,,,,,,,,,,,,,,,,,,,,,,,,,,9,6,2025-02-18_13h01.18.874,comp,2024.2.4,None,2025-02-18 13h01.48.519162 -0500,
,,,,,,,,,,,,,,,,,,,,,,,,,,,,,,,,,,,,,,,,,,,,,,,,,,51.765486001968384,51.7655508518219,,,,,,,,,,,,,,,,,,,,,,,,,,,,,,,,,,,,,,,,,,,,,,,,,,,,,,,,,,,,,,,,,,,,,,,,,,,,,,,,,,,,,,,,,,,,,,,,,,,,,,,,,9,6,2025-02-18_13h01.18.874,comp,2024.2.4,None,2025-02-18 13h01.48.519162 -0500,
,,,,,,,,,,,,,,,,,,,,,,,,,,,,,,,,,,,,,,,,,,,,,,,,,,,,51.76559329032898,51.780014991760254,53.7678644657135,,,,,,,,,,,,,,,,,,,,,,,,,,,,,,,,,,,,,,,,,,,,,,,,,,,,,,,,,,,,,,,,,,,,,,,,,,,,,,,,,,,,,,,,,,,,,,,,,,,,,,9,6,2025-02-18_13h01.18.874,comp,2024.2.4,None,2025-02-18 13h01.48.519162 -0500,
0,0,0,,,,,,,,,,,,,,,0,0,0,0,,,,,,,,,53.7833616733551,,,,,,,,,,,,,,,,,,,,,,,,,,53.768760204315186,53.7833616733551,53.7833616733551,55.267961740493774,59.83840227127075,space,4.564603805541992,None,59.83854293823242,59.855940103530884,59.855940103530884,61.35253310203552,72.67411160469055,space,11.319791316986084,None,72.6742889881134,72.70237946510315,72.70237946510315,72.70237946510315,72.70237946510315,72.70237946510315,72.70237946510315,72.70237946510315,72.70237946510315,72.70237946510315,74.17456269264221,84.59501147270203,space,10.409863710403442,None,84.59519505500793,84.61303639411926,84.61303639411926,84.61303639411926,86.10751938819885,93.64730501174927,space,7.533628463745117,None,93.6474540233612,93.66062450408936,93.66062450408936,95.14627623558044,96.73007845878601,space,1.5663621425628662,None,96.73032546043396,96.74589514732361,96.74589514732361,98.83099055290222,space,2.0792951583862305,None,,,,,,,,,,,,,,,,,,,,,,,,,,,,,,,,,,,,,,,,,,,,,,,9,6,2025-02-18_13h01.18.874,comp,2024.2.4,None,2025-02-18 13h01.48.519162 -0500,
0,0,0,filler_random,None,None,None,None,None,None,None,None,None,None,2,4.328273296356201,None,,,,,0,0,0,0,0,0,0,146,98.90489912033081,,,,,,,,,,,,,,,,,,,,,,,,,,,,,,,,,,,,,,,,,,,,,,,,,,,,,,,,,,,,,,,,,,,,,,,,,,,,,,,,,59.043823665548516,83.38196584138011,116.90063166411906,160.0477276611558,110.42894224474546,71.0288414600285,2.1,2.11,-218,265,0,287,212,-252,98.88861083984375,98.88864803314209,98.88990592956543,98.90489912033081,99.05826187133789,99.05826187133789,99.05826187133789,99.05826187133789,99.05826187133789,99.05826187133789,99.05826187133789,103.25019931793213,2,4.328273296356201,None,,,,,,,,,,,,,,,,,,9,6,2025-02-18_13h01.18.874,comp,2024.2.4,None,2025-02-18 13h01.48.519162 -0500,
1,1,0,critical,wdh,20.0,4.0,lower,57.0,133.0,78.0,78.0,133.0,57.0,3,36.760061502456665,None,,,,,0,0,0,0,0,1,1,82,103.26528739929199,,,,,,,,,,,,,,,,,,,,,,,,,,,,,,,,,,,,,,,,,,,,,,,,,,,,,,,,,,,,,,,,,,,,,,,,,,,,,,,,,57.0,133.0,78.0,78.0,133.0,57.0,4.0,4.1,-202,-274,0,-6,164,-288,103.25168633460999,103.25175333023071,103.25471138954163,103.26528739929199,103.41724967956543,103.41724967956543,103.41724967956543,103.41724967956543,103.41724967956543,103.41724967956543,103.41724967956543,140.03373336791992,3,36.760061502456665,None,,,,,,,,,,,,,,,,,,9,6,2025-02-18_13h01.18.874,comp,2024.2.4,None,2025-02-18 13h01.48.519162 -0500,
2,2,0,critical,hwd,35.0,3.0,upper,200.0,125.0,125.0,200.0,127.0,127.0,2,32.202508211135864,None,,,,,0,0,0,0,0,2,2,99,140.05398726463318,,,,,,,,,,,,,,,,,,,,,,,,,,,,,,,,,,,,,,,,,,,,,,,,,,,,,,,,,,,,,,,,,,,,,,,,,,,,,,,,,200.0,125.0,125.0,200.0,127.0,127.0,3.0,3.1,-258,285,0,12,260,-266,140.03525280952454,140.0353262424469,140.03819513320923,140.05398726463318,140.1951277256012,140.1951277256012,140.1951277256012,140.1951277256012,140.1951277256012,140.1951277256012,140.1951277256012,172.27155089378357,2,32.202508211135864,None,,,,,,,,,,,,,,,,,,9,6,2025-02-18_13h01.18.874,comp,2024.2.4,None,2025-02-18 13h01.48.519162 -0500,
3,3,0,filler_random,None,None,None,None,None,None,None,None,None,None,2,5.4578330516815186,None,,,,,0,0,0,0,0,3,3,137,172.28752517700195,,,,,,,,,,,,,,,,,,,,,,,,,,,,,,,,,,,,,,,,,,,,,,,,,,,,,,,,,,,,,,,,,,,,,,,,,,,,,,,,,97.79159902092051,94.57725247261259,136.34957588893758,104.71252696837209,96.25422566062483,57.98165275284458,1.0,1.1,-676,262,-480,253,-303,277,172.27323579788208,172.2733108997345,172.2763810157776,172.28752517700195,172.44549536705017,172.44549536705017,172.44549536705017,172.44549536705017,172.44549536705017,172.44549536705017,172.44549536705017,177.75700902938843,2,5.4578330516815186,None,,,,,,,,,,,,,,,,,,9,6,2025-02-18_13h01.18.874,comp,2024.2.4,None,2025-02-18 13h01.48.519162 -0500,
4,4,0,critical,whd,35.0,3.0,lower,57.0,133.0,133.0,57.0,70.0,70.0,1,15.459550857543945,None,,,,,0,0,0,0,0,4,4,86,177.77304363250732,,,,,,,,,,,,,,,,,,,,,,,,,,,,,,,,,,,,,,,,,,,,,,,,,,,,,,,,,,,,,,,,,,,,,,,,,,,,,,,,,57.0,133.0,133.0,57.0,70.0,70.0,3.0,3.2,-191,-260,0,0,160,282,177.75860953330994,177.75868964195251,177.76188778877258,177.77304363250732,177.92618894577026,177.92618894577026,177.92618894577026,177.92618894577026,177.92618894577026,177.92618894577026,177.92618894577026,193.24936866760254,1,15.459550857543945,None,,,,,,,,,,,,,,,,,,9,6,2025-02-18_13h01.18.874,comp,2024.2.4,None,2025-02-18 13h01.48.519162 -0500,
5,5,0,filler_random,None,None,None,None,None,None,None,None,None,None,1,15.33545708656311,None,,,,,0,0,0,0,0,5,5,164,193.2650363445282,,,,,,,,,,,,,,,,,,,,,,,,,,,,,,,,,,,,,,,,,,,,,,,,,,,,,,,,,,,,,,,,,,,,,,,,,,,,,,,,,159.3676419453539,149.96238746748435,118.94330701148587,143.72924492609388,143.46966681157988,125.45327187005194,4.0,4.1,-243,-290,0,13,231,-268,193.25138401985168,193.25146484375,193.25469398498535,193.2650363445282,193.41253924369812,193.41253924369812,193.41253924369812,193.41253924369812,193.41253924369812,193.41253924369812,193.41253924369812,208.6165885925293,1,15.33545708656311,None,,,,,,,,,,,,,,,,,,9,6,2025-02-18_13h01.18.874,comp,2024.2.4,None,2025-02-18 13h01.48.519162 -0500,
6,6,0,filler_random,None,None,None,None,None,None,None,None,None,None,3,17.368751764297485,None,,,,,0,0,0,0,0,6,6,167,208.63245344161987,,,,,,,,,,,,,,,,,,,,,,,,,,,,,,,,,,,,,,,,,,,,,,,,,,,,,,,,,,,,,,,,,,,,,,,,,,,,,,,,,125.41368400350667,162.56290046912176,59.76182390326711,134.15738864502507,151.78540494199024,142.0519545046641,4.0,4.1,-244,-282,0,0,234,-260,208.61854028701782,208.61861872673035,208.62202954292297,208.63245344161987,208.78390860557556,208.78390860557556,208.78390860557556,208.78390860557556,208.78390860557556,208.78390860557556,208.78390860557556,226.00542283058167,3,17.368751764297485,None,,,,,,,,,,,,,,,,,,9,6,2025-02-18_13h01.18.874,comp,2024.2.4,None,2025-02-18 13h01.48.519162 -0500,
7,7,0,critical,dhw,35.0,2.1,lower,70.0,70.0,133.0,57.0,57.0,133.0,2,2.8362293243408203,None,,,,,0,0,0,0,0,7,7,24,226.0211362838745,,,,,,,,,,,,,,,,,,,,,,,,,,,,,,,,,,,,,,,,,,,,,,,,,,,,,,,,,,,,,,,,,,,,,,,,,,,,,,,,,70.0,70.0,133.0,57.0,57.0,133.0,2.1,2.11,-160,267,0,289,191,-268,226.0069375038147,226.00701308250427,226.0104784965515,226.0211362838745,226.17225980758667,226.17225980758667,226.17225980758667,226.17225980758667,226.17225980758667,226.17225980758667,226.17225980758667,228.86311960220337,2,2.8362293243408203,None,,,,,,,,,,,,,,,,,,9,6,2025-02-18_13h01.18.874,comp,2024.2.4,None,2025-02-18 13h01.48.519162 -0500,
8,8,0,filler_random,None,None,None,None,None,None,None,None,None,None,3,5.602121114730835,None,,,,,0,0,0,0,0,8,8,158,228.8794984817505,,,,,,,,,,,,,,,,,,,,,,,,,,,,,,,,,,,,,,,,,,,,,,,,,,,,,,,,,,,,,,,,,,,,,,,,,,,,,,,,,163.22677082345683,91.06020384524788,194.62106698426936,115.7762812925568,184.55089880483933,192.0010935666083,4.0,4.1,-199,-286,0,-6,250,-259,228.8648488521576,228.86492776870728,228.86784029006958,228.8794984817505,229.02079510688782,229.02079510688782,229.02079510688782,229.02079510688782,229.02079510688782,229.02079510688782,229.02079510688782,234.49245524406433,3,5.602121114730835,None,,,,,,,,,,,,,,,,,,9,6,2025-02-18_13h01.18.874,comp,2024.2.4,None,2025-02-18 13h01.48.519162 -0500,
9,9,0,critical,hdw,20.0,3.0,lower,133.0,57.0,78.0,78.0,57.0,133.0,3,4.82890248298645,None,,,,,0,0,0,0,0,9,9,116,234.50824999809265,,,,,,,,,,,,,,,,,,,,,,,,,,,,,,,,,,,,,,,,,,,,,,,,,,,,,,,,,,,,,,,,,,,,,,,,,,,,,,,,,133.0,57.0,78.0,78.0,57.0,133.0,3.0,3.2,-164,-269,0,15,202,278,234.49402356147766,234.49410009384155,234.49747371673584,234.50824999809265,234.655366897583,234.655366897583,234.655366897583,234.655366897583,234.655366897583,234.655366897583,234.655366897583,239.3437201976776,3,4.82890248298645,None,,,,,,,,,,,,,,,,,,9,6,2025-02-18_13h01.18.874,comp,2024.2.4,None,2025-02-18 13h01.48.519162 -0500,
10,10,0,critical,dhw,20.0,1.0,upper,141.0,141.0,200.0,125.0,125.0,200.0,2,4.1771228313446045,None,,,,,0,0,0,0,0,10,10,55,239.35949039459229,,,,,,,,,,,,,,,,,,,,,,,,,,,,,,,,,,,,,,,,,,,,,,,,,,,,,,,,,,,,,,,,,,,,,,,,,,,,,,,,,141.0,141.0,200.0,125.0,125.0,200.0,1.0,1.1,-709,256,-480,257,-222,287,239.34535431861877,239.34543085098267,239.34882974624634,239.35949039459229,239.50814700126648,239.50814700126648,239.50814700126648,239.50814700126648,239.50814700126648,239.50814700126648,239.50814700126648,243.54775381088257,2,4.1771228313446045,None,,,,,,,,,,,,,,,,,,9,6,2025-02-18_13h01.18.874,comp,2024.2.4,None,2025-02-18 13h01.48.519162 -0500,
11,11,0,filler_square,None,None,None,None,None,None,None,None,None,None,2,8.818944931030273,None,,,,,0,0,0,0,0,11,11,199,243.56658053398132,,,,,,,,,,,,,,,,,,,,,,,,,,,,,,,,,,,,,,,,,,,,,,,,,,,,,,,,,,,,,,,,,,,,,,,,,,,,,,,,,57.548369688844666,61.27510066520336,69.40346495828454,69.40346495828454,62.54151098898204,65.70062012623134,1.0,1.2,-161,16,0,-10,164,-10,243.5500237941742,243.55009865760803,243.55343914031982,243.56658053398132,243.7127833366394,243.7127833366394,243.7127833366394,243.7127833366394,243.7127833366394,243.7127833366394,243.7127833366394,252.3876576423645,2,8.818944931030273,None,,,,,,,,,,,,,,,,,,9,6,2025-02-18_13h01.18.874,comp,2024.2.4,None,2025-02-18 13h01.48.519162 -0500,
12,12,0,critical,hwd,35.0,4.0,upper,200.0,125.0,125.0,200.0,127.0,127.0,2,5.883898496627808,None,,,,,0,0,0,0,0,12,12,101,252.40543627738953,,,,,,,,,,,,,,,,,,,,,,,,,,,,,,,,,,,,,,,,,,,,,,,,,,,,,,,,,,,,,,,,,,,,,,,,,,,,,,,,,200.0,125.0,125.0,200.0,127.0,127.0,4.0,4.2,-258,-9,0,-267,260,11,252.3892524242401,252.3893322944641,252.39226365089417,252.40543627738953,252.547509431839,252.547509431839,252.547509431839,252.547509431839,252.547509431839,252.547509431839,252.547509431839,258.2983694076538,2,5.883898496627808,None,,,,,,,,,,,,,,,,,,9,6,2025-02-18_13h01.18.874,comp,2024.2.4,None,2025-02-18 13h01.48.519162 -0500,
13,13,0,filler_random,None,None,None,None,None,None,None,None,None,None,1,1.5366063117980957,None,,,,,0,0,0,0,0,13,13,153,258.31956934928894,,,,,,,,,,,,,,,,,,,,,,,,,,,,,,,,,,,,,,,,,,,,,,,,,,,,,,,,,,,,,,,,,,,,,,,,,,,,,,,,,195.5106582209121,141.943439062673,168.56445941328516,57.958747796780614,131.2781277737682,71.17164687113068,1.0,1.1,-676,285,-480,262,-319,276,258.30031061172485,258.30044889450073,258.3037226200104,258.31956934928894,258.46538758277893,258.46538758277893,258.46538758277893,258.46538758277893,258.46538758277893,258.46538758277893,258.46538758277893,259.86567735671997,1,1.5366063117980957,None,,,,,,,,,,,,,,,,,,9,6,2025-02-18_13h01.18.874,comp,2024.2.4,None,2025-02-18 13h01.48.519162 -0500,
14,14,0,filler_square,None,None,None,None,None,None,None,None,None,None,3,15.121997594833374,None,,,,,0,0,0,0,0,14,14,208,259.87936067581177,,,,,,,,,,,,,,,,,,,,,,,,,,,,,,,,,,,,,,,,,,,,,,,,,,,,,,,,,,,,,,,,,,,,,,,,,,,,,,,,,78.60931103138589,87.81269408273161,69.70790759573688,57.97809818497243,91.26197277923015,91.26197277923015,4.0,4.1,-169,-251,0,-4,171,-271,259.86651635169983,259.86655044555664,259.8677990436554,259.87936067581177,260.0335476398468,260.0335476398468,260.0335476398468,260.0335476398468,260.0335476398468,260.0335476398468,260.0335476398468,275.00460386276245,3,15.121997594833374,None,,,,,,,,,,,,,,,,,,9,6,2025-02-18_13h01.18.874,comp,2024.2.4,None,2025-02-18 13h01.48.519162 -0500,
15,15,0,critical,hdw,35.0,1.0,lower,133.0,57.0,70.0,70.0,57.0,133.0,1,4.093597650527954,None,,,,,0,0,0,0,0,15,15,108,275.0200819969177,,,,,,,,,,,,,,,,,,,,,,,,,,,,,,,,,,,,,,,,,,,,,,,,,,,,,,,,,,,,,,,,,,,,,,,,,,,,,,,,,133.0,57.0,70.0,70.0,57.0,133.0,1.0,1.3,320,-285,480,-264,678,-282,275.00605368614197,275.0061285495758,275.0093605518341,275.0200819969177,275.17097997665405,275.17097997665405,275.17097997665405,275.17097997665405,275.17097997665405,275.17097997665405,275.17097997665405,279.1193332672119,1,4.093597650527954,None,,,,,,,,,,,,,,,,,,9,6,2025-02-18_13h01.18.874,comp,2024.2.4,None,2025-02-18 13h01.48.519162 -0500,
16,16,0,critical,hdw,35.0,4.0,upper,200.0,125.0,127.0,127.0,125.0,200.0,1,5.969157695770264,None,,,,,0,0,0,0,0,16,16,113,279.13611674308777,,,,,,,,,,,,,,,,,,,,,,,,,,,,,,,,,,,,,,,,,,,,,,,,,,,,,,,,,,,,,,,,,,,,,,,,,,,,,,,,,200.0,125.0,127.0,127.0,125.0,200.0,4.0,4.2,-222,15,0,-287,260,2,279.12084460258484,279.1209194660187,279.1242136955261,279.13611674308777,279.2736337184906,279.2736337184906,279.2736337184906,279.2736337184906,279.2736337184906,279.2736337184906,279.2736337184906,285.1097812652588,1,5.969157695770264,None,,,,,,,,,,,,,,,,,,9,6,2025-02-18_13h01.18.874,comp,2024.2.4,None,2025-02-18 13h01.48.519162 -0500,
17,17,0,critical,dwh,20.0,1.0,upper,141.0,141.0,125.0,200.0,200.0,125.0,2,5.354777812957764,None,,,,,0,0,0,0,0,17,17,67,285.1259846687317,,,,,,,,,,,,,,,,,,,,,,,,,,,,,,,,,,,,,,,,,,,,,,,,,,,,,,,,,,,,,,,,,,,,,,,,,,,,,,,,,141.0,141.0,125.0,200.0,200.0,125.0,1.0,1.3,214,-252,480,-263,738,-260,285.1114604473114,285.1115894317627,285.11502289772034,285.1259846687317,285.26148796081543,285.26148796081543,285.26148796081543,285.26148796081543,285.26148796081543,285.26148796081543,285.26148796081543,290.49659752845764,2,5.354777812957764,None,,,,,,,,,,,,,,,,,,9,6,2025-02-18_13h01.18.874,comp,2024.2.4,None,2025-02-18 13h01.48.519162 -0500,
18,18,0,critical,hwd,20.0,1.0,upper,200.0,125.0,125.0,200.0,141.0,141.0,2,44.360631465911865,None,,,,,0,0,0,0,0,18,18,103,290.51227045059204,,,,,,,,,,,,,,,,,,,,,,,,,,,,,,,,,,,,,,,,,,,,,,,,,,,,,,,,,,,,,,,,,,,,,,,,,,,,,,,,,200.0,125.0,125.0,200.0,141.0,141.0,1.0,1.2,-258,16,0,14,266,7,290.4980478286743,290.49812054634094,290.50138568878174,290.51227045059204,290.65982937812805,290.65982937812805,290.65982937812805,290.65982937812805,290.65982937812805,290.65982937812805,290.65982937812805,334.8844575881958,2,44.360631465911865,None,,,,,,,,,,,,,,,,,,9,6,2025-02-18_13h01.18.874,comp,2024.2.4,None,2025-02-18 13h01.48.519162 -0500,
19,19,0,critical,wdh,20.0,2.1,lower,57.0,133.0,78.0,78.0,133.0,57.0,3,3.63391375541687,None,,,,,0,0,0,0,0,19,19,34,334.90367913246155,,,,,,,,,,,,,,,,,,,,,,,,,,,,,,,,,,,,,,,,,,,,,,,,,,,,,,,,,,,,,,,,,,,,,,,,,,,,,,,,,57.0,133.0,78.0,78.0,133.0,57.0,2.1,2.11,-202,250,0,254,164,-251,334.8860008716583,334.8860807418823,334.8889813423157,334.90367913246155,335.04201006889343,335.04201006889343,335.04201006889343,335.04201006889343,335.04201006889343,335.04201006889343,335.04201006889343,338.5454971790314,3,3.63391375541687,None,,,,,,,,,,,,,,,,,,9,6,2025-02-18_13h01.18.874,comp,2024.2.4,None,2025-02-18 13h01.48.519162 -0500,
20,20,0,critical,whd,35.0,1.0,lower,57.0,133.0,133.0,57.0,70.0,70.0,1,2.510653018951416,None,,,,,0,0,0,0,0,20,20,84,338.5620949268341,,,,,,,,,,,,,,,,,,,,,,,,,,,,,,,,,,,,,,,,,,,,,,,,,,,,,,,,,,,,,,,,,,,,,,,,,,,,,,,,,57.0,133.0,133.0,57.0,70.0,70.0,1.0,1.3,289,-279,480,-253,640,-285,338.54712295532227,338.54726910591125,338.55057096481323,338.5620949268341,338.7064552307129,338.7064552307129,338.7064552307129,338.7064552307129,338.7064552307129,338.7064552307129,338.7064552307129,341.089537858963,1,2.510653018951416,None,,,,,,,,,,,,,,,,,,9,6,2025-02-18_13h01.18.874,comp,2024.2.4,None,2025-02-18 13h01.48.519162 -0500,
21,21,0,filler_random,None,None,None,None,None,None,None,None,None,None,1,5.3733789920806885,None,,,,,0,0,0,0,0,21,21,130,341.10722970962524,,,,,,,,,,,,,,,,,,,,,,,,,,,,,,,,,,,,,,,,,,,,,,,,,,,,,,,,,,,,,,,,,,,,,,,,,,,,,,,,,133.0559680004011,179.58169757782497,92.34713630354841,173.2616676725704,123.6256804117722,146.6304282377873,3.0,3.2,-272,-267,0,10,256,279,341.0912721157074,341.09135127067566,341.09431409835815,341.10722970962524,341.25921154022217,341.25921154022217,341.25921154022217,341.25921154022217,341.25921154022217,341.25921154022217,341.25921154022217,346.4918487071991,1,5.3733789920806885,None,,,,,,,,,,,,,,,,,,9,6,2025-02-18_13h01.18.874,comp,2024.2.4,None,2025-02-18 13h01.48.519162 -0500,
22,22,0,critical,dhw,20.0,2.1,lower,78.0,78.0,133.0,57.0,57.0,133.0,3,3.0914547443389893,None,,,,,0,0,0,0,0,22,22,26,346.50961804389954,,,,,,,,,,,,,,,,,,,,,,,,,,,,,,,,,,,,,,,,,,,,,,,,,,,,,,,,,,,,,,,,,,,,,,,,,,,,,,,,,78.0,78.0,133.0,57.0,57.0,133.0,2.1,2.12,-164,-270,0,-256,191,287,346.49351954460144,346.49365043640137,346.497047662735,346.50961804389954,346.64804673194885,346.64804673194885,346.64804673194885,346.64804673194885,346.64804673194885,346.64804673194885,346.64804673194885,349.612295627594,3,3.0914547443389893,None,,,,,,,,,,,,,,,,,,9,6,2025-02-18_13h01.18.874,comp,2024.2.4,None,2025-02-18 13h01.48.519162 -0500,
23,23,0,filler_square,None,None,None,None,None,None,None,None,None,None,3,2.648188352584839,None,,,,,0,0,0,0,0,23,23,175,349.63328289985657,,,,,,,,,,,,,,,,,,,,,,,,,,,,,,,,,,,,,,,,,,,,,,,,,,,,,,,,,,,,,,,,,,,,,,,,,,,,,,,,,71.54309809034481,69.69784827497143,62.60835739799084,68.84738938138572,75.38183619031318,75.38183619031318,1.0,1.2,-165,-15,0,-13,168,14,349.61396527290344,349.6140630245209,349.6174383163452,349.63328289985657,349.7799668312073,349.7799668312073,349.7799668312073,349.7799668312073,349.7799668312073,349.7799668312073,349.7799668312073,352.2872483730316,3,2.648188352584839,None,,,,,,,,,,,,,,,,,,9,6,2025-02-18_13h01.18.874,comp,2024.2.4,None,2025-02-18 13h01.48.519162 -0500,
24,24,0,filler_square,None,None,None,None,None,None,None,None,None,None,3,2.409207582473755,None,,,,,0,0,0,0,0,24,24,185,352.3036913871765,,,,,,,,,,,,,,,,,,,,,,,,,,,,,,,,,,,,,,,,,,,,,,,,,,,,,,,,,,,,,,,,,,,,,,,,,,,,,,,,,88.48146530754036,57.66814280013725,96.31428415692753,80.88903189938337,182.75983537134815,182.75983537134815,2.1,2.11,-165,257,0,278,228,-285,352.28923773765564,352.28931427001953,352.2925157546997,352.3036913871765,352.44456028938293,352.44456028938293,352.44456028938293,352.44456028938293,352.44456028938293,352.44456028938293,352.44456028938293,354.7161223888397,3,2.409207582473755,None,,,,,,,,,,,,,,,,,,9,6,2025-02-18_13h01.18.874,comp,2024.2.4,None,2025-02-18 13h01.48.519162 -0500,
25,25,0,filler_random,None,None,None,None,None,None,None,None,None,None,2,4.163641452789307,None,,,,,0,0,0,0,0,25,25,135,354.7332091331482,,,,,,,,,,,,,,,,,,,,,,,,,,,,,,,,,,,,,,,,,,,,,,,,,,,,,,,,,,,,,,,,,,,,,,,,,,,,,,,,,87.79662757845735,180.47328885405074,151.7082961556017,134.7554046932294,73.4191782142702,87.51590283539159,2.1,2.12,-254,-283,0,-264,207,273,354.71789383888245,354.7180190086365,354.7213168144226,354.7332091331482,354.87980103492737,354.87980103492737,354.87980103492737,354.87980103492737,354.87980103492737,354.87980103492737,354.87980103492737,358.9137120246887,2,4.163641452789307,None,,,,,,,,,,,,,,,,,,9,6,2025-02-18_13h01.18.874,comp,2024.2.4,None,2025-02-18 13h01.48.519162 -0500,
26,26,0,critical,whd,20.0,3.0,lower,57.0,133.0,133.0,57.0,78.0,78.0,1,6.711767911911011,None,,,,,0,0,0,0,0,26,26,92,358.929025888443,,,,,,,,,,,,,,,,,,,,,,,,,,,,,,,,,,,,,,,,,,,,,,,,,,,,,,,,,,,,,,,,,,,,,,,,,,,,,,,,,57.0,133.0,133.0,57.0,78.0,78.0,3.0,3.2,-191,-251,0,0,164,258,358.91521859169006,358.91529607772827,358.9187128543854,358.929025888443,359.07955026626587,359.07955026626587,359.07955026626587,359.07955026626587,359.07955026626587,359.07955026626587,359.07955026626587,365.65069484710693,1,6.711767911911011,None,,,,,,,,,,,,,,,,,,9,6,2025-02-18_13h01.18.874,comp,2024.2.4,None,2025-02-18 13h01.48.519162 -0500,
27,27,0,critical,dhw,20.0,3.0,upper,141.0,141.0,200.0,125.0,125.0,200.0,3,3.0623066425323486,None,,,,,0,0,0,0,0,27,27,57,365.6672832965851,,,,,,,,,,,,,,,,,,,,,,,,,,,,,,,,,,,,,,,,,,,,,,,,,,,,,,,,,,,,,,,,,,,,,,,,,,,,,,,,,141.0,141.0,200.0,125.0,125.0,200.0,3.0,3.1,-229,280,0,17,258,-260,365.65231919288635,365.652428150177,365.6560344696045,365.6672832965851,365.8162488937378,365.8162488937378,365.8162488937378,365.8162488937378,365.8162488937378,365.8162488937378,365.8162488937378,368.7360508441925,3,3.0623066425323486,None,,,,,,,,,,,,,,,,,,9,6,2025-02-18_13h01.18.874,comp,2024.2.4,None,2025-02-18 13h01.48.519162 -0500,
28,28,0,critical,wdh,20.0,3.0,lower,57.0,133.0,78.0,78.0,133.0,57.0,1,3.573657989501953,None,,,,,0,0,0,0,0,28,28,80,368.75510597229004,,,,,,,,,,,,,,,,,,,,,,,,,,,,,,,,,,,,,,,,,,,,,,,,,,,,,,,,,,,,,,,,,,,,,,,,,,,,,,,,,57.0,133.0,78.0,78.0,133.0,57.0,3.0,3.2,-202,-286,0,-2,164,287,368.73780822753906,368.73790645599365,368.741251707077,368.75510597229004,368.8992545604706,368.8992545604706,368.8992545604706,368.8992545604706,368.8992545604706,368.8992545604706,368.8992545604706,372.3415093421936,1,3.573657989501953,None,,,,,,,,,,,,,,,,,,9,6,2025-02-18_13h01.18.874,comp,2024.2.4,None,2025-02-18 13h01.48.519162 -0500,
29,29,0,filler_square,None,None,None,None,None,None,None,None,None,None,2,5.00371527671814,None,,,,,0,0,0,0,0,29,29,207,372.3578052520752,,,,,,,,,,,,,,,,,,,,,,,,,,,,,,,,,,,,,,,,,,,,,,,,,,,,,,,,,,,,,,,,,,,,,,,,,,,,,,,,,59.517148789961986,69.62674499653939,115.67407471555674,115.67407471555674,110.54889591673415,76.06471431093122,4.0,4.1,-189,-276,0,9,192,-272,372.34338426589966,372.3435070514679,372.34673404693604,372.3578052520752,372.5009980201721,372.5009980201721,372.5009980201721,372.5009980201721,372.5009980201721,372.5009980201721,372.5009980201721,377.36962842941284,2,5.00371527671814,None,,,,,,,,,,,,,,,,,,9,6,2025-02-18_13h01.18.874,comp,2024.2.4,None,2025-02-18 13h01.48.519162 -0500,
30,30,0,critical,whd,35.0,2.1,upper,125.0,200.0,200.0,125.0,127.0,127.0,1,3.223445415496826,None,,,,,0,0,0,0,0,30,30,37,377.3853352069855,,,,,,,,,,,,,,,,,,,,,,,,,,,,,,,,,,,,,,,,,,,,,,,,,,,,,,,,,,,,,,,,,,,,,,,,,,,,,,,,,125.0,200.0,200.0,125.0,127.0,127.0,2.1,2.11,-258,279,0,280,222,-254,377.3711144924164,377.37121057510376,377.37456154823303,377.3853352069855,377.53680968284607,377.53680968284607,377.53680968284607,377.53680968284607,377.53680968284607,377.53680968284607,377.53680968284607,380.62160634994507,1,3.223445415496826,None,,,,,,,,,,,,,,,,,,9,6,2025-02-18_13h01.18.874,comp,2024.2.4,None,2025-02-18 13h01.48.519162 -0500,
31,31,0,critical,whd,35.0,1.0,upper,125.0,200.0,200.0,125.0,127.0,127.0,1,2.4987099170684814,None,,,,,0,0,0,0,0,31,31,85,380.63794112205505,,,,,,,,,,,,,,,,,,,,,,,,,,,,,,,,,,,,,,,,,,,,,,,,,,,,,,,,,,,,,,,,,,,,,,,,,,,,,,,,,125.0,200.0,200.0,125.0,127.0,127.0,1.0,1.2,-258,12,0,2,222,10,380.6232249736786,380.62332940101624,380.6265878677368,380.63794112205505,380.7868311405182,380.7868311405182,380.7868311405182,380.7868311405182,380.7868311405182,380.7868311405182,380.7868311405182,383.1540849208832,1,2.4987099170684814,None,,,,,,,,,,,,,,,,,,9,6,2025-02-18_13h01.18.874,comp,2024.2.4,None,2025-02-18 13h01.48.519162 -0500,
32,32,0,critical,wdh,20.0,2.1,lower,57.0,133.0,78.0,78.0,133.0,57.0,1,2.4138786792755127,None,,,,,0,0,0,0,0,32,32,10,383.17089200019836,,,,,,,,,,,,,,,,,,,,,,,,,,,,,,,,,,,,,,,,,,,,,,,,,,,,,,,,,,,,,,,,,,,,,,,,,,,,,,,,,57.0,133.0,78.0,78.0,133.0,57.0,2.1,2.12,-202,-289,0,-263,164,256,383.155556678772,383.15562915802,383.15849018096924,383.17089200019836,383.32247710227966,383.32247710227966,383.32247710227966,383.32247710227966,383.32247710227966,383.32247710227966,383.32247710227966,385.58926820755005,1,2.4138786792755127,None,,,,,,,,,,,,,,,,,,9,6,2025-02-18_13h01.18.874,comp,2024.2.4,None,2025-02-18 13h01.48.519162 -0500,
33,33,0,critical,dwh,20.0,2.1,upper,141.0,141.0,125.0,200.0,200.0,125.0,2,6.586855411529541,None,,,,,0,0,0,0,0,33,33,7,385.60588550567627,,,,,,,,,,,,,,,,,,,,,,,,,,,,,,,,,,,,,,,,,,,,,,,,,,,,,,,,,,,,,,,,,,,,,,,,,,,,,,,,,141.0,141.0,125.0,200.0,200.0,125.0,2.1,2.12,-266,-280,0,-268,258,279,385.59085273742676,385.5909321308136,385.595027923584,385.60588550567627,385.7558035850525,385.7558035850525,385.7558035850525,385.7558035850525,385.7558035850525,385.7558035850525,385.7558035850525,392.20850682258606,2,6.586855411529541,None,,,,,,,,,,,,,,,,,,9,6,2025-02-18_13h01.18.874,comp,2024.2.4,None,2025-02-18 13h01.48.519162 -0500,
34,34,0,critical,wdh,20.0,1.0,upper,125.0,200.0,141.0,141.0,200.0,125.0,3,3.1842758655548096,None,,,,,0,0,0,0,0,34,34,79,392.2244682312012,,,,,,,,,,,,,,,,,,,,,,,,,,,,,,,,,,,,,,,,,,,,,,,,,,,,,,,,,,,,,,,,,,,,,,,,,,,,,,,,,125.0,200.0,141.0,141.0,200.0,125.0,1.0,1.3,214,-264,480,-281,709,-267,392.2099575996399,392.2100305557251,392.21317172050476,392.2244682312012,392.37721061706543,392.37721061706543,392.37721061706543,392.37721061706543,392.37721061706543,392.37721061706543,392.37721061706543,395.42521810531616,3,3.1842758655548096,None,,,,,,,,,,,,,,,,,,9,6,2025-02-18_13h01.18.874,comp,2024.2.4,None,2025-02-18 13h01.48.519162 -0500,
35,35,0,catch,None,None,None,None,None,None,None,None,None,None,3,2.6336476802825928,None,,,,,0,0,0,0,0,35,35,126,395.4396779537201,,,,,,,,,,,,,,,,,,,,,,,,,,,,,,,,,,,,,,,,,,,,,,,,,,,,,,,,,,,,,,,,,,,,,,,,,,,,,,,,,126,64,129,61,145,180,2.2,2.22,-158,266,0,-283,216,-285,395.4271237850189,395.42722272872925,395.4303300380707,395.4396779537201,395.5908007621765,395.5908007621765,395.5908007621765,395.5908007621765,395.5908007621765,395.5908007621765,395.5908007621765,398.07653617858887,3,2.6336476802825928,None,,,,,,,,,,,,,,,,,,9,6,2025-02-18_13h01.18.874,comp,2024.2.4,None,2025-02-18 13h01.48.519162 -0500,
36,36,0,critical,hdw,20.0,1.0,lower,133.0,57.0,78.0,78.0,57.0,133.0,1,3.0794837474823,None,,,,,0,0,0,0,0,36,36,114,398.0972285270691,,,,,,,,,,,,,,,,,,,,,,,,,,,,,,,,,,,,,,,,,,,,,,,,,,,,,,,,,,,,,,,,,,,,,,,,,,,,,,,,,133.0,57.0,78.0,78.0,57.0,133.0,1.0,1.2,-164,-14,0,12,202,19,398.0780580043793,398.07813262939453,398.081506729126,398.0972285270691,398.2473666667938,398.2473666667938,398.2473666667938,398.2473666667938,398.2473666667938,398.2473666667938,398.2473666667938,401.1912052631378,1,3.0794837474823,None,,,,,,,,,,,,,,,,,,9,6,2025-02-18_13h01.18.874,comp,2024.2.4,None,2025-02-18 13h01.48.519162 -0500,
37,37,0,filler_square,None,None,None,None,None,None,None,None,None,None,3,8.456809997558594,None,,,,,0,0,0,0,0,37,37,178,401.2079288959503,,,,,,,,,,,,,,,,,,,,,,,,,,,,,,,,,,,,,,,,,,,,,,,,,,,,,,,,,,,,,,,,,,,,,,,,,,,,,,,,,61.13643115645931,63.648485450876954,61.23304698669972,65.1661229011578,72.77198757695933,72.77198757695933,4.0,4.1,-160,-277,0,-16,165,-268,401.19318294525146,401.1932671070099,401.19647192955017,401.2079288959503,401.35987615585327,401.35987615585327,401.35987615585327,401.35987615585327,401.35987615585327,401.35987615585327,401.35987615585327,409.680743932724,3,8.456809997558594,None,,,,,,,,,,,,,,,,,,9,6,2025-02-18_13h01.18.874,comp,2024.2.4,None,2025-02-18 13h01.48.519162 -0500,
38,38,0,critical,hdw,20.0,1.0,upper,200.0,125.0,141.0,141.0,125.0,200.0,1,None,None,,,,,0,0,0,0,0,38,38,115,409.6969826221466,,,,,,,,,,,,,,,,,,,,,,,,,,,,,,,,,,,,,,,,,,,,,,,,,,,,,,,,,,,,,,,,,,,,,,,,,,,,,,,,,200.0,125.0,141.0,141.0,125.0,200.0,1.0,1.1,-709,261,-480,285,-214,278,409.68262577056885,409.68270897865295,409.6862561702728,409.6969826221466,409.8468163013458,409.8468163013458,409.8468163013458,409.8468163013458,409.8468163013458,409.8468163013458,409.8468163013458,409.8965039253235,1,None,None,,,,,,,,,,,,,,,,,,9,6,2025-02-18_13h01.18.874,comp,2024.2.4,None,2025-02-18 13h01.48.519162 -0500,
39,39,0,critical,wdh,35.0,1.0,lower,57.0,133.0,70.0,70.0,133.0,57.0,3,5.418425798416138,None,,,,,0,0,0,0,0,39,39,72,409.91086649894714,,,,,,,,,,,,,,,,,,,,,,,,,,,,,,,,,,,,,,,,,,,,,,,,,,,,,,,,,,,,,,,,,,,,,,,,,,,,,,,,,57.0,133.0,70.0,70.0,133.0,57.0,1.0,1.3,282,-281,480,-256,640,-254,409.8981258869171,409.8982689380646,409.9017674922943,409.91086649894714,410.06050848960876,410.06050848960876,410.06050848960876,410.06050848960876,410.06050848960876,410.06050848960876,410.06050848960876,415.3313901424408,3,5.418425798416138,None,,,,,,,,,,,,,,,,,,9,6,2025-02-18_13h01.18.874,comp,2024.2.4,None,2025-02-18 13h01.48.519162 -0500,
40,40,0,critical,dhw,20.0,2.1,lower,78.0,78.0,133.0,57.0,57.0,133.0,3,1.7279062271118164,None,,,,,0,0,0,0,0,40,40,2,415.3475921154022,,,,,,,,,,,,,,,,,,,,,,,,,,,,,,,,,,,,,,,,,,,,,,,,,,,,,,,,,,,,,,,,,,,,,,,,,,,,,,,,,78.0,78.0,133.0,57.0,57.0,133.0,2.1,2.12,-164,-253,0,-268,191,260,415.3330936431885,415.3332576751709,415.33674478530884,415.3475921154022,415.4878008365631,415.4878008365631,415.4878008365631,415.4878008365631,415.4878008365631,415.4878008365631,415.4878008365631,417.0811388492584,3,1.7279062271118164,None,,,,,,,,,,,,,,,,,,9,6,2025-02-18_13h01.18.874,comp,2024.2.4,None,2025-02-18 13h01.48.519162 -0500,
41,41,0,filler_random,None,None,None,None,None,None,None,None,None,None,2,12.703888654708862,None,,,,,0,0,0,0,0,41,41,140,417.0974395275116,,,,,,,,,,,,,,,,,,,,,,,,,,,,,,,,,,,,,,,,,,,,,,,,,,,,,,,,,,,,,,,,,,,,,,,,,,,,,,,,,190.50293009684924,153.40791098037056,182.95506619347339,168.11196301990628,68.75683078667285,119.90925081214203,2.2,2.22,-257,254,0,-250,240,-274,417.0827693939209,417.0828449726105,417.0859386920929,417.0974395275116,417.2484016418457,417.2484016418457,417.2484016418457,417.2484016418457,417.2484016418457,417.2484016418457,417.2484016418457,429.8192286491394,2,12.703888654708862,None,,,,,,,,,,,,,,,,,,9,6,2025-02-18_13h01.18.874,comp,2024.2.4,None,2025-02-18 13h01.48.519162 -0500,
42,42,0,critical,dwh,35.0,1.0,lower,70.0,70.0,57.0,133.0,133.0,57.0,3,3.1419665813446045,None,,,,,0,0,0,0,0,42,42,60,429.8348240852356,,,,,,,,,,,,,,,,,,,,,,,,,,,,,,,,,,,,,,,,,,,,,,,,,,,,,,,,,,,,,,,,,,,,,,,,,,,,,,,,,70.0,70.0,57.0,133.0,133.0,57.0,1.0,1.3,282,-260,480,-285,671,-253,429.8208637237549,429.820960521698,429.82447242736816,429.8348240852356,429.98699140548706,429.98699140548706,429.98699140548706,429.98699140548706,429.98699140548706,429.98699140548706,429.98699140548706,432.9962422847748,3,3.1419665813446045,None,,,,,,,,,,,,,,,,,,9,6,2025-02-18_13h01.18.874,comp,2024.2.4,None,2025-02-18 13h01.48.519162 -0500,
43,43,0,catch,None,None,None,None,None,None,None,None,None,None,2,1.4084010124206543,None,,,,,0,0,0,0,0,43,43,124,433.01633954048157,,,,,,,,,,,,,,,,,,,,,,,,,,,,,,,,,,,,,,,,,,,,,,,,,,,,,,,,,,,,,,,,,,,,,,,,,,,,,,,,,85,105,177,148,124,66,3.0,3.1,-222,265,0,18,203,-258,432.9981219768524,432.99822449684143,433.0010941028595,433.01633954048157,433.15059876441956,433.15059876441956,433.15059876441956,433.15059876441956,433.15059876441956,433.15059876441956,433.15059876441956,434.4384112358093,2,1.4084010124206543,None,,,,,,,,,,,,,,,,,,9,6,2025-02-18_13h01.18.874,comp,2024.2.4,None,2025-02-18 13h01.48.519162 -0500,
44,44,0,filler_square,None,None,None,None,None,None,None,None,None,None,1,2.9734530448913574,None,,,,,0,0,0,0,0,44,44,189,434.4602906703949,,,,,,,,,,,,,,,,,,,,,,,,,,,,,,,,,,,,,,,,,,,,,,,,,,,,,,,,,,,,,,,,,,,,,,,,,,,,,,,,,58.113500030541914,72.06427123824508,67.75734300028354,64.80785728553828,72.87203991957419,72.87203991957419,2.1,2.11,-164,266,0,261,165,-289,434.4403123855591,434.44039368629456,434.443701505661,434.4602906703949,434.6040503978729,434.6040503978729,434.6040503978729,434.6040503978729,434.6040503978729,434.6040503978729,434.6040503978729,437.4422535896301,1,2.9734530448913574,None,,,,,,,,,,,,,,,,,,9,6,2025-02-18_13h01.18.874,comp,2024.2.4,None,2025-02-18 13h01.48.519162 -0500,
45,45,0,critical,hwd,35.0,2.1,lower,133.0,57.0,57.0,133.0,70.0,70.0,1,4.329970598220825,None,,,,,0,0,0,0,0,45,45,16,437.4629817008972,,,,,,,,,,,,,,,,,,,,,,,,,,,,,,,,,,,,,,,,,,,,,,,,,,,,,,,,,,,,,,,,,,,,,,,,,,,,,,,,,133.0,57.0,57.0,133.0,70.0,70.0,2.1,2.11,-191,272,0,253,198,-254,437.44387650489807,437.4440059661865,437.44734263420105,437.4629817008972,437.6058917045593,437.6058917045593,437.6058917045593,437.6058917045593,437.6058917045593,437.6058917045593,437.6058917045593,441.8048849105835,1,4.329970598220825,None,,,,,,,,,,,,,,,,,,9,6,2025-02-18_13h01.18.874,comp,2024.2.4,None,2025-02-18 13h01.48.519162 -0500,
46,46,0,filler_random,None,None,None,None,None,None,None,None,None,None,2,8.220065593719482,None,,,,,0,0,0,0,0,46,46,162,441.8207790851593,,,,,,,,,,,,,,,,,,,,,,,,,,,,,,,,,,,,,,,,,,,,,,,,,,,,,,,,,,,,,,,,,,,,,,,,,,,,,,,,,143.93574509398047,74.37743204692151,167.38415157324067,110.82902862105206,159.22703058508236,108.23318256276585,1.0,1.3,291,-279,480,-283,686,-275,441.80661845207214,441.80674171447754,441.80999088287354,441.8207790851593,441.97620368003845,441.97620368003845,441.97620368003845,441.97620368003845,441.97620368003845,441.97620368003845,441.97620368003845,450.0441942214966,2,8.220065593719482,None,,,,,,,,,,,,,,,,,,9,6,2025-02-18_13h01.18.874,comp,2024.2.4,None,2025-02-18 13h01.48.519162 -0500,
47,47,0,critical,dhw,20.0,1.0,lower,78.0,78.0,133.0,57.0,57.0,133.0,3,3.3496415615081787,None,,,,,0,0,0,0,0,47,47,54,450.0599081516266,,,,,,,,,,,,,,,,,,,,,,,,,,,,,,,,,,,,,,,,,,,,,,,,,,,,,,,,,,,,,,,,,,,,,,,,,,,,,,,,,78.0,78.0,133.0,57.0,57.0,133.0,1.0,1.1,-644,287,-480,278,-289,283,450.04585814476013,450.04593682289124,450.04907274246216,450.0599081516266,450.20924615859985,450.20924615859985,450.20924615859985,450.20924615859985,450.20924615859985,450.20924615859985,450.20924615859985,453.41229009628296,3,3.3496415615081787,None,,,,,,,,,,,,,,,,,,9,6,2025-02-18_13h01.18.874,comp,2024.2.4,None,2025-02-18 13h01.48.519162 -0500,
48,48,0,filler_random,None,None,None,None,None,None,None,None,None,None,3,1.3714048862457275,None,,,,,0,0,0,0,0,48,48,144,453.429496049881,,,,,,,,,,,,,,,,,,,,,,,,,,,,,,,,,,,,,,,,,,,,,,,,,,,,,,,,,,,,,,,,,,,,,,,,,,,,,,,,,122.2473036236318,68.62743826305423,114.65927028881578,73.05342204188602,147.2535607911248,131.40861370142804,4.0,4.1,-167,-264,0,7,198,-272,453.41414046287537,453.4143121242523,453.41766238212585,453.429496049881,453.57704043388367,453.57704043388367,453.57704043388367,453.57704043388367,453.57704043388367,453.57704043388367,453.57704043388367,454.81365871429443,3,1.3714048862457275,None,,,,,,,,,,,,,,,,,,9,6,2025-02-18_13h01.18.874,comp,2024.2.4,None,2025-02-18 13h01.48.519162 -0500,
49,49,0,critical,dhw,35.0,1.0,lower,70.0,70.0,133.0,57.0,57.0,133.0,3,2.2591915130615234,None,,,,,0,0,0,0,0,49,49,48,454.8295135498047,,,,,,,,,,,,,,,,,,,,,,,,,,,,,,,,,,,,,,,,,,,,,,,,,,,,,,,,,,,,,,,,,,,,,,,,,,,,,,,,,70.0,70.0,133.0,57.0,57.0,133.0,1.0,1.1,-640,285,-480,255,-289,262,454.8154296875,454.8155446052551,454.8188478946686,454.8295135498047,454.9754569530487,454.9754569530487,454.9754569530487,454.9754569530487,454.9754569530487,454.9754569530487,454.9754569530487,457.10022473335266,3,2.2591915130615234,None,,,,,,,,,,,,,,,,,,9,6,2025-02-18_13h01.18.874,comp,2024.2.4,None,2025-02-18 13h01.48.519162 -0500,
50,50,0,critical,wdh,35.0,2.1,upper,125.0,200.0,127.0,127.0,200.0,125.0,1,2.0351402759552,None,,,,,0,0,0,0,0,50,50,9,457.11754751205444,,,,,,,,,,,,,,,,,,,,,,,,,,,,,,,,,,,,,,,,,,,,,,,,,,,,,,,,,,,,,,,,,,,,,,,,,,,,,,,,,125.0,200.0,127.0,127.0,200.0,125.0,2.1,2.11,-260,251,0,256,222,-278,457.10181522369385,457.1018943786621,457.105224609375,457.11754751205444,457.25817370414734,457.25817370414734,457.25817370414734,457.25817370414734,457.25817370414734,457.25817370414734,457.25817370414734,459.1621973514557,1,2.0351402759552,None,,,,,,,,,,,,,,,,,,9,6,2025-02-18_13h01.18.874,comp,2024.2.4,None,2025-02-18 13h01.48.519162 -0500,
51,51,0,filler_square,None,None,None,None,None,None,None,None,None,None,1,2.0785276889801025,None,,,,,0,0,0,0,0,51,51,195,459.178852558136,,,,,,,,,,,,,,,,,,,,,,,,,,,,,,,,,,,,,,,,,,,,,,,,,,,,,,,,,,,,,,,,,,,,,,,,,,,,,,,,,97.30100989798196,71.17114642788754,101.08588985766453,101.08588985766453,74.0335910459891,80.77855261724085,2.1,2.11,-182,285,0,289,187,-270,459.1640582084656,459.1641380786896,459.1681878566742,459.178852558136,459.32676434516907,459.32676434516907,459.32676434516907,459.32676434516907,459.32676434516907,459.32676434516907,459.32676434516907,461.2595579624176,1,2.0785276889801025,None,,,,,,,,,,,,,,,,,,9,6,2025-02-18_13h01.18.874,comp,2024.2.4,None,2025-02-18 13h01.48.519162 -0500,
52,52,0,critical,dwh,35.0,2.1,upper,127.0,127.0,125.0,200.0,200.0,125.0,2,2.324323892593384,None,,,,,0,0,0,0,0,52,52,5,461.2764446735382,,,,,,,,,,,,,,,,,,,,,,,,,,,,,,,,,,,,,,,,,,,,,,,,,,,,,,,,,,,,,,,,,,,,,,,,,,,,,,,,,127.0,127.0,125.0,200.0,200.0,125.0,2.1,2.12,-260,-275,0,-283,258,285,461.2611813545227,461.2613160610199,461.2646996974945,461.2764446735382,461.41726660728455,461.41726660728455,461.41726660728455,461.41726660728455,461.41726660728455,461.41726660728455,461.41726660728455,463.61564588546753,2,2.324323892593384,None,,,,,,,,,,,,,,,,,,9,6,2025-02-18_13h01.18.874,comp,2024.2.4,None,2025-02-18 13h01.48.519162 -0500,
53,53,0,critical,wdh,35.0,2.1,lower,57.0,133.0,70.0,70.0,133.0,57.0,1,3.2813754081726074,None,,,,,0,0,0,0,0,53,53,8,463.63139295578003,,,,,,,,,,,,,,,,,,,,,,,,,,,,,,,,,,,,,,,,,,,,,,,,,,,,,,,,,,,,,,,,,,,,,,,,,,,,,,,,,57.0,133.0,70.0,70.0,133.0,57.0,2.1,2.12,-198,-289,0,-253,160,250,463.617383480072,463.6174657344818,463.6207444667816,463.63139295578003,463.7805790901184,463.7805790901184,463.7805790901184,463.7805790901184,463.7805790901184,463.7805790901184,463.7805790901184,466.91567826271057,1,3.2813754081726074,None,,,,,,,,,,,,,,,,,,9,6,2025-02-18_13h01.18.874,comp,2024.2.4,None,2025-02-18 13h01.48.519162 -0500,
54,54,0,critical,dhw,35.0,2.1,upper,127.0,127.0,200.0,125.0,125.0,200.0,3,1.836665391921997,None,,,,,0,0,0,0,0,54,54,25,466.93203926086426,,,,,,,,,,,,,,,,,,,,,,,,,,,,,,,,,,,,,,,,,,,,,,,,,,,,,,,,,,,,,,,,,,,,,,,,,,,,,,,,,127.0,127.0,200.0,125.0,125.0,200.0,2.1,2.11,-222,285,0,281,258,-279,466.9174213409424,466.91751170158386,466.92106461524963,466.93203926086426,467.0811288356781,467.0811288356781,467.0811288356781,467.0811288356781,467.0811288356781,467.0811288356781,467.0811288356781,468.7829475402832,3,1.836665391921997,None,,,,,,,,,,,,,,,,,,9,6,2025-02-18_13h01.18.874,comp,2024.2.4,None,2025-02-18 13h01.48.519162 -0500,
55,55,0,critical,hwd,20.0,2.1,upper,200.0,125.0,125.0,200.0,141.0,141.0,1,1.6585397720336914,None,,,,,0,0,0,0,0,55,55,19,468.79912781715393,,,,,,,,,,,,,,,,,,,,,,,,,,,,,,,,,,,,,,,,,,,,,,,,,,,,,,,,,,,,,,,,,,,,,,,,,,,,,,,,,200.0,125.0,125.0,200.0,141.0,141.0,2.1,2.12,-258,-279,0,-256,266,285,468.78463888168335,468.7847316265106,468.7886698246002,468.79912781715393,468.9468502998352,468.9468502998352,468.9468502998352,468.9468502998352,468.9468502998352,468.9468502998352,468.9468502998352,470.46578907966614,1,1.6585397720336914,None,,,,,,,,,,,,,,,,,,9,6,2025-02-18_13h01.18.874,comp,2024.2.4,None,2025-02-18 13h01.48.519162 -0500,
56,56,0,critical,dwh,20.0,2.1,lower,78.0,78.0,57.0,133.0,133.0,57.0,3,2.1905198097229004,None,,,,,0,0,0,0,0,56,56,30,470.4822463989258,,,,,,,,,,,,,,,,,,,,,,,,,,,,,,,,,,,,,,,,,,,,,,,,,,,,,,,,,,,,,,,,,,,,,,,,,,,,,,,,,78.0,78.0,57.0,133.0,133.0,57.0,2.1,2.12,-202,-268,0,-265,191,252,470.4674096107483,470.46748781204224,470.47130608558655,470.4822463989258,470.6317102909088,470.6317102909088,470.6317102909088,470.6317102909088,470.6317102909088,470.6317102909088,470.6317102909088,472.69119358062744,3,2.1905198097229004,None,,,,,,,,,,,,,,,,,,9,6,2025-02-18_13h01.18.874,comp,2024.2.4,None,2025-02-18 13h01.48.519162 -0500,
57,57,0,filler_square,None,None,None,None,None,None,None,None,None,None,3,2.516470432281494,None,,,,,0,0,0,0,0,57,57,202,472.7085175514221,,,,,,,,,,,,,,,,,,,,,,,,,,,,,,,,,,,,,,,,,,,,,,,,,,,,,,,,,,,,,,,,,,,,,,,,,,,,,,,,,126.80423108780128,126.80423108780128,82.95062465045298,99.18930147768475,122.59653626557618,78.3123947537775,3.0,3.2,-209,-283,0,3,185,264,472.6929280757904,472.6930022239685,472.6958281993866,472.7085175514221,472.8497459888458,472.8497459888458,472.8497459888458,472.8497459888458,472.8497459888458,472.8497459888458,472.8497459888458,475.23520827293396,3,2.516470432281494,None,,,,,,,,,,,,,,,,,,9,6,2025-02-18_13h01.18.874,comp,2024.2.4,None,2025-02-18 13h01.48.519162 -0500,
58,58,0,critical,wdh,35.0,3.0,lower,57.0,133.0,70.0,70.0,133.0,57.0,1,2.8058760166168213,None,,,,,0,0,0,0,0,58,58,74,475.2509551048279,,,,,,,,,,,,,,,,,,,,,,,,,,,,,,,,,,,,,,,,,,,,,,,,,,,,,,,,,,,,,,,,,,,,,,,,,,,,,,,,,57.0,133.0,70.0,70.0,133.0,57.0,3.0,3.2,-198,-265,0,17,160,277,475.23670983314514,475.2367844581604,475.24006843566895,475.2509551048279,475.40032172203064,475.40032172203064,475.40032172203064,475.40032172203064,475.40032172203064,475.40032172203064,475.40032172203064,478.0676715373993,1,2.8058760166168213,None,,,,,,,,,,,,,,,,,,9,6,2025-02-18_13h01.18.874,comp,2024.2.4,None,2025-02-18 13h01.48.519162 -0500,
59,59,0,critical,hdw,35.0,3.0,upper,200.0,125.0,127.0,127.0,125.0,200.0,3,2.1969313621520996,None,,,,,0,0,0,0,0,59,59,111,478.08406233787537,,,,,,,,,,,,,,,,,,,,,,,,,,,,,,,,,,,,,,,,,,,,,,,,,,,,,,,,,,,,,,,,,,,,,,,,,,,,,,,,,200.0,125.0,127.0,127.0,125.0,200.0,3.0,3.1,-222,282,0,14,260,-272,478.06927013397217,478.0693452358246,478.0728702545166,478.08406233787537,478.2332887649536,478.2332887649536,478.2332887649536,478.2332887649536,478.2332887649536,478.2332887649536,478.2332887649536,480.28614139556885,3,2.1969313621520996,None,,,,,,,,,,,,,,,,,,9,6,2025-02-18_13h01.18.874,comp,2024.2.4,None,2025-02-18 13h01.48.519162 -0500,
60,60,0,critical,dwh,20.0,3.0,upper,141.0,141.0,125.0,200.0,200.0,125.0,2,4.086609601974487,None,,,,,0,0,0,0,0,60,60,69,480.30625224113464,,,,,,,,,,,,,,,,,,,,,,,,,,,,,,,,,,,,,,,,,,,,,,,,,,,,,,,,,,,,,,,,,,,,,,,,,,,,,,,,,141.0,141.0,125.0,200.0,200.0,125.0,3.0,3.2,-266,-261,0,-10,258,264,480.28762125968933,480.28769755363464,480.2909369468689,480.30625224113464,480.45159220695496,480.45159220695496,480.45159220695496,480.45159220695496,480.45159220695496,480.45159220695496,480.45159220695496,484.4106194972992,2,4.086609601974487,None,,,,,,,,,,,,,,,,,,9,6,2025-02-18_13h01.18.874,comp,2024.2.4,None,2025-02-18 13h01.48.519162 -0500,
61,61,0,filler_random,None,None,None,None,None,None,None,None,None,None,3,1.484039545059204,None,,,,,0,0,0,0,0,61,61,161,484.4307265281677,,,,,,,,,,,,,,,,,,,,,,,,,,,,,,,,,,,,,,,,,,,,,,,,,,,,,,,,,,,,,,,,,,,,,,,,,,,,,,,,,130.05518794677252,65.43991128739333,117.43006736048363,64.71667796379671,140.63475099474954,191.4084026012391,3.0,3.1,-161,254,0,18,224,-283,484.41233253479004,484.4124114513397,484.4153320789337,484.4307265281677,484.570095539093,484.570095539093,484.570095539093,484.570095539093,484.570095539093,484.570095539093,484.570095539093,485.920716047287,3,1.484039545059204,None,,,,,,,,,,,,,,,,,,9,6,2025-02-18_13h01.18.874,comp,2024.2.4,None,2025-02-18 13h01.48.519162 -0500,
62,62,0,critical,dhw,20.0,2.1,upper,141.0,141.0,200.0,125.0,125.0,200.0,2,2.7421669960021973,None,,,,,0,0,0,0,0,62,62,3,485.939085483551,,,,,,,,,,,,,,,,,,,,,,,,,,,,,,,,,,,,,,,,,,,,,,,,,,,,,,,,,,,,,,,,,,,,,,,,,,,,,,,,,141.0,141.0,200.0,125.0,125.0,200.0,2.1,2.12,-229,-254,0,-273,258,257,485.922789812088,485.92287039756775,485.92607378959656,485.939085483551,486.0744354724884,486.0744354724884,486.0744354724884,486.0744354724884,486.0744354724884,486.0744354724884,486.0744354724884,488.6868095397949,2,2.7421669960021973,None,,,,,,,,,,,,,,,,,,9,6,2025-02-18_13h01.18.874,comp,2024.2.4,None,2025-02-18 13h01.48.519162 -0500,
63,63,0,filler_square,None,None,None,None,None,None,None,None,None,None,3,2.7049617767333984,None,,,,,0,0,0,0,0,63,63,184,488.7041254043579,,,,,,,,,,,,,,,,,,,,,,,,,,,,,,,,,,,,,,,,,,,,,,,,,,,,,,,,,,,,,,,,,,,,,,,,,,,,,,,,,71.97389994594936,79.31341024768565,88.03468667388361,88.03468667388361,67.35300572026611,83.93260680940787,3.0,3.1,-180,283,0,-5,182,-253,488.6888864040375,488.6889696121216,488.6924057006836,488.7041254043579,488.8567388057709,488.8567388057709,488.8567388057709,488.8567388057709,488.8567388057709,488.8567388057709,488.8567388057709,491.4298822879791,3,2.7049617767333984,None,,,,,,,,,,,,,,,,,,9,6,2025-02-18_13h01.18.874,comp,2024.2.4,None,2025-02-18 13h01.48.519162 -0500,
64,64,0,filler_random,None,None,None,None,None,None,None,None,None,None,3,2.0478692054748535,None,,,,,0,0,0,0,0,64,64,132,491.44918417930603,,,,,,,,,,,,,,,,,,,,,,,,,,,,,,,,,,,,,,,,,,,,,,,,,,,,,,,,,,,,,,,,,,,,,,,,,,,,,,,,,143.1688283033737,154.38936184421908,140.50238034735276,113.82031356443593,166.99966221951468,119.66367205711808,3.0,3.1,-230,254,0,11,213,-270,491.4316563606262,491.43173480033875,491.4346442222595,491.44918417930603,491.5874469280243,491.5874469280243,491.5874469280243,491.5874469280243,491.5874469280243,491.5874469280243,491.5874469280243,493.50840520858765,3,2.0478692054748535,None,,,,,,,,,,,,,,,,,,9,6,2025-02-18_13h01.18.874,comp,2024.2.4,None,2025-02-18 13h01.48.519162 -0500,
65,65,0,filler_random,None,None,None,None,None,None,None,None,None,None,3,1.324295997619629,None,,,,,0,0,0,0,0,65,65,157,493.5245521068573,,,,,,,,,,,,,,,,,,,,,,,,,,,,,,,,,,,,,,,,,,,,,,,,,,,,,,,,,,,,,,,,,,,,,,,,,,,,,,,,,81.30521181219247,137.4804387508416,76.70769312798652,150.76613142126803,163.11717180640292,148.45717880531078,1.0,1.1,-720,285,-480,264,-234,281,493.5107400417328,493.51087260246277,493.513783454895,493.5245521068573,493.6710321903229,493.6710321903229,493.6710321903229,493.6710321903229,493.6710321903229,493.6710321903229,493.6710321903229,494.8587820529938,3,1.324295997619629,None,,,,,,,,,,,,,,,,,,9,6,2025-02-18_13h01.18.874,comp,2024.2.4,None,2025-02-18 13h01.48.519162 -0500,
66,66,0,catch,None,None,None,None,None,None,None,None,None,None,1,3.4302961826324463,None,,,,,0,0,0,0,0,66,66,125,494.87520956993103,,,,,,,,,,,,,,,,,,,,,,,,,,,,,,,,,,,,,,,,,,,,,,,,,,,,,,,,,,,,,,,,,,,,,,,,,,,,,,,,,155,170,100,90,96,94,2.1,2.11,-226,264,0,261,188,-252,494.8615107536316,494.8615925312042,494.8645451068878,494.87520956993103,495.0231189727783,495.0231189727783,495.0231189727783,495.0231189727783,495.0231189727783,495.0231189727783,495.0231189727783,498.3080372810364,1,3.4302961826324463,None,,,,,,,,,,,,,,,,,,9,6,2025-02-18_13h01.18.874,comp,2024.2.4,None,2025-02-18 13h01.48.519162 -0500,
67,67,0,critical,hwd,20.0,2.1,lower,133.0,57.0,57.0,133.0,78.0,78.0,1,3.916588068008423,None,,,,,0,0,0,0,0,67,67,18,498.3243055343628,,,,,,,,,,,,,,,,,,,,,,,,,,,,,,,,,,,,,,,,,,,,,,,,,,,,,,,,,,,,,,,,,,,,,,,,,,,,,,,,,133.0,57.0,57.0,133.0,78.0,78.0,2.1,2.12,-191,-288,0,-250,202,255,498.30957293510437,498.3096516132355,498.3126723766327,498.3243055343628,498.4803273677826,498.4803273677826,498.4803273677826,498.4803273677826,498.4803273677826,498.4803273677826,498.4803273677826,502.2573444843292,1,3.916588068008423,None,,,,,,,,,,,,,,,,,,9,6,2025-02-18_13h01.18.874,comp,2024.2.4,None,2025-02-18 13h01.48.519162 -0500,
68,68,0,critical,whd,20.0,2.1,lower,57.0,133.0,133.0,57.0,78.0,78.0,1,2.051680326461792,None,,,,,0,0,0,0,0,68,68,14,502.2772443294525,,,,,,,,,,,,,,,,,,,,,,,,,,,,,,,,,,,,,,,,,,,,,,,,,,,,,,,,,,,,,,,,,,,,,,,,,,,,,,,,,57.0,133.0,133.0,57.0,78.0,78.0,2.1,2.11,-191,270,0,255,164,-253,502.258825302124,502.25889897346497,502.26184940338135,502.2772443294525,502.41140699386597,502.41140699386597,502.41140699386597,502.41140699386597,502.41140699386597,502.41140699386597,502.41140699386597,504.3426032066345,1,2.051680326461792,None,,,,,,,,,,,,,,,,,,9,6,2025-02-18_13h01.18.874,comp,2024.2.4,None,2025-02-18 13h01.48.519162 -0500,
69,69,0,critical,wdh,35.0,4.0,lower,57.0,133.0,70.0,70.0,133.0,57.0,3,1.960744857788086,None,,,,,0,0,0,0,0,69,69,76,504.3608431816101,,,,,,,,,,,,,,,,,,,,,,,,,,,,,,,,,,,,,,,,,,,,,,,,,,,,,,,,,,,,,,,,,,,,,,,,,,,,,,,,,57.0,133.0,70.0,70.0,133.0,57.0,4.0,4.1,-198,-268,0,-18,160,-252,504.3440480232239,504.3441233634949,504.3472797870636,504.3608431816101,504.4974501132965,504.4974501132965,504.4974501132965,504.4974501132965,504.4974501132965,504.4974501132965,504.4974501132965,506.3286941051483,3,1.960744857788086,None,,,,,,,,,,,,,,,,,,9,6,2025-02-18_13h01.18.874,comp,2024.2.4,None,2025-02-18 13h01.48.519162 -0500,
70,70,0,critical,wdh,20.0,3.0,upper,125.0,200.0,141.0,141.0,200.0,125.0,1,2.1768686771392822,None,,,,,0,0,0,0,0,70,70,81,506.34483671188354,,,,,,,,,,,,,,,,,,,,,,,,,,,,,,,,,,,,,,,,,,,,,,,,,,,,,,,,,,,,,,,,,,,,,,,,,,,,,,,,,125.0,200.0,141.0,141.0,200.0,125.0,3.0,3.2,-266,-281,0,8,229,260,506.33030438423157,506.3304007053375,506.3336923122406,506.34483671188354,506.4960720539093,506.4960720539093,506.4960720539093,506.4960720539093,506.4960720539093,506.4960720539093,506.4960720539093,508.5276916027069,1,2.1768686771392822,None,,,,,,,,,,,,,,,,,,9,6,2025-02-18_13h01.18.874,comp,2024.2.4,None,2025-02-18 13h01.48.519162 -0500,
71,71,0,critical,hwd,35.0,2.1,upper,200.0,125.0,125.0,200.0,127.0,127.0,2,2.1283788681030273,None,,,,,0,0,0,0,0,71,71,17,508.54439067840576,,,,,,,,,,,,,,,,,,,,,,,,,,,,,,,,,,,,,,,,,,,,,,,,,,,,,,,,,,,,,,,,,,,,,,,,,,,,,,,,,200.0,125.0,125.0,200.0,127.0,127.0,2.1,2.12,-258,-289,0,-264,260,252,508.52929615974426,508.5294167995453,508.5335810184479,508.54439067840576,508.69400215148926,508.69400215148926,508.69400215148926,508.69400215148926,508.69400215148926,508.69400215148926,508.69400215148926,510.69087076187134,2,2.1283788681030273,None,,,,,,,,,,,,,,,,,,9,6,2025-02-18_13h01.18.874,comp,2024.2.4,None,2025-02-18 13h01.48.519162 -0500,
72,72,0,filler_random,None,None,None,None,None,None,None,None,None,None,2,8.198455810546875,None,,,,,0,0,0,0,0,72,72,156,510.7065796852112,,,,,,,,,,,,,,,,,,,,,,,,,,,,,,,,,,,,,,,,,,,,,,,,,,,,,,,,,,,,,,,,,,,,,,,,,,,,,,,,,113.75947302571034,125.08304776288382,84.97264197689198,112.611919692154,166.13395675013345,166.6468322859349,4.0,4.1,-215,-287,0,-10,236,-282,510.6926517486572,510.69276428222656,510.6960916519165,510.7065796852112,510.84481024742126,510.84481024742126,510.84481024742126,510.84481024742126,510.84481024742126,510.84481024742126,510.84481024742126,518.9166069030762,2,8.198455810546875,None,,,,,,,,,,,,,,,,,,9,6,2025-02-18_13h01.18.874,comp,2024.2.4,None,2025-02-18 13h01.48.519162 -0500,
73,73,0,filler_random,None,None,None,None,None,None,None,None,None,None,3,3.850048303604126,None,,,,,0,0,0,0,0,73,73,139,518.9347279071808,,,,,,,,,,,,,,,,,,,,,,,,,,,,,,,,,,,,,,,,,,,,,,,,,,,,,,,,,,,,,,,,,,,,,,,,,,,,,,,,,156.7552298513135,134.4191056111846,154.31336214828093,161.27653592291122,171.16023333046047,125.00619790053526,1.0,1.3,236,-266,480,-283,719,-263,518.9185614585876,518.9186415672302,518.921546459198,518.9347279071808,519.0809004306793,519.0809004306793,519.0809004306793,519.0809004306793,519.0809004306793,519.0809004306793,519.0809004306793,522.8017375469208,3,3.850048303604126,None,,,,,,,,,,,,,,,,,,9,6,2025-02-18_13h01.18.874,comp,2024.2.4,None,2025-02-18 13h01.48.519162 -0500,
74,74,0,critical,whd,20.0,2.1,upper,125.0,200.0,200.0,125.0,141.0,141.0,2,2.983271837234497,None,,,,,0,0,0,0,0,74,74,15,522.8175320625305,,,,,,,,,,,,,,,,,,,,,,,,,,,,,,,,,,,,,,,,,,,,,,,,,,,,,,,,,,,,,,,,,,,,,,,,,,,,,,,,,125.0,200.0,200.0,125.0,141.0,141.0,2.1,2.12,-258,-287,0,-277,229,275,522.8033030033112,522.8033771514893,522.8071784973145,522.8175320625305,522.9644918441772,522.9644918441772,522.9644918441772,522.9644918441772,522.9644918441772,522.9644918441772,522.9644918441772,525.8167681694031,2,2.983271837234497,None,,,,,,,,,,,,,,,,,,9,6,2025-02-18_13h01.18.874,comp,2024.2.4,None,2025-02-18 13h01.48.519162 -0500,
75,75,0,critical,dwh,35.0,4.0,upper,127.0,127.0,125.0,200.0,200.0,125.0,3,3.265289306640625,None,,,,,0,0,0,0,0,75,75,65,525.8320157527924,,,,,,,,,,,,,,,,,,,,,,,,,,,,,,,,,,,,,,,,,,,,,,,,,,,,,,,,,,,,,,,,,,,,,,,,,,,,,,,,,127.0,127.0,125.0,200.0,200.0,125.0,4.0,4.1,-260,-258,0,-5,258,-262,525.8182272911072,525.8183012008667,525.821724653244,525.8320157527924,525.981467962265,525.981467962265,525.981467962265,525.981467962265,525.981467962265,525.981467962265,525.981467962265,529.0997426509857,3,3.265289306640625,None,,,,,,,,,,,,,,,,,,9,6,2025-02-18_13h01.18.874,comp,2024.2.4,None,2025-02-18 13h01.48.519162 -0500,
76,76,0,filler_square,None,None,None,None,None,None,None,None,None,None,3,2.7320194244384766,None,,,,,0,0,0,0,0,76,76,192,529.1168775558472,,,,,,,,,,,,,,,,,,,,,,,,,,,,,,,,,,,,,,,,,,,,,,,,,,,,,,,,,,,,,,,,,,,,,,,,,,,,,,,,,146.52799574554493,151.15198640167108,184.7055620399737,184.7055620399737,166.6739535169694,100.10787004852119,1.0,1.1,-744,286,-480,260,-242,264,529.1015937328339,529.1016752719879,529.1048147678375,529.1168775558472,529.2677142620087,529.2677142620087,529.2677142620087,529.2677142620087,529.2677142620087,529.2677142620087,529.2677142620087,531.8522901535034,3,2.7320194244384766,None,,,,,,,,,,,,,,,,,,9,6,2025-02-18_13h01.18.874,comp,2024.2.4,None,2025-02-18 13h01.48.519162 -0500,
77,77,0,critical,hdw,20.0,2.1,lower,133.0,57.0,78.0,78.0,57.0,133.0,3,2.0050547122955322,None,,,,,0,0,0,0,0,77,77,46,531.8682305812836,,,,,,,,,,,,,,,,,,,,,,,,,,,,,,,,,,,,,,,,,,,,,,,,,,,,,,,,,,,,,,,,,,,,,,,,,,,,,,,,,133.0,57.0,78.0,78.0,57.0,133.0,2.1,2.12,-164,-269,0,-285,202,255,531.8538658618927,531.8539471626282,531.8574321269989,531.8682305812836,532.016369342804,532.016369342804,532.016369342804,532.016369342804,532.016369342804,532.016369342804,532.016369342804,533.8768939971924,3,2.0050547122955322,None,,,,,,,,,,,,,,,,,,9,6,2025-02-18_13h01.18.874,comp,2024.2.4,None,2025-02-18 13h01.48.519162 -0500,
78,78,0,filler_square,None,None,None,None,None,None,None,None,None,None,1,2.6117231845855713,None,,,,,0,0,0,0,0,78,78,196,533.8935997486115,,,,,,,,,,,,,,,,,,,,,,,,,,,,,,,,,,,,,,,,,,,,,,,,,,,,,,,,,,,,,,,,,,,,,,,,,,,,,,,,,80.91449001712625,141.85105549220071,92.96664287769293,60.99365638757508,162.3569837085481,162.3569837085481,1.0,1.2,-197,-1,0,12,208,-11,533.8787002563477,533.8787820339203,533.8818774223328,533.8935997486115,534.0359039306641,534.0359039306641,534.0359039306641,534.0359039306641,534.0359039306641,534.0359039306641,534.0359039306641,536.5264399051666,1,2.6117231845855713,None,,,,,,,,,,,,,,,,,,9,6,2025-02-18_13h01.18.874,comp,2024.2.4,None,2025-02-18 13h01.48.519162 -0500,
79,79,0,critical,wdh,35.0,1.0,upper,125.0,200.0,127.0,127.0,200.0,125.0,1,2.7841944694519043,None,,,,,0,0,0,0,0,79,79,73,536.546124458313,,,,,,,,,,,,,,,,,,,,,,,,,,,,,,,,,,,,,,,,,,,,,,,,,,,,,,,,,,,,,,,,,,,,,,,,,,,,,,,,,125.0,200.0,127.0,127.0,200.0,125.0,1.0,1.1,-740,270,-480,256,-258,285,536.5279006958008,536.527991771698,536.5308690071106,536.546124458313,536.6868231296539,536.6868231296539,536.6868231296539,536.6868231296539,536.6868231296539,536.6868231296539,536.6868231296539,539.3358423709869,1,2.7841944694519043,None,,,,,,,,,,,,,,,,,,9,6,2025-02-18_13h01.18.874,comp,2024.2.4,None,2025-02-18 13h01.48.519162 -0500,
80,80,0,critical,dhw,35.0,4.0,upper,127.0,127.0,200.0,125.0,125.0,200.0,3,1.9686048030853271,None,,,,,0,0,0,0,0,80,80,53,539.3522517681122,,,,,,,,,,,,,,,,,,,,,,,,,,,,,,,,,,,,,,,,,,,,,,,,,,,,,,,,,,,,,,,,,,,,,,,,,,,,,,,,,127.0,127.0,200.0,125.0,125.0,200.0,4.0,4.2,-222,-6,0,-288,258,-17,539.337316274643,539.3373923301697,539.3404014110565,539.3522517681122,539.490247964859,539.490247964859,539.490247964859,539.490247964859,539.490247964859,539.490247964859,539.490247964859,541.340882062912,3,1.9686048030853271,None,,,,,,,,,,,,,,,,,,9,6,2025-02-18_13h01.18.874,comp,2024.2.4,None,2025-02-18 13h01.48.519162 -0500,
81,81,0,filler_square,None,None,None,None,None,None,None,None,None,None,1,10.500150918960571,None,,,,,0,0,0,0,0,81,81,209,541.3572254180908,,,,,,,,,,,,,,,,,,,,,,,,,,,,,,,,,,,,,,,,,,,,,,,,,,,,,,,,,,,,,,,,,,,,,,,,,,,,,,,,,62.14287867811154,62.14287867811154,58.056127311599695,60.676574027642516,57.56881517951883,58.26739508334777,4.0,4.2,-157,18,0,-286,155,9,541.3428726196289,541.34294962883,541.3464453220367,541.3572254180908,541.5051338672638,541.5051338672638,541.5051338672638,541.5051338672638,541.5051338672638,541.5051338672638,541.5051338672638,551.8668584823608,1,10.500150918960571,None,,,,,,,,,,,,,,,,,,9,6,2025-02-18_13h01.18.874,comp,2024.2.4,None,2025-02-18 13h01.48.519162 -0500,
82,82,0,critical,whd,35.0,3.0,upper,125.0,200.0,200.0,125.0,127.0,127.0,1,3.4920766353607178,None,,,,,0,0,0,0,0,82,82,87,551.8849697113037,,,,,,,,,,,,,,,,,,,,,,,,,,,,,,,,,,,,,,,,,,,,,,,,,,,,,,,,,,,,,,,,,,,,,,,,,,,,,,,,,125.0,200.0,200.0,125.0,127.0,127.0,3.0,3.1,-258,288,0,12,222,-277,551.8684566020966,551.8685336112976,551.8718023300171,551.8849697113037,552.0248701572418,552.0248701572418,552.0248701572418,552.0248701572418,552.0248701572418,552.0248701572418,552.0248701572418,555.3923971652985,1,3.4920766353607178,None,,,,,,,,,,,,,,,,,,9,6,2025-02-18_13h01.18.874,comp,2024.2.4,None,2025-02-18 13h01.48.519162 -0500,
83,83,0,catch,None,None,None,None,None,None,None,None,None,None,3,1.1450209617614746,None,,,,,0,0,0,0,0,83,83,128,555.4087655544281,,,,,,,,,,,,,,,,,,,,,,,,,,,,,,,,,,,,,,,,,,,,,,,,,,,,,,,,,,,,,,,,,,,,,,,,,,,,,,,,,83,107,64,126,196,129,1.0,1.2,-212,1,0,-13,224,11,555.3942604064941,555.3943359851837,555.3985097408295,555.4087655544281,555.5600039958954,555.5600039958954,555.5600039958954,555.5600039958954,555.5600039958954,555.5600039958954,555.5600039958954,556.5597696304321,3,1.1450209617614746,None,,,,,,,,,,,,,,,,,,9,6,2025-02-18_13h01.18.874,comp,2024.2.4,None,2025-02-18 13h01.48.519162 -0500,
84,84,0,critical,wdh,20.0,4.0,upper,125.0,200.0,141.0,141.0,200.0,125.0,3,1.5185742378234863,None,,,,,0,0,0,0,0,84,84,83,556.5782046318054,,,,,,,,,,,,,,,,,,,,,,,,,,,,,,,,,,,,,,,,,,,,,,,,,,,,,,,,,,,,,,,,,,,,,,,,,,,,,,,,,125.0,200.0,141.0,141.0,200.0,125.0,4.0,4.2,-266,0,0,-261,229,11,556.5613677501678,556.5614461898804,556.5648276805878,556.5782046318054,556.7264566421509,556.7264566421509,556.7264566421509,556.7264566421509,556.7264566421509,556.7264566421509,556.7264566421509,558.1109192371368,3,1.5185742378234863,None,,,,,,,,,,,,,,,,,,9,6,2025-02-18_13h01.18.874,comp,2024.2.4,None,2025-02-18 13h01.48.519162 -0500,
85,85,0,critical,hdw,35.0,2.1,upper,200.0,125.0,127.0,127.0,125.0,200.0,3,1.4910194873809814,None,,,,,0,0,0,0,0,85,85,45,558.12682056427,,,,,,,,,,,,,,,,,,,,,,,,,,,,,,,,,,,,,,,,,,,,,,,,,,,,,,,,,,,,,,,,,,,,,,,,,,,,,,,,,200.0,125.0,127.0,127.0,125.0,200.0,2.1,2.11,-222,259,0,276,260,-280,558.1125018596649,558.1125798225403,558.1158215999603,558.12682056427,558.272579908371,558.272579908371,558.272579908371,558.272579908371,558.272579908371,558.272579908371,558.272579908371,559.625739812851,3,1.4910194873809814,None,,,,,,,,,,,,,,,,,,9,6,2025-02-18_13h01.18.874,comp,2024.2.4,None,2025-02-18 13h01.48.519162 -0500,
86,86,0,critical,hwd,20.0,2.1,upper,200.0,125.0,125.0,200.0,141.0,141.0,2,2.4704387187957764,None,,,,,0,0,0,0,0,86,86,43,559.6430332660675,,,,,,,,,,,,,,,,,,,,,,,,,,,,,,,,,,,,,,,,,,,,,,,,,,,,,,,,,,,,,,,,,,,,,,,,,,,,,,,,,200.0,125.0,125.0,200.0,141.0,141.0,2.1,2.12,-258,-270,0,-286,266,258,559.6273701190948,559.6274473667145,559.6308000087738,559.6430332660675,559.7995066642761,559.7995066642761,559.7995066642761,559.7995066642761,559.7995066642761,559.7995066642761,559.7995066642761,562.1218028068542,2,2.4704387187957764,None,,,,,,,,,,,,,,,,,,9,6,2025-02-18_13h01.18.874,comp,2024.2.4,None,2025-02-18 13h01.48.519162 -0500,
87,87,0,critical,hwd,35.0,4.0,lower,133.0,57.0,57.0,133.0,70.0,70.0,1,1.9885079860687256,None,,,,,0,0,0,0,0,87,87,100,562.140439748764,,,,,,,,,,,,,,,,,,,,,,,,,,,,,,,,,,,,,,,,,,,,,,,,,,,,,,,,,,,,,,,,,,,,,,,,,,,,,,,,,133.0,57.0,57.0,133.0,70.0,70.0,4.0,4.2,-191,-16,0,-251,198,13,562.1232795715332,562.12335729599,562.1262323856354,562.140439748764,562.2792704105377,562.2792704105377,562.2792704105377,562.2792704105377,562.2792704105377,562.2792704105377,562.2792704105377,564.1439769268036,1,1.9885079860687256,None,,,,,,,,,,,,,,,,,,9,6,2025-02-18_13h01.18.874,comp,2024.2.4,None,2025-02-18 13h01.48.519162 -0500,
88,88,0,critical,dhw,20.0,3.0,lower,78.0,78.0,133.0,57.0,57.0,133.0,2,1.5056533813476562,None,,,,,0,0,0,0,0,88,88,56,564.1592884063721,,,,,,,,,,,,,,,,,,,,,,,,,,,,,,,,,,,,,,,,,,,,,,,,,,,,,,,,,,,,,,,,,,,,,,,,,,,,,,,,,78.0,78.0,133.0,57.0,57.0,133.0,3.0,3.2,-164,-278,0,-19,191,257,564.145491361618,564.1455657482147,564.1486020088196,564.1592884063721,564.3121809959412,564.3121809959412,564.3121809959412,564.3121809959412,564.3121809959412,564.3121809959412,564.3121809959412,565.685350894928,2,1.5056533813476562,None,,,,,,,,,,,,,,,,,,9,6,2025-02-18_13h01.18.874,comp,2024.2.4,None,2025-02-18 13h01.48.519162 -0500,
89,89,0,filler_random,None,None,None,None,None,None,None,None,None,None,3,1.0322518348693848,None,,,,,0,0,0,0,0,89,89,147,565.7052190303802,,,,,,,,,,,,,,,,,,,,,,,,,,,,,,,,,,,,,,,,,,,,,,,,,,,,,,,,,,,,,,,,,,,,,,,,,,,,,,,,,78.45193906354895,97.72048740650818,113.55507913473453,122.11620251244877,133.51655340998985,170.8821505568647,2.1,2.12,-206,-252,0,-263,242,289,565.6869735717773,565.6870481967926,565.6899263858795,565.7052190303802,565.8448741436005,565.8448741436005,565.8448741436005,565.8448741436005,565.8448741436005,565.8448741436005,565.8448741436005,566.7478921413422,3,1.0322518348693848,None,,,,,,,,,,,,,,,,,,9,6,2025-02-18_13h01.18.874,comp,2024.2.4,None,2025-02-18 13h01.48.519162 -0500,
90,90,0,critical,hdw,20.0,4.0,lower,133.0,57.0,78.0,78.0,57.0,133.0,1,1.3855836391448975,None,,,,,0,0,0,0,0,90,90,118,566.7673304080963,,,,,,,,,,,,,,,,,,,,,,,,,,,,,,,,,,,,,,,,,,,,,,,,,,,,,,,,,,,,,,,,,,,,,,,,,,,,,,,,,133.0,57.0,78.0,78.0,57.0,133.0,4.0,4.2,-164,-3,0,-261,202,-1,566.7495441436768,566.7496201992035,566.7527120113373,566.7673304080963,566.9124290943146,566.9124290943146,566.9124290943146,566.9124290943146,566.9124290943146,566.9124290943146,566.9124290943146,568.1625401973724,1,1.3855836391448975,None,,,,,,,,,,,,,,,,,,9,6,2025-02-18_13h01.18.874,comp,2024.2.4,None,2025-02-18 13h01.48.519162 -0500,
91,91,0,filler_random,None,None,None,None,None,None,None,None,None,None,3,1.9486689567565918,None,,,,,0,0,0,0,0,91,91,160,568.179773569107,,,,,,,,,,,,,,,,,,,,,,,,,,,,,,,,,,,,,,,,,,,,,,,,,,,,,,,,,,,,,,,,,,,,,,,,,,,,,,,,,156.9779319048061,161.60667992085467,127.41260557182822,191.4880996435006,190.5539886515883,134.3144027132642,4.0,4.2,-273,-5,0,-257,259,-20,568.1643481254578,568.1644735336304,568.1685786247253,568.179773569107,568.3318452835083,568.3318452835083,568.3318452835083,568.3318452835083,568.3318452835083,568.3318452835083,568.3318452835083,570.1446533203125,3,1.9486689567565918,None,,,,,,,,,,,,,,,,,,9,6,2025-02-18_13h01.18.874,comp,2024.2.4,None,2025-02-18 13h01.48.519162 -0500,
92,92,0,critical,hwd,35.0,2.1,upper,200.0,125.0,125.0,200.0,127.0,127.0,1,1.4973509311676025,None,,,,,0,0,0,0,0,92,92,41,570.159679889679,,,,,,,,,,,,,,,,,,,,,,,,,,,,,,,,,,,,,,,,,,,,,,,,,,,,,,,,,,,,,,,,,,,,,,,,,,,,,,,,,200.0,125.0,125.0,200.0,127.0,127.0,2.1,2.11,-258,289,0,274,260,-257,570.1450803279877,570.1450989246368,570.1458561420441,570.159679889679,570.2970769405365,570.2970769405365,570.2970769405365,570.2970769405365,570.2970769405365,570.2970769405365,570.2970769405365,571.667412519455,1,1.4973509311676025,None,,,,,,,,,,,,,,,,,,9,6,2025-02-18_13h01.18.874,comp,2024.2.4,None,2025-02-18 13h01.48.519162 -0500,
93,93,0,filler_random,None,None,None,None,None,None,None,None,None,None,2,2.3736648559570312,None,,,,,0,0,0,0,0,93,93,148,571.6840450763702,,,,,,,,,,,,,,,,,,,,,,,,,,,,,,,,,,,,,,,,,,,,,,,,,,,,,,,,,,,,,,,,,,,,,,,,,,,,,,,,,166.02208443504585,137.34616980366732,119.36823399444545,187.38309207059643,70.41022158454524,152.83102494736482,4.0,4.2,-258,6,0,-272,266,-4,571.6691029071808,571.6692321300507,571.6725497245789,571.6840450763702,571.8312332630157,571.8312332630157,571.8312332630157,571.8312332630157,571.8312332630157,571.8312332630157,571.8312332630157,574.0648348331451,2,2.3736648559570312,None,,,,,,,,,,,,,,,,,,9,6,2025-02-18_13h01.18.874,comp,2024.2.4,None,2025-02-18 13h01.48.519162 -0500,
94,94,0,critical,dwh,20.0,2.1,upper,141.0,141.0,125.0,200.0,200.0,125.0,2,2.328942060470581,None,,,,,0,0,0,0,0,94,94,31,574.0807704925537,,,,,,,,,,,,,,,,,,,,,,,,,,,,,,,,,,,,,,,,,,,,,,,,,,,,,,,,,,,,,,,,,,,,,,,,,,,,,,,,,141.0,141.0,125.0,200.0,200.0,125.0,2.1,2.11,-266,288,0,252,258,-272,574.0664737224579,574.0666038990021,574.070118188858,574.0807704925537,574.2346968650818,574.2346968650818,574.2346968650818,574.2346968650818,574.2346968650818,574.2346968650818,574.2346968650818,576.4168577194214,2,2.328942060470581,None,,,,,,,,,,,,,,,,,,9,6,2025-02-18_13h01.18.874,comp,2024.2.4,None,2025-02-18 13h01.48.519162 -0500,
95,95,0,filler_random,None,None,None,None,None,None,None,None,None,None,3,0.9829483032226562,None,,,,,0,0,0,0,0,95,95,138,576.4339804649353,,,,,,,,,,,,,,,,,,,,,,,,,,,,,,,,,,,,,,,,,,,,,,,,,,,,,,,,,,,,,,,,,,,,,,,,,,,,,,,,,69.99698983185283,193.17523688064452,103.10085681284295,155.85055224372758,188.768933554684,150.04722382232063,2.1,2.11,-271,278,0,254,249,-286,576.4187624454498,576.4188838005066,576.4225790500641,576.4339804649353,576.5798859596252,576.5798859596252,576.5798859596252,576.5798859596252,576.5798859596252,576.5798859596252,576.5798859596252,577.4334194660187,3,0.9829483032226562,None,,,,,,,,,,,,,,,,,,9,6,2025-02-18_13h01.18.874,comp,2024.2.4,None,2025-02-18 13h01.48.519162 -0500,
96,96,0,critical,dhw,35.0,2.1,lower,70.0,70.0,133.0,57.0,57.0,133.0,3,1.9926128387451172,None,,,,,0,0,0,0,0,96,96,0,577.4492716789246,,,,,,,,,,,,,,,,,,,,,,,,,,,,,,,,,,,,,,,,,,,,,,,,,,,,,,,,,,,,,,,,,,,,,,,,,,,,,,,,,70.0,70.0,133.0,57.0,57.0,133.0,2.1,2.12,-160,-253,0,-285,191,258,577.4349181652069,577.4349954128265,577.4390141963959,577.4492716789246,577.5972936153412,577.5972936153412,577.5972936153412,577.5972936153412,577.5972936153412,577.5972936153412,577.5972936153412,579.451812505722,3,1.9926128387451172,None,,,,,,,,,,,,,,,,,,9,6,2025-02-18_13h01.18.874,comp,2024.2.4,None,2025-02-18 13h01.48.519162 -0500,
97,97,0,critical,hdw,20.0,2.1,upper,200.0,125.0,141.0,141.0,125.0,200.0,1,1.8211264610290527,None,,,,,0,0,0,0,0,97,97,23,579.467737197876,,,,,,,,,,,,,,,,,,,,,,,,,,,,,,,,,,,,,,,,,,,,,,,,,,,,,,,,,,,,,,,,,,,,,,,,,,,,,,,,,200.0,125.0,141.0,141.0,125.0,200.0,2.1,2.12,-229,-267,0,-289,266,276,579.4534904956818,579.4535896778107,579.4570181369781,579.467737197876,579.617297410965,579.617297410965,579.617297410965,579.617297410965,579.617297410965,579.617297410965,579.617297410965,581.2994239330292,1,1.8211264610290527,None,,,,,,,,,,,,,,,,,,9,6,2025-02-18_13h01.18.874,comp,2024.2.4,None,2025-02-18 13h01.48.519162 -0500,
98,98,0,critical,whd,20.0,1.0,upper,125.0,200.0,200.0,125.0,141.0,141.0,2,2.3584394454956055,None,,,,,0,0,0,0,0,98,98,91,581.3152465820312,,,,,,,,,,,,,,,,,,,,,,,,,,,,,,,,,,,,,,,,,,,,,,,,,,,,,,,,,,,,,,,,,,,,,,,,,,,,,,,,,125.0,200.0,200.0,125.0,141.0,141.0,1.0,1.1,-738,279,-480,289,-251,257,581.300861120224,581.3009374141693,581.3039863109589,581.3152465820312,581.4719359874725,581.4719359874725,581.4719359874725,581.4719359874725,581.4719359874725,581.4719359874725,581.4719359874725,583.68563580513,2,2.3584394454956055,None,,,,,,,,,,,,,,,,,,9,6,2025-02-18_13h01.18.874,comp,2024.2.4,None,2025-02-18 13h01.48.519162 -0500,
99,99,0,catch,None,None,None,None,None,None,None,None,None,None,2,1.2358572483062744,None,,,,,0,0,0,0,0,99,99,121,583.7012219429016,,,,,,,,,,,,,,,,,,,,,,,,,,,,,,,,,,,,,,,,,,,,,,,,,,,,,,,,,,,,,,,,,,,,,,,,,,,,,,,,,63,127,194,131,69,121,2.2,2.21,-225,-279,0,260,222,265,583.687490940094,583.6876173019409,583.6908597946167,583.7012219429016,583.8513720035553,583.8513720035553,583.8513720035553,583.8513720035553,583.8513720035553,583.8513720035553,583.8513720035553,584.9520835876465,2,1.2358572483062744,None,,,,,,,,,,,,,,,,,,9,6,2025-02-18_13h01.18.874,comp,2024.2.4,None,2025-02-18 13h01.48.519162 -0500,
100,100,0,filler_square,None,None,None,None,None,None,None,None,None,None,1,1.2252228260040283,None,,,,,0,0,0,0,0,100,100,172,584.9682648181915,,,,,,,,,,,,,,,,,,,,,,,,,,,,,,,,,,,,,,,,,,,,,,,,,,,,,,,,,,,,,,,,,,,,,,,,,,,,,,,,,145.4363504153739,145.4363504153739,139.80562671762647,118.13522333651088,87.45192773453303,83.77276201490892,3.0,3.2,-228,-266,0,10,197,252,584.9538714885712,584.9539523124695,584.9579815864563,584.9682648181915,585.1158871650696,585.1158871650696,585.1158871650696,585.1158871650696,585.1158871650696,585.1158871650696,585.1158871650696,586.2028086185455,1,1.2252228260040283,None,,,,,,,,,,,,,,,,,,9,6,2025-02-18_13h01.18.874,comp,2024.2.4,None,2025-02-18 13h01.48.519162 -0500,
101,101,0,filler_random,None,None,None,None,None,None,None,None,None,None,2,1.703228235244751,None,,,,,0,0,0,0,0,101,101,133,586.2184438705444,,,,,,,,,,,,,,,,,,,,,,,,,,,,,,,,,,,,,,,,,,,,,,,,,,,,,,,,,,,,,,,,,,,,,,,,,,,,,,,,,181.44961262387335,94.31143191214053,92.68517270970567,156.3834653015777,169.40558184075763,177.86550204881777,4.0,4.2,-221,14,0,-272,263,-12,586.2046031951904,586.2047095298767,586.207897901535,586.2184438705444,586.368988275528,586.368988275528,586.368988275528,586.368988275528,586.368988275528,586.368988275528,586.368988275528,587.9375531673431,2,1.703228235244751,None,,,,,,,,,,,,,,,,,,9,6,2025-02-18_13h01.18.874,comp,2024.2.4,None,2025-02-18 13h01.48.519162 -0500,
102,102,0,filler_square,None,None,None,None,None,None,None,None,None,None,3,2.5835933685302734,None,,,,,0,0,0,0,0,102,102,194,587.9534454345703,,,,,,,,,,,,,,,,,,,,,,,,,,,,,,,,,,,,,,,,,,,,,,,,,,,,,,,,,,,,,,,,,,,,,,,,,,,,,,,,,66.42400955410939,76.81856013759631,69.32552423861995,69.83921431295023,78.80991497675606,78.80991497675606,3.0,3.2,-169,-253,0,1,170,260,587.9396426677704,587.9397184848785,587.9430265426636,587.9534454345703,588.1045358181,588.1045358181,588.1045358181,588.1045358181,588.1045358181,588.1045358181,588.1045358181,590.5403919219971,3,2.5835933685302734,None,,,,,,,,,,,,,,,,,,9,6,2025-02-18_13h01.18.874,comp,2024.2.4,None,2025-02-18 13h01.48.519162 -0500,
103,103,0,critical,hwd,20.0,4.0,upper,200.0,125.0,125.0,200.0,141.0,141.0,1,1.6400809288024902,None,,,,,0,0,0,0,0,103,103,107,590.5612881183624,,,,,,,,,,,,,,,,,,,,,,,,,,,,,,,,,,,,,,,,,,,,,,,,,,,,,,,,,,,,,,,,,,,,,,,,,,,,,,,,,200.0,125.0,125.0,200.0,141.0,141.0,4.0,4.2,-258,-17,0,-274,266,-12,590.542001247406,590.5420796871185,590.5454959869385,590.5612881183624,590.7023463249207,590.7023463249207,590.7023463249207,590.7023463249207,590.7023463249207,590.7023463249207,590.7023463249207,592.2035145759583,1,1.6400809288024902,None,,,,,,,,,,,,,,,,,,9,6,2025-02-18_13h01.18.874,comp,2024.2.4,None,2025-02-18 13h01.48.519162 -0500,
104,104,0,critical,dwh,35.0,2.1,lower,70.0,70.0,57.0,133.0,133.0,57.0,3,2.5254557132720947,None,,,,,0,0,0,0,0,104,104,28,592.2203269004822,,,,,,,,,,,,,,,,,,,,,,,,,,,,,,,,,,,,,,,,,,,,,,,,,,,,,,,,,,,,,,,,,,,,,,,,,,,,,,,,,70.0,70.0,57.0,133.0,133.0,57.0,2.1,2.12,-198,-252,0,-250,191,264,592.2051837444305,592.2052686214447,592.208577632904,592.2203269004822,592.3733031749725,592.3733031749725,592.3733031749725,592.3733031749725,592.3733031749725,592.3733031749725,592.3733031749725,594.753485918045,3,2.5254557132720947,None,,,,,,,,,,,,,,,,,,9,6,2025-02-18_13h01.18.874,comp,2024.2.4,None,2025-02-18 13h01.48.519162 -0500,
105,105,0,critical,dwh,20.0,1.0,lower,78.0,78.0,57.0,133.0,133.0,57.0,2,1.6236000061035156,None,,,,,0,0,0,0,0,105,105,66,594.7709240913391,,,,,,,,,,,,,,,,,,,,,,,,,,,,,,,,,,,,,,,,,,,,,,,,,,,,,,,,,,,,,,,,,,,,,,,,,,,,,,,,,78.0,78.0,57.0,133.0,133.0,57.0,1.0,1.3,278,-272,480,-264,671,-254,594.7549891471863,594.7550649642944,594.758139371872,594.7709240913391,594.927826166153,594.927826166153,594.927826166153,594.927826166153,594.927826166153,594.927826166153,594.927826166153,596.4053273200989,2,1.6236000061035156,None,,,,,,,,,,,,,,,,,,9,6,2025-02-18_13h01.18.874,comp,2024.2.4,None,2025-02-18 13h01.48.519162 -0500,
106,106,0,filler_random,None,None,None,None,None,None,None,None,None,None,2,2.2600584030151367,None,,,,,0,0,0,0,0,106,106,143,596.4215700626373,,,,,,,,,,,,,,,,,,,,,,,,,,,,,,,,,,,,,,,,,,,,,,,,,,,,,,,,,,,,,,,,,,,,,,,,,,,,,,,,,131.8090617081088,165.36253401696138,197.75811468362562,182.99673375269657,69.44801912317132,126.51797201748448,1.0,1.3,210,-256,480,-254,731,-281,596.4070806503296,596.4071872234344,596.410635471344,596.4215700626373,596.5716080665588,596.5716080665588,596.5716080665588,596.5716080665588,596.5716080665588,596.5716080665588,596.5716080665588,598.6899936199188,2,2.2600584030151367,None,,,,,,,,,,,,,,,,,,9,6,2025-02-18_13h01.18.874,comp,2024.2.4,None,2025-02-18 13h01.48.519162 -0500,
107,107,0,critical,hdw,20.0,2.1,lower,133.0,57.0,78.0,78.0,57.0,133.0,3,1.9933769702911377,None,,,,,0,0,0,0,0,107,107,22,598.7045714855194,,,,,,,,,,,,,,,,,,,,,,,,,,,,,,,,,,,,,,,,,,,,,,,,,,,,,,,,,,,,,,,,,,,,,,,,,,,,,,,,,133.0,57.0,78.0,78.0,57.0,133.0,2.1,2.11,-164,277,0,268,202,-284,598.6914393901825,598.6915140151978,598.6948263645172,598.7045714855194,598.8435280323029,598.8435280323029,598.8435280323029,598.8435280323029,598.8435280323029,598.8435280323029,598.8435280323029,600.7054662704468,3,1.9933769702911377,None,,,,,,,,,,,,,,,,,,9,6,2025-02-18_13h01.18.874,comp,2024.2.4,None,2025-02-18 13h01.48.519162 -0500,
108,108,0,filler_square,None,None,None,None,None,None,None,None,None,None,1,3.3475184440612793,None,,,,,0,0,0,0,0,108,108,203,600.7254102230072,,,,,,,,,,,,,,,,,,,,,,,,,,,,,,,,,,,,,,,,,,,,,,,,,,,,,,,,,,,,,,,,,,,,,,,,,,,,,,,,,82.74344610719272,138.7046526834862,64.42183868571534,146.2995824158859,171.4221024649459,171.4221024649459,3.0,3.2,-239,-278,0,-8,255,278,600.7072217464447,600.7073011398315,600.7103281021118,600.7254102230072,600.872581243515,600.872581243515,600.872581243515,600.872581243515,600.872581243515,600.872581243515,600.872581243515,604.0930354595184,1,3.3475184440612793,None,,,,,,,,,,,,,,,,,,9,6,2025-02-18_13h01.18.874,comp,2024.2.4,None,2025-02-18 13h01.48.519162 -0500,
109,109,0,catch,None,None,None,None,None,None,None,None,None,None,2,1.802919864654541,None,,,,,0,0,0,0,0,109,109,120,604.111043214798,,,,,,,,,,,,,,,,,,,,,,,,,,,,,,,,,,,,,,,,,,,,,,,,,,,,,,,,,,,,,,,,,,,,,,,,,,,,,,,,,122,68,101,89,148,177,4.0,4.2,-174,5,0,-285,229,20,604.0951046943665,604.0952212810516,604.0983257293701,604.111043214798,604.2575747966766,604.2575747966766,604.2575747966766,604.2575747966766,604.2575747966766,604.2575747966766,604.2575747966766,605.9249262809753,2,1.802919864654541,None,,,,,,,,,,,,,,,,,,9,6,2025-02-18_13h01.18.874,comp,2024.2.4,None,2025-02-18 13h01.48.519162 -0500,
110,110,0,filler_random,None,None,None,None,None,None,None,None,None,None,3,2.108748435974121,None,,,,,0,0,0,0,0,110,110,168,605.9410924911499,,,,,,,,,,,,,,,,,,,,,,,,,,,,,,,,,,,,,,,,,,,,,,,,,,,,,,,,,,,,,,,,,,,,,,,,,,,,,,,,,60.44161882161854,168.49319263113387,74.77695340696383,81.56719690296568,198.05103826742675,165.2520831891515,4.0,4.2,-221,5,0,-286,219,-18,605.9266855716705,605.926765203476,605.9301376342773,605.9410924911499,606.0888991355896,606.0888991355896,606.0888991355896,606.0888991355896,606.0888991355896,606.0888991355896,606.0888991355896,608.0606164932251,3,2.108748435974121,None,,,,,,,,,,,,,,,,,,9,6,2025-02-18_13h01.18.874,comp,2024.2.4,None,2025-02-18 13h01.48.519162 -0500,
111,111,0,filler_random,None,None,None,None,None,None,None,None,None,None,2,3.0835187435150146,None,,,,,0,0,0,0,0,111,111,151,608.0774309635162,,,,,,,,,,,,,,,,,,,,,,,,,,,,,,,,,,,,,,,,,,,,,,,,,,,,,,,,,,,,,,,,,,,,,,,,,,,,,,,,,61.7009778000008,92.97844338581453,84.11075774556075,105.65455179502706,120.70149625772021,139.2852030198314,3.0,3.1,-195,265,0,7,218,-282,608.0624234676361,608.0625023841858,608.0656862258911,608.0774309635162,608.2252731323242,608.2252731323242,608.2252731323242,608.2252731323242,608.2252731323242,608.2252731323242,608.2252731323242,611.1772787570953,2,3.0835187435150146,None,,,,,,,,,,,,,,,,,,9,6,2025-02-18_13h01.18.874,comp,2024.2.4,None,2025-02-18 13h01.48.519162 -0500,
112,112,0,critical,dwh,20.0,2.1,lower,78.0,78.0,57.0,133.0,133.0,57.0,3,1.6969358921051025,None,,,,,0,0,0,0,0,112,112,6,611.1925129890442,,,,,,,,,,,,,,,,,,,,,,,,,,,,,,,,,,,,,,,,,,,,,,,,,,,,,,,,,,,,,,,,,,,,,,,,,,,,,,,,,78.0,78.0,57.0,133.0,133.0,57.0,2.1,2.12,-202,-271,0,-257,191,289,611.1788041591644,611.1788783073425,611.1822037696838,611.1925129890442,611.3421349525452,611.3421349525452,611.3421349525452,611.3421349525452,611.3421349525452,611.3421349525452,611.3421349525452,612.8943121433258,3,1.6969358921051025,None,,,,,,,,,,,,,,,,,,9,6,2025-02-18_13h01.18.874,comp,2024.2.4,None,2025-02-18 13h01.48.519162 -0500,
113,113,0,critical,hwd,35.0,1.0,upper,200.0,125.0,125.0,200.0,127.0,127.0,1,1.3474676609039307,None,,,,,0,0,0,0,0,113,113,97,612.9102194309235,,,,,,,,,,,,,,,,,,,,,,,,,,,,,,,,,,,,,,,,,,,,,,,,,,,,,,,,,,,,,,,,,,,,,,,,,,,,,,,,,200.0,125.0,125.0,200.0,127.0,127.0,1.0,1.1,-738,251,-480,272,-220,252,612.8958575725555,612.8959336280823,612.8994233608246,612.9102194309235,613.0608072280884,613.0608072280884,613.0608072280884,613.0608072280884,613.0608072280884,613.0608072280884,613.0608072280884,614.2638137340546,1,1.3474676609039307,None,,,,,,,,,,,,,,,,,,9,6,2025-02-18_13h01.18.874,comp,2024.2.4,None,2025-02-18 13h01.48.519162 -0500,
114,114,0,critical,hwd,20.0,4.0,lower,133.0,57.0,57.0,133.0,78.0,78.0,1,4.528172016143799,None,,,,,0,0,0,0,0,114,114,106,614.281328201294,,,,,,,,,,,,,,,,,,,,,,,,,,,,,,,,,,,,,,,,,,,,,,,,,,,,,,,,,,,,,,,,,,,,,,,,,,,,,,,,,133.0,57.0,57.0,133.0,78.0,78.0,4.0,4.1,-191,-255,0,11,202,-252,614.2653410434723,614.2654190063477,614.2683174610138,614.281328201294,614.4268109798431,614.4268109798431,614.4268109798431,614.4268109798431,614.4268109798431,614.4268109798431,614.4268109798431,618.8119893074036,1,4.528172016143799,None,,,,,,,,,,,,,,,,,,9,6,2025-02-18_13h01.18.874,comp,2024.2.4,None,2025-02-18 13h01.48.519162 -0500,
115,115,0,critical,whd,35.0,2.1,lower,57.0,133.0,133.0,57.0,70.0,70.0,2,2.100951910018921,None,,,,,0,0,0,0,0,115,115,36,618.8283205032349,,,,,,,,,,,,,,,,,,,,,,,,,,,,,,,,,,,,,,,,,,,,,,,,,,,,,,,,,,,,,,,,,,,,,,,,,,,,,,,,,57.0,133.0,133.0,57.0,70.0,70.0,2.1,2.11,-191,265,0,272,160,-272,618.8134655952454,618.8135406970978,618.8175668716431,618.8283205032349,618.9843327999115,618.9843327999115,618.9843327999115,618.9843327999115,618.9843327999115,618.9843327999115,618.9843327999115,620.9458339214325,2,2.100951910018921,None,,,,,,,,,,,,,,,,,,9,6,2025-02-18_13h01.18.874,comp,2024.2.4,None,2025-02-18 13h01.48.519162 -0500,
116,116,0,critical,dhw,20.0,4.0,lower,78.0,78.0,133.0,57.0,57.0,133.0,2,1.6860783100128174,None,,,,,0,0,0,0,0,116,116,58,620.9630784988403,,,,,,,,,,,,,,,,,,,,,,,,,,,,,,,,,,,,,,,,,,,,,,,,,,,,,,,,,,,,,,,,,,,,,,,,,,,,,,,,,78.0,78.0,133.0,57.0,57.0,133.0,4.0,4.1,-164,-257,0,-6,191,-287,620.9472603797913,620.9473350048065,620.950433254242,620.9630784988403,621.1129434108734,621.1129434108734,621.1129434108734,621.1129434108734,621.1129434108734,621.1129434108734,621.1129434108734,622.6552875041962,2,1.6860783100128174,None,,,,,,,,,,,,,,,,,,9,6,2025-02-18_13h01.18.874,comp,2024.2.4,None,2025-02-18 13h01.48.519162 -0500,
117,117,0,filler_square,None,None,None,None,None,None,None,None,None,None,2,1.7432403564453125,None,,,,,0,0,0,0,0,117,117,197,622.674008846283,,,,,,,,,,,,,,,,,,,,,,,,,,,,,,,,,,,,,,,,,,,,,,,,,,,,,,,,,,,,,,,,,,,,,,,,,,,,,,,,,76.2853995333715,78.0625978528327,62.364221524795674,110.00035660063395,161.64885402678578,161.64885402678578,1.0,1.1,-670,261,-480,276,-248,273,622.6573121547699,622.6573934555054,622.6605875492096,622.674008846283,622.8208591938019,622.8208591938019,622.8208591938019,622.8208591938019,622.8208591938019,622.8208591938019,622.8208591938019,624.4305136203766,2,1.7432403564453125,None,,,,,,,,,,,,,,,,,,9,6,2025-02-18_13h01.18.874,comp,2024.2.4,None,2025-02-18 13h01.48.519162 -0500,
118,118,0,critical,dhw,35.0,4.0,lower,70.0,70.0,133.0,57.0,57.0,133.0,2,2.8022444248199463,None,,,,,0,0,0,0,0,118,118,52,624.4467625617981,,,,,,,,,,,,,,,,,,,,,,,,,,,,,,,,,,,,,,,,,,,,,,,,,,,,,,,,,,,,,,,,,,,,,,,,,,,,,,,,,70.0,70.0,133.0,57.0,57.0,133.0,4.0,4.2,-160,-17,0,-263,191,14,624.4320211410522,624.4320957660675,624.4352235794067,624.4467625617981,624.599526643753,624.599526643753,624.599526643753,624.599526643753,624.599526643753,624.599526643753,624.599526643753,627.2641849517822,2,2.8022444248199463,None,,,,,,,,,,,,,,,,,,9,6,2025-02-18_13h01.18.874,comp,2024.2.4,None,2025-02-18 13h01.48.519162 -0500,
119,119,0,critical,wdh,20.0,2.1,upper,125.0,200.0,141.0,141.0,200.0,125.0,3,1.5617775917053223,None,,,,,0,0,0,0,0,119,119,11,627.2802710533142,,,,,,,,,,,,,,,,,,,,,,,,,,,,,,,,,,,,,,,,,,,,,,,,,,,,,,,,,,,,,,,,,,,,,,,,,,,,,,,,,125.0,200.0,141.0,141.0,200.0,125.0,2.1,2.11,-266,276,0,279,229,-272,627.2657101154327,627.2657849788666,627.269031047821,627.2802710533142,627.4365801811218,627.4365801811218,627.4365801811218,627.4365801811218,627.4365801811218,627.4365801811218,627.4365801811218,628.8488359451294,3,1.5617775917053223,None,,,,,,,,,,,,,,,,,,9,6,2025-02-18_13h01.18.874,comp,2024.2.4,None,2025-02-18 13h01.48.519162 -0500,
120,120,0,filler_square,None,None,None,None,None,None,None,None,None,None,2,4.119412183761597,None,,,,,0,0,0,0,0,120,120,193,628.8655080795288,,,,,,,,,,,,,,,,,,,,,,,,,,,,,,,,,,,,,,,,,,,,,,,,,,,,,,,,,,,,,,,,,,,,,,,,,,,,,,,,,65.72130448040534,63.221222233762425,59.34069858133318,64.44309788481414,80.68162772785217,80.68162772785217,1.0,1.2,-160,5,0,-7,169,14,628.850841999054,628.8509168624878,628.854926109314,628.8655080795288,629.0179147720337,629.0179147720337,629.0179147720337,629.0179147720337,629.0179147720337,629.0179147720337,629.0179147720337,632.998898267746,2,4.119412183761597,None,,,,,,,,,,,,,,,,,,9,6,2025-02-18_13h01.18.874,comp,2024.2.4,None,2025-02-18 13h01.48.519162 -0500,
121,121,0,critical,hwd,35.0,3.0,lower,133.0,57.0,57.0,133.0,70.0,70.0,2,4.722460031509399,None,,,,,0,0,0,0,0,121,121,98,633.0148777961731,,,,,,,,,,,,,,,,,,,,,,,,,,,,,,,,,,,,,,,,,,,,,,,,,,,,,,,,,,,,,,,,,,,,,,,,,,,,,,,,,133.0,57.0,57.0,133.0,70.0,70.0,3.0,3.1,-191,268,0,19,198,-289,633.0004427433014,633.0005207061768,633.0036568641663,633.0148777961731,633.1694133281708,633.1694133281708,633.1694133281708,633.1694133281708,633.1694133281708,633.1694133281708,633.1694133281708,637.7408404350281,2,4.722460031509399,None,,,,,,,,,,,,,,,,,,9,6,2025-02-18_13h01.18.874,comp,2024.2.4,None,2025-02-18 13h01.48.519162 -0500,
122,122,0,filler_square,None,None,None,None,None,None,None,None,None,None,3,1.8127005100250244,None,,,,,0,0,0,0,0,122,122,170,637.7569859027863,,,,,,,,,,,,,,,,,,,,,,,,,,,,,,,,,,,,,,,,,,,,,,,,,,,,,,,,,,,,,,,,,,,,,,,,,,,,,,,,,73.04355352220674,101.78187307170938,115.560676706053,115.560676706053,102.74222543238056,74.7611810564947,4.0,4.1,-205,-250,0,-9,191,-268,637.7427434921265,637.7428567409515,637.7460460662842,637.7569859027863,637.9008178710938,637.9008178710938,637.9008178710938,637.9008178710938,637.9008178710938,637.9008178710938,637.9008178710938,639.5767345428467,3,1.8127005100250244,None,,,,,,,,,,,,,,,,,,9,6,2025-02-18_13h01.18.874,comp,2024.2.4,None,2025-02-18 13h01.48.519162 -0500,
123,123,0,filler_random,None,None,None,None,None,None,None,None,None,None,1,4.24021577835083,None,,,,,0,0,0,0,0,123,123,136,639.5927937030792,,,,,,,,,,,,,,,,,,,,,,,,,,,,,,,,,,,,,,,,,,,,,,,,,,,,,,,,,,,,,,,,,,,,,,,,,,,,,,,,,87.42293094396715,153.51833220752886,91.05556446151141,65.1795796245989,152.7304839129019,146.0739734061499,3.0,3.1,-205,273,0,7,202,-283,639.5785746574402,639.57865691185,639.5819365978241,639.5927937030792,639.7357022762299,639.7357022762299,639.7357022762299,639.7357022762299,639.7357022762299,639.7357022762299,639.7357022762299,643.8381066322327,1,4.24021577835083,None,,,,,,,,,,,,,,,,,,9,6,2025-02-18_13h01.18.874,comp,2024.2.4,None,2025-02-18 13h01.48.519162 -0500,
124,124,0,critical,whd,20.0,4.0,upper,125.0,200.0,200.0,125.0,141.0,141.0,1,5.015590667724609,None,,,,,0,0,0,0,0,124,124,95,643.8574712276459,,,,,,,,,,,,,,,,,,,,,,,,,,,,,,,,,,,,,,,,,,,,,,,,,,,,,,,,,,,,,,,,,,,,,,,,,,,,,,,,,125.0,200.0,200.0,125.0,141.0,141.0,4.0,4.1,-258,-282,0,-14,229,-286,643.8396108150482,643.8396878242493,643.8425097465515,643.8574712276459,644.0032215118408,644.0032215118408,644.0032215118408,644.0032215118408,644.0032215118408,644.0032215118408,644.0032215118408,648.887707233429,1,5.015590667724609,None,,,,,,,,,,,,,,,,,,9,6,2025-02-18_13h01.18.874,comp,2024.2.4,None,2025-02-18 13h01.48.519162 -0500,
125,125,0,critical,hdw,20.0,2.1,upper,200.0,125.0,141.0,141.0,125.0,200.0,3,3.1748874187469482,None,,,,,0,0,0,0,0,125,125,47,648.9068393707275,,,,,,,,,,,,,,,,,,,,,,,,,,,,,,,,,,,,,,,,,,,,,,,,,,,,,,,,,,,,,,,,,,,,,,,,,,,,,,,,,200.0,125.0,141.0,141.0,125.0,200.0,2.1,2.12,-229,-278,0,-269,266,277,648.8892493247986,648.8893246650696,648.8922951221466,648.9068393707275,649.0551881790161,649.0551881790161,649.0551881790161,649.0551881790161,649.0551881790161,649.0551881790161,649.0551881790161,652.088440656662,3,3.1748874187469482,None,,,,,,,,,,,,,,,,,,9,6,2025-02-18_13h01.18.874,comp,2024.2.4,None,2025-02-18 13h01.48.519162 -0500,
126,126,0,filler_square,None,None,None,None,None,None,None,None,None,None,1,3.9171524047851562,None,,,,,0,0,0,0,0,126,126,205,652.1077966690063,,,,,,,,,,,,,,,,,,,,,,,,,,,,,,,,,,,,,,,,,,,,,,,,,,,,,,,,,,,,,,,,,,,,,,,,,,,,,,,,,80.46348426663245,80.46348426663245,78.42051923139401,70.96792826275018,71.53452009344275,77.48542637889157,4.0,4.2,-172,-8,0,-269,170,3,652.0903692245483,652.0904517173767,652.0939991474152,652.1077966690063,652.2539720535278,652.2539720535278,652.2539720535278,652.2539720535278,652.2539720535278,652.2539720535278,652.2539720535278,656.0424110889435,1,3.9171524047851562,None,,,,,,,,,,,,,,,,,,9,6,2025-02-18_13h01.18.874,comp,2024.2.4,None,2025-02-18 13h01.48.519162 -0500,
127,127,0,filler_random,None,None,None,None,None,None,None,None,None,None,3,2.1740527153015137,None,,,,,0,0,0,0,0,127,127,169,656.0589632987976,,,,,,,,,,,,,,,,,,,,,,,,,,,,,,,,,,,,,,,,,,,,,,,,,,,,,,,,,,,,,,,,,,,,,,,,,,,,,,,,,174.67480013923023,172.09704758945622,58.24594529999701,59.92159396832228,196.00533313130396,62.40074137675066,1.0,1.1,-692,272,-480,255,-323,282,656.0444395542145,656.04452085495,656.0479741096497,656.0589632987976,656.2057921886444,656.2057921886444,656.2057921886444,656.2057921886444,656.2057921886444,656.2057921886444,656.2057921886444,658.2467288970947,3,2.1740527153015137,None,,,,,,,,,,,,,,,,,,9,6,2025-02-18_13h01.18.874,comp,2024.2.4,None,2025-02-18 13h01.48.519162 -0500,
128,128,0,critical,dwh,35.0,3.0,lower,70.0,70.0,57.0,133.0,133.0,57.0,2,2.8905348777770996,None,,,,,0,0,0,0,0,128,128,62,658.2629013061523,,,,,,,,,,,,,,,,,,,,,,,,,,,,,,,,,,,,,,,,,,,,,,,,,,,,,,,,,,,,,,,,,,,,,,,,,,,,,,,,,70.0,70.0,57.0,133.0,133.0,57.0,3.0,3.2,-198,-284,0,16,191,282,658.2482242584229,658.2483005523682,658.2515728473663,658.2629013061523,658.4069421291351,658.4069421291351,658.4069421291351,658.4069421291351,658.4069421291351,658.4069421291351,658.4069421291351,661.1573905944824,2,2.8905348777770996,None,,,,,,,,,,,,,,,,,,9,6,2025-02-18_13h01.18.874,comp,2024.2.4,None,2025-02-18 13h01.48.519162 -0500,
129,129,0,critical,hdw,35.0,2.1,upper,200.0,125.0,127.0,127.0,125.0,200.0,1,3.347548484802246,None,,,,,0,0,0,0,0,129,129,21,661.1739101409912,,,,,,,,,,,,,,,,,,,,,,,,,,,,,,,,,,,,,,,,,,,,,,,,,,,,,,,,,,,,,,,,,,,,,,,,,,,,,,,,,200.0,125.0,127.0,127.0,125.0,200.0,2.1,2.11,-222,259,0,256,260,-278,661.1589167118073,661.1589946746826,661.1622812747955,661.1739101409912,661.3258509635925,661.3258509635925,661.3258509635925,661.3258509635925,661.3258509635925,661.3258509635925,661.3258509635925,664.5274083614349,1,3.347548484802246,None,,,,,,,,,,,,,,,,,,9,6,2025-02-18_13h01.18.874,comp,2024.2.4,None,2025-02-18 13h01.48.519162 -0500,
130,130,0,filler_random,None,None,None,None,None,None,None,None,None,None,1,1.6892006397247314,None,,,,,0,0,0,0,0,130,130,149,664.5437755584717,,,,,,,,,,,,,,,,,,,,,,,,,,,,,,,,,,,,,,,,,,,,,,,,,,,,,,,,,,,,,,,,,,,,,,,,,,,,,,,,,139.52128207432924,198.8970062055563,179.46073555703242,179.58553854578946,81.83649051353693,88.11427406709699,2.2,2.22,-285,282,0,-277,230,-266,664.5290784835815,664.5292217731476,664.5331907272339,664.5437755584717,664.6847054958344,664.6847054958344,664.6847054958344,664.6847054958344,664.6847054958344,664.6847054958344,664.6847054958344,666.243833065033,1,1.6892006397247314,None,,,,,,,,,,,,,,,,,,9,6,2025-02-18_13h01.18.874,comp,2024.2.4,None,2025-02-18 13h01.48.519162 -0500,
131,131,0,critical,dwh,35.0,2.1,upper,127.0,127.0,125.0,200.0,200.0,125.0,3,1.2052059173583984,None,,,,,0,0,0,0,0,131,131,29,666.2597301006317,,,,,,,,,,,,,,,,,,,,,,,,,,,,,,,,,,,,,,,,,,,,,,,,,,,,,,,,,,,,,,,,,,,,,,,,,,,,,,,,,127.0,127.0,125.0,200.0,200.0,125.0,2.1,2.11,-260,279,0,261,258,-251,666.2452983856201,666.2453992366791,666.2488143444061,666.2597301006317,666.414014339447,666.414014339447,666.414014339447,666.414014339447,666.414014339447,666.414014339447,666.414014339447,667.4764356613159,3,1.2052059173583984,None,,,,,,,,,,,,,,,,,,9,6,2025-02-18_13h01.18.874,comp,2024.2.4,None,2025-02-18 13h01.48.519162 -0500,
132,132,0,filler_random,None,None,None,None,None,None,None,None,None,None,3,1.2756235599517822,None,,,,,0,0,0,0,0,132,132,134,667.4962253570557,,,,,,,,,,,,,,,,,,,,,,,,,,,,,,,,,,,,,,,,,,,,,,,,,,,,,,,,,,,,,,,,,,,,,,,,,,,,,,,,,89.63573882554664,66.56078654823446,73.34379116631013,145.81620087735735,97.61970290545852,186.51265745606355,2.2,2.21,-202,-271,0,273,262,286,667.4781036376953,667.4782257080078,667.4813222885132,667.4962253570557,667.6448888778687,667.6448888778687,667.6448888778687,667.6448888778687,667.6448888778687,667.6448888778687,667.6448888778687,668.7780153751373,3,1.2756235599517822,None,,,,,,,,,,,,,,,,,,9,6,2025-02-18_13h01.18.874,comp,2024.2.4,None,2025-02-18 13h01.48.519162 -0500,
133,133,0,filler_square,None,None,None,None,None,None,None,None,None,None,3,2.184419631958008,None,,,,,0,0,0,0,0,133,133,180,668.793274641037,,,,,,,,,,,,,,,,,,,,,,,,,,,,,,,,,,,,,,,,,,,,,,,,,,,,,,,,,,,,,,,,,,,,,,,,,,,,,,,,,63.45802764834768,63.45802764834768,63.11189735090264,61.46990629167799,62.89817463812926,61.045716581933185,2.1,2.11,-158,266,0,250,157,-251,668.7796747684479,668.7797498703003,668.7826962471008,668.793274641037,668.9440767765045,668.9440767765045,668.9440767765045,668.9440767765045,668.9440767765045,668.9440767765045,668.9440767765045,670.9807538986206,3,2.184419631958008,None,,,,,,,,,,,,,,,,,,9,6,2025-02-18_13h01.18.874,comp,2024.2.4,None,2025-02-18 13h01.48.519162 -0500,
134,134,0,filler_random,None,None,None,None,None,None,None,None,None,None,2,1.7799313068389893,None,,,,,0,0,0,0,0,134,134,155,670.9973232746124,,,,,,,,,,,,,,,,,,,,,,,,,,,,,,,,,,,,,,,,,,,,,,,,,,,,,,,,,,,,,,,,,,,,,,,,,,,,,,,,,96.30685927623347,81.87504619617306,114.0968748775212,82.3200875089436,131.1945820628821,115.09022587124565,2.1,2.12,-178,-259,0,-252,195,271,670.9827899932861,670.982873916626,670.9865803718567,670.9973232746124,671.1507127285004,671.1507127285004,671.1507127285004,671.1507127285004,671.1507127285004,671.1507127285004,671.1507127285004,672.782666683197,2,1.7799313068389893,None,,,,,,,,,,,,,,,,,,9,6,2025-02-18_13h01.18.874,comp,2024.2.4,None,2025-02-18 13h01.48.519162 -0500,
135,135,0,critical,hwd,20.0,3.0,upper,200.0,125.0,125.0,200.0,141.0,141.0,1,3.994508743286133,None,,,,,0,0,0,0,0,135,135,105,672.7987751960754,,,,,,,,,,,,,,,,,,,,,,,,,,,,,,,,,,,,,,,,,,,,,,,,,,,,,,,,,,,,,,,,,,,,,,,,,,,,,,,,,200.0,125.0,125.0,200.0,141.0,141.0,3.0,3.1,-258,254,0,18,266,-251,672.7842109203339,672.7843153476715,672.7878654003143,672.7987751960754,672.9365122318268,672.9365122318268,672.9365122318268,672.9365122318268,672.9365122318268,672.9365122318268,672.9365122318268,676.79789686203,1,3.994508743286133,None,,,,,,,,,,,,,,,,,,9,6,2025-02-18_13h01.18.874,comp,2024.2.4,None,2025-02-18 13h01.48.519162 -0500,
136,136,0,filler_square,None,None,None,None,None,None,None,None,None,None,2,2.8194944858551025,None,,,,,0,0,0,0,0,136,136,204,676.8135595321655,,,,,,,,,,,,,,,,,,,,,,,,,,,,,,,,,,,,,,,,,,,,,,,,,,,,,,,,,,,,,,,,,,,,,,,,,,,,,,,,,93.6108048950795,85.61918307885851,61.628703500328506,152.79450219682684,160.02895381273453,160.02895381273453,2.2,2.21,-215,-287,0,252,252,256,676.799741268158,676.7998185157776,676.8030066490173,676.8135595321655,676.9697363376617,676.9697363376617,676.9697363376617,676.9697363376617,676.9697363376617,676.9697363376617,676.9697363376617,679.6478474140167,2,2.8194944858551025,None,,,,,,,,,,,,,,,,,,9,6,2025-02-18_13h01.18.874,comp,2024.2.4,None,2025-02-18 13h01.48.519162 -0500,
137,137,0,filler_random,None,None,None,None,None,None,None,None,None,None,1,3.8813679218292236,None,,,,,0,0,0,0,0,137,137,141,679.6646966934204,,,,,,,,,,,,,,,,,,,,,,,,,,,,,,,,,,,,,,,,,,,,,,,,,,,,,,,,,,,,,,,,,,,,,,,,,,,,,,,,,126.18670215151266,171.041231594125,69.38421823925651,134.28030461300278,130.4284216817959,161.6672571139743,2.1,2.11,-249,279,0,278,244,-287,679.6495471000671,679.6496226787567,679.6536214351654,679.6646966934204,679.7933626174927,679.7933626174927,679.7933626174927,679.7933626174927,679.7933626174927,679.7933626174927,679.7933626174927,683.5534844398499,1,3.8813679218292236,None,,,,,,,,,,,,,,,,,,9,6,2025-02-18_13h01.18.874,comp,2024.2.4,None,2025-02-18 13h01.48.519162 -0500,
138,138,0,critical,hdw,35.0,2.1,lower,133.0,57.0,70.0,70.0,57.0,133.0,2,2.5203614234924316,None,,,,,0,0,0,0,0,138,138,44,683.5694525241852,,,,,,,,,,,,,,,,,,,,,,,,,,,,,,,,,,,,,,,,,,,,,,,,,,,,,,,,,,,,,,,,,,,,,,,,,,,,,,,,,133.0,57.0,70.0,70.0,57.0,133.0,2.1,2.11,-160,279,0,261,198,-276,683.5549569129944,683.5550351142883,683.5588693618774,683.5694525241852,683.7149286270142,683.7149286270142,683.7149286270142,683.7149286270142,683.7149286270142,683.7149286270142,683.7149286270142,686.0966236591339,2,2.5203614234924316,None,,,,,,,,,,,,,,,,,,9,6,2025-02-18_13h01.18.874,comp,2024.2.4,None,2025-02-18 13h01.48.519162 -0500,
139,139,0,filler_random,None,None,None,None,None,None,None,None,None,None,2,2.7680647373199463,None,,,,,0,0,0,0,0,139,139,166,686.1137051582336,,,,,,,,,,,,,,,,,,,,,,,,,,,,,,,,,,,,,,,,,,,,,,,,,,,,,,,,,,,,,,,,,,,,,,,,,,,,,,,,,108.94190281980369,108.5008646958226,72.13393814600654,186.10110109406634,162.2392678587907,63.42755883857203,3.0,3.2,-243,-253,0,14,221,270,686.0982646942139,686.0983428955078,686.1012270450592,686.1137051582336,686.2652416229248,686.2652416229248,686.2652416229248,686.2652416229248,686.2652416229248,686.2652416229248,686.2652416229248,688.8881416320801,2,2.7680647373199463,None,,,,,,,,,,,,,,,,,,9,6,2025-02-18_13h01.18.874,comp,2024.2.4,None,2025-02-18 13h01.48.519162 -0500,
140,140,0,filler_square,None,None,None,None,None,None,None,None,None,None,3,1.488696575164795,None,,,,,0,0,0,0,0,140,140,176,688.9043397903442,,,,,,,,,,,,,,,,,,,,,,,,,,,,,,,,,,,,,,,,,,,,,,,,,,,,,,,,,,,,,,,,,,,,,,,,,,,,,,,,,59.559133866108745,59.559133866108745,59.15499378370752,57.616176347617824,58.75376945514927,57.6657137809667,3.0,3.1,-155,257,0,-16,154,-271,688.8900063037872,688.8900892734528,688.8934535980225,688.9043397903442,689.0478408336639,689.0478408336639,689.0478408336639,689.0478408336639,689.0478408336639,689.0478408336639,689.0478408336639,690.4069087505341,3,1.488696575164795,None,,,,,,,,,,,,,,,,,,9,6,2025-02-18_13h01.18.874,comp,2024.2.4,None,2025-02-18 13h01.48.519162 -0500,
141,141,0,critical,hdw,35.0,1.0,upper,200.0,125.0,127.0,127.0,125.0,200.0,3,5.611157655715942,None,,,,,0,0,0,0,0,141,141,109,690.4223985671997,,,,,,,,,,,,,,,,,,,,,,,,,,,,,,,,,,,,,,,,,,,,,,,,,,,,,,,,,,,,,,,,,,,,,,,,,,,,,,,,,200.0,125.0,127.0,127.0,125.0,200.0,1.0,1.2,-222,16,0,6,260,12,690.4084098339081,690.4084882736206,690.4113883972168,690.4223985671997,690.5653359889984,690.5653359889984,690.5653359889984,690.5653359889984,690.5653359889984,690.5653359889984,690.5653359889984,696.0360083580017,3,5.611157655715942,None,,,,,,,,,,,,,,,,,,9,6,2025-02-18_13h01.18.874,comp,2024.2.4,None,2025-02-18 13h01.48.519162 -0500,
142,142,0,catch,None,None,None,None,None,None,None,None,None,None,3,3.317087173461914,None,,,,,0,0,0,0,0,142,142,122,696.0525386333466,,,,,,,,,,,,,,,,,,,,,,,,,,,,,,,,,,,,,,,,,,,,,,,,,,,,,,,,,,,,,,,,,,,,,,,,,,,,,,,,,126,64,108,82,178,147,2.2,2.21,-169,-276,0,286,210,278,696.0378415584564,696.0379197597504,696.0410213470459,696.0525386333466,696.2067501544952,696.2067501544952,696.2067501544952,696.2067501544952,696.2067501544952,696.2067501544952,696.2067501544952,699.3718481063843,3,3.317087173461914,None,,,,,,,,,,,,,,,,,,9,6,2025-02-18_13h01.18.874,comp,2024.2.4,None,2025-02-18 13h01.48.519162 -0500,
143,143,0,filler_square,None,None,None,None,None,None,None,None,None,None,3,3.478022813796997,None,,,,,0,0,0,0,0,143,143,198,699.3876597881317,,,,,,,,,,,,,,,,,,,,,,,,,,,,,,,,,,,,,,,,,,,,,,,,,,,,,,,,,,,,,,,,,,,,,,,,,,,,,,,,,57.78994203388339,64.88649281014213,57.65080383280767,64.11000335845146,66.50380957127098,66.50380957127098,1.0,1.2,-160,1,0,16,161,19,699.3736143112183,699.3736910820007,699.3769199848175,699.3876597881317,699.5252537727356,699.5252537727356,699.5252537727356,699.5252537727356,699.5252537727356,699.5252537727356,699.5252537727356,702.8732576370239,3,3.478022813796997,None,,,,,,,,,,,,,,,,,,9,6,2025-02-18_13h01.18.874,comp,2024.2.4,None,2025-02-18 13h01.48.519162 -0500,
144,144,0,critical,hdw,35.0,3.0,lower,133.0,57.0,70.0,70.0,57.0,133.0,3,3.72824764251709,None,,,,,0,0,0,0,0,144,144,110,702.8891913890839,,,,,,,,,,,,,,,,,,,,,,,,,,,,,,,,,,,,,,,,,,,,,,,,,,,,,,,,,,,,,,,,,,,,,,,,,,,,,,,,,133.0,57.0,70.0,70.0,57.0,133.0,3.0,3.2,-160,-268,0,-5,198,283,702.8748366832733,702.8749372959137,702.8784098625183,702.8891913890839,703.0384557247162,703.0384557247162,703.0384557247162,703.0384557247162,703.0384557247162,703.0384557247162,703.0384557247162,706.6218128204346,3,3.72824764251709,None,,,,,,,,,,,,,,,,,,9,6,2025-02-18_13h01.18.874,comp,2024.2.4,None,2025-02-18 13h01.48.519162 -0500,
